t,ax,ay,az,wx,wy,wz,zv
5.063424999999999870e-03,-3.917027605519999955e+00,-6.606418464259999901e-02,-8.968868219520000906e+00,-9.450417011979999476e-03,1.475530304010000057e-02,2.413805807010000262e-03,1.000000000000000000e+00
1.007889900000000054e-02,-3.929598041019999766e+00,-1.065040347529999931e-01,-8.976384586500000040e+00,1.540785375979999983e-02,3.435747232290000015e-03,7.692773826420000113e-03,1.000000000000000000e+00
1.511058300000000035e-02,-3.884206409159999929e+00,-7.829656099300000283e-02,-9.011474020050000533e+00,5.534233991060000940e-03,3.815298900010000074e-03,-5.109465681020000476e-03,1.000000000000000000e+00
2.003932799999999861e-02,-3.926386093240000097e+00,-1.045897164310000127e-01,-9.025622372389999981e+00,9.816564852369999894e-05,-4.807163029910000406e-03,3.967576660219999767e-03,1.000000000000000000e+00
2.506688699999999950e-02,-3.924296135219999648e+00,-7.448900366989999466e-02,-8.995192747339999073e+00,1.886884449049999789e-03,7.493226323279999525e-03,-2.371231559659999887e-03,1.000000000000000000e+00
3.006413700000000119e-02,-3.938465822609999556e+00,-9.921455359829998988e-02,-8.964127162469999632e+00,-2.640708815310000360e-03,1.288869976999999951e-02,7.955601904539999622e-04,1.000000000000000000e+00
3.508266699999999794e-02,-3.903809519769999792e+00,-8.738800440269998970e-02,-8.962495761869998745e+00,-1.253656810150000165e-03,-1.048651896420000132e-02,-2.017636317759999905e-03,1.000000000000000000e+00
4.003139900000000223e-02,-3.908305369890000325e+00,-1.079925654109999966e-01,-9.002052111719999417e+00,-1.510083675379999928e-02,6.850149948150000175e-03,3.335935296489999594e-03,1.000000000000000000e+00
4.507506700000000338e-02,-3.885901230380000460e+00,-9.684632662960000749e-02,-8.947509205139999366e+00,-4.721467383210000215e-03,-2.529582707210000034e-03,1.705913571640000183e-03,1.000000000000000000e+00
5.004643300000000128e-02,-3.877618555199999761e+00,-1.054844550479999976e-01,-8.977684563180000410e+00,2.919762395320000484e-03,4.413282033060000192e-03,3.060230752449999599e-03,1.000000000000000000e+00
5.498155899999999929e-02,-3.915708924140000491e+00,-7.788158698399999524e-02,-8.961515518669999736e+00,-7.047225255519999967e-03,1.422467455270000000e-02,8.835148066280001586e-03,1.000000000000000000e+00
6.007284000000000235e-02,-3.895420753869999864e+00,-7.919927285330000122e-02,-8.980312573590000014e+00,-5.934289656579999715e-04,1.306529715660000035e-02,-6.521365139630000808e-04,1.000000000000000000e+00
6.503648200000000656e-02,-3.910199220809999598e+00,-9.105222599860000876e-02,-8.972115823130000223e+00,-1.067135017370000015e-02,9.468737989659999424e-03,1.578761497509999917e-03,1.000000000000000000e+00
7.005423900000000426e-02,-3.867954654800000114e+00,-9.567651566529999929e-02,-8.948781124779999985e+00,-1.034283451739999998e-02,-5.169911775740000139e-03,-7.973448373379999829e-03,1.000000000000000000e+00
7.504015099999999938e-02,-3.961636562580000298e+00,-1.113300301369999912e-01,-8.985786036569999524e+00,-6.258892826740000519e-03,-1.107161119579999978e-02,1.175792235879999890e-02,1.000000000000000000e+00
7.999614800000000303e-02,-3.897889482069999634e+00,-9.200880520430000653e-02,-8.953621550550000308e+00,3.209271002560000040e-03,-3.733988851310000075e-03,-2.640110440549999892e-03,1.000000000000000000e+00
8.508271500000000320e-02,-3.902430924890000430e+00,-7.938497728429999567e-02,-9.001782647120000647e+00,1.036368589849999931e-02,6.057943683119999465e-03,-8.585369214419999798e-03,1.000000000000000000e+00
9.003751799999999694e-02,-3.956149071080000468e+00,-1.007271501180000001e-01,-8.995549890210000399e+00,-1.791443303229999992e-02,-1.843305677179999866e-02,1.086371112610000009e-02,1.000000000000000000e+00
9.515055199999999935e-02,-3.905073256100000112e+00,-7.905137968200000309e-02,-8.964701162960000858e+00,5.187428090720000093e-03,-6.889754440639998551e-04,4.490030929449999493e-03,1.000000000000000000e+00
9.999140900000000332e-02,-3.917451968419999542e+00,-1.027652866159999984e-01,-8.960625876349999075e+00,-1.239120867099999940e-02,3.537844400849999953e-03,-1.252700807529999938e-03,1.000000000000000000e+00
1.050405350000000043e-01,-3.903123875589999958e+00,-7.917978270150000109e-02,-8.979049421789998320e+00,-1.111871097239999859e-03,-8.550593629479999805e-03,-8.031665347519999221e-03,1.000000000000000000e+00
1.100139319999999948e-01,-3.949376215940000545e+00,-1.077127986209999999e-01,-8.986552929289999270e+00,-5.863707512619999521e-03,7.126076612620000153e-03,-2.454707864670000080e-03,1.000000000000000000e+00
1.150668229999999986e-01,-3.948879372340000415e+00,-7.825415575660001066e-02,-9.005580285840000698e+00,5.410224664959999326e-03,-4.363983869549999811e-03,1.894781924780000043e-02,1.000000000000000000e+00
1.200645909999999983e-01,-3.882967807270000016e+00,-8.054446778399999840e-02,-9.003775866769998970e+00,2.125657629220000248e-04,6.542490329590000021e-03,-3.644257551059999854e-03,1.000000000000000000e+00
1.250861600000000018e-01,-3.885342427449999914e+00,-8.647043289999999105e-02,-8.983515753549999872e+00,3.646856639530000541e-03,-1.272980589420000166e-04,-3.084582509469999817e-03,1.000000000000000000e+00
1.300158250000000015e-01,-3.904409823750000008e+00,-6.244123577190000690e-02,-8.964019610439999397e+00,-5.602557212110000008e-05,1.342900097370000080e-02,-2.947343979030000137e-03,1.000000000000000000e+00
1.350718790000000058e-01,-3.888616334549999998e+00,-9.355239051760001756e-02,-8.979708177959999205e+00,-1.439395919439999914e-02,6.087199319149999566e-03,-3.821916412559999907e-03,1.000000000000000000e+00
1.400146730000000062e-01,-3.915964944730000674e+00,-9.235276893689998989e-02,-8.978525105660001060e+00,-3.324283985419999865e-03,4.679208155720000935e-03,9.260070510209999703e-03,1.000000000000000000e+00
1.450675590000000126e-01,-3.917001302040000077e+00,-8.260551023329999742e-02,-8.973483604360001920e+00,-5.009426269680000536e-03,4.435321781779999993e-03,-3.884801175449999807e-03,1.000000000000000000e+00
1.500840200000000124e-01,-3.880623582230000590e+00,-1.091360637570000097e-01,-8.988322861569999489e+00,-9.596002288159998644e-03,-2.066647168250000319e-03,-2.264289418239999983e-03,1.000000000000000000e+00
1.550798489999999918e-01,-3.925292160519999740e+00,-1.019703642459999920e-01,-8.994836188989999926e+00,1.784183084959999749e-02,-3.573946421969999895e-03,9.980560280379998164e-03,1.000000000000000000e+00
1.599914570000000036e-01,-3.880599909100000300e+00,-1.162088060219999969e-01,-8.993359686689998966e+00,-5.163799040020000501e-03,-1.617207424720000118e-03,-3.727294038980000137e-03,1.000000000000000000e+00
1.650659040000000133e-01,-3.917035496569999609e+00,-9.342394183240000649e-02,-8.978730857360000428e+00,-2.566060516979999824e-03,2.514824736860000239e-03,-7.190321572120000199e-03,1.000000000000000000e+00
1.700302290000000049e-01,-3.918724472569999673e+00,-1.053124686150000017e-01,-8.965233077880000678e+00,-5.200568120930000419e-03,2.074057701979999981e-03,5.990349687639999476e-03,1.000000000000000000e+00
1.750098079999999889e-01,-3.897963131830000094e+00,-1.078584359039999885e-01,-8.991003478959999740e+00,-9.520053863530001520e-03,-1.445563626480000008e-03,5.973915103819999687e-04,1.000000000000000000e+00
1.800436920000000052e-01,-3.916842896609999958e+00,-8.786413401440000548e-02,-9.020065907310000242e+00,-2.119625359769999884e-02,1.489611808210000070e-03,9.834606200459998504e-03,1.000000000000000000e+00
1.850375880000000028e-01,-3.897766440209999850e+00,-9.116835405850000351e-02,-8.997973902489999176e+00,-3.898744005710000175e-03,6.205867975949999684e-06,-1.021729782220000011e-03,1.000000000000000000e+00
1.900680849999999977e-01,-3.923643808790000076e+00,-8.271164662210001017e-02,-8.978863543830000182e+00,7.635145448149999181e-03,1.318905875090000020e-02,6.295099854470000145e-03,1.000000000000000000e+00
1.950167760000000028e-01,-3.884054725729999991e+00,-9.230750502310000605e-02,-8.982752952480000275e+00,7.298273034390000483e-03,-5.734369624410000713e-03,5.066627636550000298e-05,1.000000000000000000e+00
2.000727909999999998e-01,-3.936630131619999418e+00,-1.077982849479999922e-01,-8.994004414339999087e+00,2.639338606970000056e-03,-1.945444755259999672e-02,1.071029528979999985e-02,1.000000000000000000e+00
2.050454710000000069e-01,-3.883460559230000442e+00,-8.516936937200000890e-02,-8.985019143849999779e+00,-1.396157871929999857e-02,1.181143894790000030e-02,1.168446848170000014e-03,1.000000000000000000e+00
2.100242330000000046e-01,-3.883671571630000319e+00,-7.445532516260000566e-02,-8.979451572849999508e+00,-7.982878945770001053e-03,-1.213894411920000103e-02,-2.678704680870000205e-03,1.000000000000000000e+00
2.150043500000000107e-01,-3.877366626259999727e+00,-9.479163172269999826e-02,-8.996909488130000909e+00,2.741497475650000147e-03,1.873129047450000162e-03,-1.481291186059999904e-02,1.000000000000000000e+00
2.199803240000000049e-01,-3.925737566200000028e+00,-6.630309426530001105e-02,-9.001984891699999380e+00,2.086878288539999963e-03,6.694413255899998860e-03,-2.275889273730000108e-04,1.000000000000000000e+00
2.250881190000000032e-01,-3.866308056630000323e+00,-1.256401671769999950e-01,-8.978265577939998465e+00,-4.777370486410000353e-03,4.736301489169999915e-04,-6.027411669489999776e-03,1.000000000000000000e+00
2.300622139999999871e-01,-3.907521233769999824e+00,-6.626296775090000091e-02,-8.998336890580000968e+00,2.487761201340000453e-03,5.599977914239999584e-03,-1.944510266180000122e-03,1.000000000000000000e+00
2.350567440000000119e-01,-3.906880013259999895e+00,-1.174112680140000087e-01,-8.996891952469999509e+00,-6.542293122040000524e-04,-6.379667203870000199e-03,3.832609159869999893e-03,1.000000000000000000e+00
2.399859569999999998e-01,-3.921788244049999594e+00,-9.223970961699999582e-02,-8.987790946649999668e+00,-5.620923358949999823e-03,1.333731040360000043e-02,9.602152276779999827e-04,1.000000000000000000e+00
2.450506149999999994e-01,-3.907176950380000680e+00,-9.000443397880000806e-02,-8.990014467920000030e+00,7.216123864049999587e-03,-3.864688333119999705e-03,8.344299159939999946e-03,1.000000000000000000e+00
2.500481920000000025e-01,-3.893621595490000420e+00,-9.330063511309999447e-02,-8.968976356069999767e+00,-1.023014541720000149e-02,5.054706707600000251e-03,-3.991964273150000637e-03,1.000000000000000000e+00
2.550464639999999727e-01,-3.932068815050000055e+00,-8.989320128979999547e-02,-8.988053981500000233e+00,2.742440439760000619e-03,-7.083624601359999294e-03,2.665829611940000177e-03,1.000000000000000000e+00
2.600497929999999736e-01,-3.923475466489999786e+00,-1.019204150239999968e-01,-9.003468992780000235e+00,-4.481758922340000131e-03,1.016978174450000084e-02,4.822306334970000684e-03,1.000000000000000000e+00
2.650513250000000043e-01,-3.903292217900000249e+00,-8.381252966919999770e-02,-8.972592792999998679e+00,4.255017265679999529e-03,1.224989444020000047e-02,-3.118748776610000013e-03,1.000000000000000000e+00
2.701696699999999729e-01,-3.927136327079999933e+00,-6.619185244319999994e-02,-9.000024405279999584e+00,7.707617245610000160e-03,-5.547431297600000435e-03,-1.237983815370000042e-03,1.000000000000000000e+00
2.750200340000000243e-01,-3.889443725290000486e+00,-6.730785086099999592e-02,-8.977170768440000614e+00,1.368054840710000199e-02,-4.170107655229999752e-03,-8.608486969019999704e-04,1.000000000000000000e+00
2.800370520000000085e-01,-3.948420230390000452e+00,-7.630983502210000879e-02,-8.934197888150000821e+00,8.459181524810000657e-03,1.062851585449999837e-02,9.443501941859999693e-03,1.000000000000000000e+00
2.849933119999999986e-01,-3.903506445169999672e+00,-1.031991662549999883e-01,-9.006368221349999814e+00,-2.407614607360000162e-03,-1.233092043550000118e-04,1.055461447690000075e-02,1.000000000000000000e+00
2.899807640000000020e-01,-3.863776200069999778e+00,-5.780137864340000042e-02,-8.985105653089998867e+00,1.626017619859999972e-04,-4.296840168540000220e-03,-1.062826439740000017e-02,1.000000000000000000e+00
2.949511249999999807e-01,-3.964941157080000167e+00,-9.107789929600000611e-02,-8.992467121769999849e+00,4.331094212829999894e-03,-1.212922483679999830e-02,6.673791445789999631e-03,1.000000000000000000e+00
3.000537110000000007e-01,-3.900079101069999776e+00,-8.381371697930001252e-02,-8.964801700730001599e+00,-4.000897519290000544e-03,-7.608952466399998907e-03,6.865292787549999443e-03,1.000000000000000000e+00
3.050249210000000044e-01,-3.883186418459999345e+00,-1.114750189650000056e-01,-9.002587533769998984e+00,-4.299727268520000222e-03,2.014392055569999822e-03,-4.887678194789999570e-03,1.000000000000000000e+00
3.100198880000000212e-01,-3.902292100950000453e+00,-9.929762877190000114e-02,-8.973771773650000227e+00,2.219574991610000041e-03,-6.723884958770000309e-03,-1.163858827199999897e-02,1.000000000000000000e+00
3.150482119999999941e-01,-3.937936245780000011e+00,-7.435882881849999182e-02,-8.978699293180000041e+00,2.361625200139999634e-03,-4.806424025449999859e-03,-6.281337700780000770e-04,1.000000000000000000e+00
3.200309190000000248e-01,-3.915702786660000267e+00,-8.170910024970000352e-02,-8.992533757260000371e+00,2.404076512900000032e-03,-4.543623887000000465e-03,1.238833274689999861e-02,1.000000000000000000e+00
3.250361600000000184e-01,-3.852714707830000584e+00,-8.868904053130001464e-02,-8.973463146089999398e+00,6.403546314690000164e-03,-6.252642720940000502e-03,-5.521737039089999986e-03,1.000000000000000000e+00
3.300266119999999970e-01,-3.887795081299999733e+00,-8.617059143689999312e-02,-8.952360736830000221e+00,-1.130789518360000162e-02,-5.687712691719999355e-04,6.053119432180001022e-04,1.000000000000000000e+00
3.350038850000000012e-01,-3.889363353530000289e+00,-1.102593412989999883e-01,-9.003509324790000434e+00,-2.295719459650000238e-03,-1.542606204749999953e-02,-1.286880206320000115e-02,1.000000000000000000e+00
3.400845499999999855e-01,-3.897421864559999616e+00,-4.834082336019999288e-02,-8.980016220999999632e+00,8.225776255129999123e-04,1.323699718339999909e-03,-2.781305694949999865e-03,1.000000000000000000e+00
3.449991579999999725e-01,-3.930909708140000181e+00,-5.075262917569999671e-02,-8.999194968719999466e+00,-4.181905649600000177e-03,-1.512016518969999928e-03,5.422201938930000346e-03,1.000000000000000000e+00
3.499912840000000136e-01,-3.892014452559999782e+00,-1.005947193779999915e-01,-8.981268266880000795e+00,-1.641984214069999769e-03,8.317368105050000279e-03,-4.896677564830001017e-04,1.000000000000000000e+00
3.550371469999999974e-01,-3.922690453590000459e+00,-1.106158631189999852e-01,-9.040766165510001784e+00,-3.675335086880000216e-03,-2.178792376070000369e-03,7.852373644709999961e-03,1.000000000000000000e+00
3.599835410000000180e-01,-3.848746973239999924e+00,-7.212357144650000107e-02,-8.976465250519998662e+00,-1.051971595729999862e-02,1.397337764499999833e-04,-3.408246906469999948e-03,1.000000000000000000e+00
3.650055870000000202e-01,-3.933085590880000648e+00,-8.018385431070000624e-02,-8.966586830580000722e+00,3.341191913929999688e-03,-5.935734603549999711e-03,2.658040495589999996e-03,1.000000000000000000e+00
3.700247139999999768e-01,-3.891856631650000065e+00,-8.143278579269999651e-02,-8.967031067220000651e+00,1.238162163650000135e-03,9.006612002850000395e-03,-4.376249387859999784e-03,1.000000000000000000e+00
3.750320180000000225e-01,-3.906543036390000001e+00,-9.128775178760001330e-02,-9.001863311139999269e+00,6.905180867759999619e-03,1.206725463270000125e-02,1.438588136809999937e-03,1.000000000000000000e+00
3.800449530000000187e-01,-3.900764160730000096e+00,-7.431868860430000667e-02,-8.975051292060001629e+00,-5.276921670879999512e-03,-6.944942288100000409e-03,-7.718002423640000532e-03,1.000000000000000000e+00
3.850363339999999801e-01,-3.927305838430000584e+00,-1.115552628609999958e-01,-9.014341099919999323e+00,-4.521530936469999912e-04,-1.063870382499999953e-03,-4.382780753079999964e-05,1.000000000000000000e+00
3.900247139999999946e-01,-3.898447408219999577e+00,-1.149168482489999893e-01,-8.990456950989999640e+00,4.275662824509999724e-03,-6.180583499369999255e-03,-7.077315356580000591e-03,1.000000000000000000e+00
3.950489010000000079e-01,-3.934426191830000086e+00,-7.437143713830000891e-02,-8.982139204500001028e+00,-2.993746893479999876e-03,-4.487281665210000013e-03,-3.017692361030000154e-04,1.000000000000000000e+00
4.000977660000000213e-01,-3.912743644589999903e+00,-7.199396741719998882e-02,-8.978822042779999180e+00,-8.790803141889999561e-03,6.352709140629999619e-03,-2.865982241930000438e-04,1.000000000000000000e+00
4.051015579999999727e-01,-3.924482305440000207e+00,-7.692087045939999257e-02,-8.997905513430000113e+00,8.042843546719998849e-06,-4.597230814399999588e-03,6.256501190359999715e-03,1.000000000000000000e+00
4.101303119999999969e-01,-3.902190978659999754e+00,-8.654081298879999495e-02,-9.007550124610000708e+00,-1.969227101650000093e-03,2.967309672389999587e-03,4.391763359310000940e-03,1.000000000000000000e+00
4.150626709999999941e-01,-3.894422682739999697e+00,-1.114096621120000130e-01,-9.000975422389998926e+00,-1.929279416800000133e-02,1.292711868879999927e-02,-8.950144983830000261e-03,1.000000000000000000e+00
4.200472060000000063e-01,-3.916457696680000211e+00,-9.956592431930000320e-02,-8.991413228800000823e+00,2.578944200650000202e-03,-1.014843117450000068e-02,7.965788245200000617e-03,1.000000000000000000e+00
4.250459309999999880e-01,-3.957257324580000013e+00,-8.007378153230000628e-02,-8.961291646779999454e+00,3.145371330900000213e-03,8.384045213459999368e-03,1.721672900019999980e-02,1.000000000000000000e+00
4.299933599999999911e-01,-3.866821559109999917e+00,-8.398911007880000001e-02,-8.985079349600001208e+00,-7.730439305309999912e-03,5.886708851899999373e-03,4.210097249599999299e-04,1.000000000000000000e+00
4.349484840000000241e-01,-3.925425139250000139e+00,-8.375753894580000025e-02,-8.958802752580000472e+00,5.699081812050000098e-03,-4.299161955709999983e-03,1.293508615339999945e-02,1.000000000000000000e+00
4.400541829999999877e-01,-3.884304901090000151e+00,-8.042115193160000175e-02,-8.994021365469999196e+00,1.728079468009999925e-02,2.599963452669999849e-03,-5.910171661529999704e-03,1.000000000000000000e+00
4.450223099999999765e-01,-3.904076938540000263e+00,-1.128534859779999899e-01,-9.022960459710001047e+00,6.848079618069999666e-03,-1.188081875439999865e-02,-5.222206935290000032e-03,1.000000000000000000e+00
4.500676750000000004e-01,-3.919899069309999984e+00,-1.041568779720000032e-01,-8.988997399829999679e+00,3.928171936420000077e-04,-8.155245333910000546e-03,-7.327990606430000338e-03,1.000000000000000000e+00
4.550099450000000267e-01,-3.932202378299999967e+00,-9.001933015380000902e-02,-8.995699527819999375e+00,2.894104924050000353e-03,4.388738889249999692e-03,7.927376776930001104e-03,1.000000000000000000e+00
4.599959499999999868e-01,-3.886524622970000120e+00,-8.618540541360000806e-02,-8.975873714360000477e+00,-5.859068594870000743e-03,5.639157723640000897e-03,-1.346813980489999958e-02,1.000000000000000000e+00
4.650381470000000128e-01,-3.928589740759999671e+00,-7.337818831719999935e-02,-8.995896511689998931e+00,-5.640123505149999446e-03,-8.698149584229999953e-03,1.301564043390000206e-03,1.000000000000000000e+00
4.700325559999999903e-01,-3.884347278929999980e+00,-7.458239017499999901e-02,-8.997115824360001568e+00,-6.998513825240000076e-03,9.123254567379999666e-03,-5.887750536199999954e-03,1.000000000000000000e+00
4.749649690000000146e-01,-3.897933028949999823e+00,-8.523913753939998950e-02,-9.000017975539998716e+00,-2.084612613540000065e-03,-6.804605480279998959e-03,-1.661227643490000017e-02,1.000000000000000000e+00
4.800120589999999909e-01,-3.908070392089999956e+00,-1.115931197870000113e-01,-9.011285804010000788e+00,-6.659292615949999154e-03,1.620481256400000195e-03,-9.590773843230000067e-03,1.000000000000000000e+00
4.849550930000000037e-01,-3.919026378119999876e+00,-9.558183225230000579e-02,-8.953730856139999972e+00,5.700462032109999445e-03,-3.848211141300000165e-03,-4.090792033819999965e-03,1.000000000000000000e+00
4.899982370000000031e-01,-3.901129194649999743e+00,-7.536474075830000563e-02,-8.950551641580000606e+00,-1.919085159900000073e-02,-2.742873132230000052e-02,-3.269482869650000220e-03,1.000000000000000000e+00
4.950222750000000116e-01,-3.907843013069999927e+00,-8.271381117970000307e-02,-8.976633592819998952e+00,1.630438724529999911e-03,1.320163160559999910e-02,-9.564138017589999359e-04,1.000000000000000000e+00
5.000053269999999994e-01,-3.924555662940000467e+00,-7.905991918150000186e-02,-8.963749561329999338e+00,-5.605339538309999856e-03,-1.785831060259999992e-03,1.358630228789999873e-02,1.000000000000000000e+00
5.050420700000000096e-01,-3.853784382890000249e+00,-7.674776978160000040e-02,-8.975416618249999701e+00,-1.077293604610000087e-02,-4.996482282879999813e-03,-1.283286605030000034e-02,1.000000000000000000e+00
5.100264829999999749e-01,-3.904330036509999768e+00,-1.067877470649999938e-01,-9.004269787760000199e+00,-1.132707484070000041e-02,2.821966074409999834e-03,-5.839145276700000164e-03,1.000000000000000000e+00
5.149676949999999476e-01,-3.868029765859999802e+00,-6.494529558130000824e-02,-8.975083440769999754e+00,-4.764310084279999545e-03,5.413976032289999699e-03,-1.147673837839999905e-02,1.000000000000000000e+00
5.199641329999999950e-01,-3.955741074800000145e+00,-9.792107058849999768e-02,-8.954068125270000067e+00,4.112774971869999872e-03,-8.515472523870000823e-03,-1.918395399119999676e-03,1.000000000000000000e+00
5.249386029999999481e-01,-3.939786549819999983e+00,-9.817673498320000913e-02,-8.977184796960001378e+00,7.812241092320000319e-04,-7.088961079720000093e-03,7.401912473140000344e-03,1.000000000000000000e+00
5.299954519999999780e-01,-3.880111541060000224e+00,-1.222768190900000163e-01,-8.996448300360000871e+00,1.420015376059999973e-02,1.354808732870000157e-02,6.814782507720000722e-03,1.000000000000000000e+00
5.350445940000000400e-01,-3.891030409959999936e+00,-8.783039614160001451e-02,-9.008187253470000044e+00,-4.808221478020000862e-03,2.278723753989999636e-03,4.128197208050000087e-03,1.000000000000000000e+00
5.400062559999999623e-01,-3.882420694780000403e+00,-8.649318358799999718e-02,-8.997043343639999691e+00,4.711170913649999933e-05,1.238656975329999882e-02,-1.024074107409999983e-02,1.000000000000000000e+00
5.450146700000000344e-01,-3.917237448879999917e+00,-1.243963319949999979e-01,-8.974401303720000556e+00,-1.216759905220000069e-03,1.224054023620000167e-02,-1.648041885349999956e-03,1.000000000000000000e+00
5.499990820000000280e-01,-3.843547066509999777e+00,-1.081311518980000025e-01,-9.008660716199999641e+00,-1.088493224229999772e-02,7.550372276459999497e-03,-1.773054338989999909e-02,1.000000000000000000e+00
5.549269470000000037e-01,-3.919024040040000045e+00,-1.292635087729999965e-01,-8.988573621460000496e+00,3.176981117579999719e-03,1.034204848109999964e-02,-1.011689193549999977e-02,1.000000000000000000e+00
5.599381009999999659e-01,-3.942226344190000287e+00,-9.210395440810000001e-02,-8.962145633260000466e+00,-2.803232520820000094e-03,-4.969967529180000648e-03,1.128173200410000120e-03,1.000000000000000000e+00
5.649344609999999989e-01,-3.891098799019999444e+00,-1.079845556340000012e-01,-8.998648440750001143e+00,-1.027088426049999927e-02,-9.075220674280000052e-03,7.647552993149999692e-04,1.000000000000000000e+00
5.699008779999999996e-01,-3.874237388330000087e+00,-9.591496406369999506e-02,-8.972881546810000941e+00,-1.957933418450000154e-03,8.924297988409999119e-03,-1.349402125919999884e-03,1.000000000000000000e+00
5.750652480000000288e-01,-3.905943316930000186e+00,-9.106944199489999670e-02,-8.971132072789998801e+00,-1.529139000920000033e-02,-7.938657887279999478e-03,2.373598748820000132e-03,1.000000000000000000e+00
5.800247929999999830e-01,-3.899852306580000594e+00,-9.097314201360000296e-02,-8.961485123530000152e+00,-8.615203201770000110e-03,-6.509883794929999593e-03,1.174804521720000097e-03,1.000000000000000000e+00
5.850073860000000181e-01,-3.887314312039999997e+00,-1.185094841799999993e-01,-8.979376754049999576e+00,1.021333783860000136e-02,6.439567077900000026e-03,-3.007566090669999866e-03,1.000000000000000000e+00
5.900230659999999849e-01,-3.907037834170000057e+00,-8.159280779319999510e-02,-8.977064969969999808e+00,1.775562530380000179e-03,-2.504641190170000132e-03,-4.877441097049999919e-04,1.000000000000000000e+00
5.949638029999999578e-01,-3.915953546549999498e+00,-1.246428084359999938e-01,-9.015296793210001880e+00,-8.099870756270000083e-03,2.149404957889999683e-03,-7.861509919169999694e-03,1.000000000000000000e+00
5.999614220000000220e-01,-3.909023747290000461e+00,-8.526829970180001272e-02,-8.991227350839999133e+00,-9.269743226469999431e-03,-9.258773177860000689e-03,-6.537824869160000288e-03,1.000000000000000000e+00
6.050143030000000310e-01,-3.932092488189999901e+00,-1.043063877109999954e-01,-8.991151947520000576e+00,-7.557226810600000538e-03,-8.758930489420000895e-03,7.611472159619999713e-03,1.000000000000000000e+00
6.100554719999999875e-01,-3.903606982940000414e+00,-1.068512316219999980e-01,-9.011340749060000377e+00,-4.153092857449999613e-03,8.398903533819999587e-03,5.968134850260000367e-03,1.000000000000000000e+00
6.149797700000000367e-01,-3.866702316650000082e+00,-1.104558228519999935e-01,-9.016050241930001263e+00,3.792790230360000483e-03,1.353437080979999832e-02,-1.513627078379999914e-02,1.000000000000000000e+00
6.200234049999999719e-01,-3.952720557930000211e+00,-1.041814096249999988e-01,-8.984629267749999926e+00,3.070215461780000034e-04,9.474331513049999084e-03,-2.196815330540000284e-04,1.000000000000000000e+00
6.250358190000000480e-01,-3.903787600199999819e+00,-1.052927958000000053e-01,-8.966198123519999896e+00,-1.664553210139999712e-02,2.788152080029999893e-03,1.354650361459999947e-03,1.000000000000000000e+00
6.300431669999999595e-01,-3.893967047930000369e+00,-9.576917151789998695e-02,-8.966201046130001018e+00,6.610409822310000724e-03,-1.148591749370000102e-02,-3.219656879079999760e-03,1.000000000000000000e+00
6.350328160000000555e-01,-3.925798648740000285e+00,-1.042192300180000003e-01,-8.990489099690000430e+00,-7.839314639569999396e-03,6.212082225829999513e-03,-3.868845291440000268e-03,1.000000000000000000e+00
6.399890940000000361e-01,-3.930807416810000010e+00,-3.982931243009999595e-02,-8.965193330399999994e+00,2.575165126470000041e-05,-9.782400447879999270e-04,6.532400846479999648e-03,1.000000000000000000e+00
6.450853899999999808e-01,-3.875461669430000367e+00,-8.766527784089998832e-02,-8.986891367460000168e+00,-1.368981320409999982e-03,3.623429685830000056e-03,-1.338846981529999945e-03,1.000000000000000000e+00
6.499909419999999605e-01,-3.883597045090000144e+00,-1.009769236279999954e-01,-9.015279257559999593e+00,2.036461140960000010e-03,1.081341411920000049e-03,-7.652109488840000417e-03,1.000000000000000000e+00
6.549445099999999798e-01,-3.913348332490000026e+00,-9.336989182389998643e-02,-8.968290711889999045e+00,-1.138381101190000071e-02,-6.000413559380000234e-03,-7.817795500159999134e-03,1.000000000000000000e+00
6.599761619999999773e-01,-3.953018956359999780e+00,-1.147659320030000041e-01,-8.974725128850000289e+00,8.121344260870000040e-03,9.037673473360000043e-03,2.297957660630000135e-03,1.000000000000000000e+00
6.650109269999999739e-01,-3.872061213329999863e+00,-1.149115601520000057e-01,-8.979175678520000758e+00,-7.935469970109999827e-03,1.432449743149999920e-02,-1.361989974979999941e-02,1.000000000000000000e+00
6.700600859999999992e-01,-3.970885452440000130e+00,-8.353671753569999470e-02,-8.941423747749999151e+00,-8.999892510470000259e-03,-6.122928112750000013e-03,3.468143520879999643e-03,1.000000000000000000e+00
6.750349599999999617e-01,-3.932791284110000340e+00,-8.283235952549999892e-02,-8.988581220249999504e+00,-1.219462882730000010e-02,2.235828898849999673e-03,1.205419376489999875e-02,1.000000000000000000e+00
6.800633630000000318e-01,-3.912818755660000036e+00,-9.347876815899999747e-02,-8.990291531289999583e+00,-4.175381734969999502e-03,-4.746308550239999695e-03,-4.662899300460000161e-06,1.000000000000000000e+00
6.850600180000000483e-01,-3.868531577900000240e+00,-1.115053136390000005e-01,-8.990462211689999705e+00,-5.157969892020000495e-03,-1.480657234789999922e-02,-8.559321984649998633e-03,1.000000000000000000e+00
6.900697080000000039e-01,-3.932081966790000216e+00,-1.328818271340000134e-01,-9.004548604710000959e+00,-9.404595009979999434e-03,9.927159175280000220e-03,-6.870647892359998954e-03,1.000000000000000000e+00
6.950016479999999719e-01,-3.925508725880000771e+00,-1.042651241190000050e-01,-8.986380495329999718e+00,2.659843303259999854e-04,9.040836244819999354e-03,3.929276019330000050e-03,1.000000000000000000e+00
6.999974799999999497e-01,-3.863212720969999570e+00,-1.043350840829999904e-01,-8.983569529560000433e+00,-2.501391572879999785e-04,-7.246013265100000045e-03,-3.609410254280000230e-03,1.000000000000000000e+00
7.050350600000000467e-01,-3.884147080179999989e+00,-7.584098910099999757e-02,-8.996420243310000231e+00,4.829403478649999318e-03,-6.528694648300000306e-03,-8.798629976809999725e-03,1.000000000000000000e+00
7.099772519999999476e-01,-3.949636328179999989e+00,-7.357240941480000518e-02,-9.015105654560001014e+00,6.569002754990000206e-03,-5.543589591979998683e-03,1.207516249270000099e-02,1.000000000000000000e+00
7.150967400000000085e-01,-3.872093069780000452e+00,-8.146999426419999912e-02,-8.957187134069998891e+00,3.820279613140000353e-03,-7.247395813469999920e-03,3.799569094550000244e-03,1.000000000000000000e+00
7.200073289999999737e-01,-3.902512465700000099e+00,-1.052538337630000015e-01,-8.959215425030000901e+00,-1.780972257259999872e-02,9.049922227860001875e-03,7.784727960819999917e-03,1.000000000000000000e+00
7.250104680000000190e-01,-3.863308290299999559e+00,-1.128207436190000051e-01,-8.998098405650001297e+00,1.505359355359999970e-02,1.463777571920000034e-02,5.087734200060000690e-03,1.000000000000000000e+00
7.300313109999999606e-01,-3.913802213739999925e+00,-9.834719617930000324e-02,-9.001129736170000228e+00,6.442128214989999851e-03,-7.135671097790000604e-03,-4.085034597669999837e-03,1.000000000000000000e+00
7.350443690000000307e-01,-3.931197877430000265e+00,-8.773058902899999456e-02,-9.001874417060001576e+00,-6.806178484109999885e-03,3.222099505360000345e-03,7.289256900550000057e-03,1.000000000000000000e+00
7.400423640000000081e-01,-3.924943493209999801e+00,-5.992254464900000077e-02,-8.958515752330001192e+00,2.074722433459999862e-03,5.688918288800000680e-03,4.784125834699999406e-03,1.000000000000000000e+00
7.450030349999999801e-01,-3.886736512159999712e+00,-1.007384843630000082e-01,-8.986721271589999560e+00,-1.426196563989999902e-02,3.920397721230000146e-03,1.333542400970000102e-03,1.000000000000000000e+00
7.500570829999999578e-01,-3.888065422669999549e+00,-9.551127863360001080e-02,-8.927466534069999682e+00,-1.403078623120000180e-02,-5.844422616060000047e-03,4.788463935260000269e-03,1.000000000000000000e+00
7.549572970000000272e-01,-3.836000304390000171e+00,-1.151408936620000045e-01,-8.989835019700000984e+00,-1.038248464470000083e-02,8.313825353979998473e-03,-1.001184061170000070e-02,1.000000000000000000e+00
7.600500959999999528e-01,-3.894989084459999695e+00,-1.293747414619999814e-01,-8.988323446089999891e+00,1.837402349339999769e-03,6.664447952060000707e-03,1.488844631239999959e-03,1.000000000000000000e+00
7.650042799999999810e-01,-3.907279826230000364e+00,-8.043315289659999645e-02,-8.977299363250001107e+00,1.262831035999999922e-03,3.562089521439999740e-03,8.083948865529998890e-03,1.000000000000000000e+00
7.700593709999999925e-01,-3.906693550769999579e+00,-1.184416522409999922e-01,-8.977746522500000381e+00,-4.307079128919999791e-03,-7.868396351110001474e-04,6.135676987470000364e-03,1.000000000000000000e+00
7.750510870000000274e-01,-3.902010945919999418e+00,-1.244397418779999986e-01,-8.988121786039998895e+00,-2.051062509419999957e-02,-8.884941926229999965e-04,-3.754933364690000216e-03,1.000000000000000000e+00
7.800160699999999503e-01,-3.930996801900000115e+00,-9.696991647669998826e-02,-8.972964548920000283e+00,-1.979285385459999755e-03,2.298723440620000034e-03,3.821325721219999937e-03,1.000000000000000000e+00
7.850692230000000382e-01,-3.905971958500000341e+00,-1.101279882709999963e-01,-8.971210983249999771e+00,-8.356660604479999171e-03,-1.230838149789999919e-02,1.134502235799999918e-02,1.000000000000000000e+00
7.900191530000000295e-01,-3.857837749930000282e+00,-9.497767408040000414e-02,-9.003779958420000895e+00,-1.955736055970000095e-02,-3.574563888830000272e-03,-1.325675286350000035e-03,1.000000000000000000e+00
7.950687889999999980e-01,-3.896682152109999464e+00,-9.252571435100000186e-02,-8.989868921970000315e+00,-1.919858902690000160e-02,-8.524471893910000320e-03,1.256071683020000031e-02,1.000000000000000000e+00
7.999817839999999736e-01,-3.901326470779999944e+00,-1.281590363959999868e-01,-8.993703385560001706e+00,-1.147888973359999926e-02,-3.411270445210000044e-03,1.692591235039999850e-02,1.000000000000000000e+00
8.050496120000000255e-01,-3.890968742900000166e+00,-1.115660399840000122e-01,-9.005410774489998715e+00,-9.120623581109999975e-03,1.848932821299999977e-03,1.002834457900000052e-02,1.000000000000000000e+00
8.100533850000000147e-01,-3.884234173949999924e+00,-7.915785399749999951e-02,-8.968853606469998851e+00,-1.155043765900000061e-02,-9.978330694139999485e-03,3.065771656110000219e-03,1.000000000000000000e+00
8.150128970000000139e-01,-3.927535555530000444e+00,-1.221528821829999945e-01,-8.988837825350000088e+00,-3.082871902729999742e-03,6.546232383700000511e-03,1.841051131489999937e-02,1.000000000000000000e+00
8.200510450000000340e-01,-3.876636850680000190e+00,-1.042032195979999964e-01,-8.979223609310000853e+00,-1.066762604750000039e-03,7.455313112589999694e-03,4.303231835369999980e-03,1.000000000000000000e+00
8.250520690000000545e-01,-3.912396438590000081e+00,-9.228835279800000346e-02,-8.980263473760000892e+00,-1.180186960849999994e-02,2.936810255050000418e-03,4.253936000170000127e-03,1.000000000000000000e+00
8.300596590000000052e-01,-3.885458162780000446e+00,-1.054429448599999986e-01,-8.988512246660000926e+00,-6.363167893140000628e-03,-2.810514764860000056e-03,-9.649886749680000250e-03,1.000000000000000000e+00
8.350726179999999887e-01,-3.930287776850000192e+00,-1.090785248839999944e-01,-8.992342034079999991e+00,-2.551103942099999886e-03,1.596406474709999995e-02,4.149581305679999818e-03,1.000000000000000000e+00
8.399594339999999493e-01,-3.912700974499999873e+00,-8.977676270269999148e-02,-8.965898263789998879e+00,-1.241007819770000194e-02,1.708895340559999851e-02,3.077239496629999987e-03,1.000000000000000000e+00
8.450195839999999903e-01,-3.900579744069999411e+00,-1.020550285880000019e-01,-9.004395459970000459e+00,-8.137017488479999366e-03,-1.734456419940000327e-02,2.990604611110000283e-03,1.000000000000000000e+00
8.500150029999999912e-01,-3.912551336890000009e+00,-9.947006272929999338e-02,-8.985014467670000116e+00,5.011954344810000753e-03,-1.202930230650000243e-03,3.564895829189999865e-03,1.000000000000000000e+00
8.550836499999999729e-01,-3.879688054949999909e+00,-1.139526793920000031e-01,-9.004339345870000955e+00,-1.379183260720000031e-03,-1.101606339219999946e-02,-6.662690080699999393e-03,1.000000000000000000e+00
8.599974190000000407e-01,-3.913095234509999631e+00,-8.182685401099999700e-02,-9.009391953080001514e+00,4.191486164929999689e-03,-6.722291000189999956e-03,1.009692205119999946e-03,1.000000000000000000e+00
8.650757629999999976e-01,-3.917714418740000148e+00,-7.908826849319999797e-02,-8.973241612289999836e+00,1.184525899590000006e-03,1.779801771040000202e-02,4.402903839949999856e-03,1.000000000000000000e+00
8.700557089999999549e-01,-3.920254166349999903e+00,-1.077006789250000013e-01,-8.981004062989999426e+00,8.869079872969998571e-03,-6.455355323850000063e-03,8.842675946649999202e-03,1.000000000000000000e+00
8.749460230000000172e-01,-3.875360254880000355e+00,-9.968048147649999358e-02,-9.007903175830000109e+00,-6.536262109880000212e-03,-1.592322019859999894e-03,7.910060230639998427e-04,1.000000000000000000e+00
8.800286240000000371e-01,-3.894555076950000139e+00,-8.737471566280000101e-02,-8.960281592959999486e+00,3.804012667389999880e-03,5.889372434470000264e-03,2.695161616429999664e-03,1.000000000000000000e+00
8.850515049999999606e-01,-3.873032980969999262e+00,-9.691897174069999399e-02,-8.967122252630000290e+00,-1.307944301520000061e-03,1.287593692539999897e-02,-1.073178462679999848e-02,1.000000000000000000e+00
8.899975780000000114e-01,-3.990290994649999590e+00,-7.307667092029999922e-02,-8.965762654720000668e+00,-7.580146193500000157e-03,-1.309858076270000067e-02,2.972916141150000122e-02,1.000000000000000000e+00
8.950468710000000216e-01,-3.827643102669999742e+00,-6.032331203619999832e-02,-8.993995646510001052e+00,-1.637962460520000010e-02,1.954485103490000153e-02,-4.772404208780000180e-04,1.000000000000000000e+00
9.000568789999999764e-01,-3.849165783169999688e+00,-6.752435685569999069e-02,-8.995532939080000290e+00,5.623515229669999969e-03,-6.984563078729999139e-03,-1.245117094370000108e-02,1.000000000000000000e+00
9.050705530000000554e-01,-3.913475173740000201e+00,-9.380721466209999970e-02,-9.012945846170000053e+00,-8.118558675049999951e-03,-4.544717259709999367e-03,3.242264268920000327e-03,1.000000000000000000e+00
9.100259099999999934e-01,-3.894342018719999743e+00,-1.043779733769999996e-01,-9.007393472739998685e+00,-4.103402607139999651e-03,2.555365674199999628e-03,-3.099814523010000107e-03,1.000000000000000000e+00
9.150265880000000296e-01,-3.954509194919999970e+00,-1.040168119140000014e-01,-8.979017857609999709e+00,8.924134075639999705e-03,5.489548202600000489e-03,4.807547666129999807e-03,1.000000000000000000e+00
9.199600260000000418e-01,-3.896363587680000240e+00,-9.739344825149999496e-02,-9.021972617719999477e+00,-5.275397561490000574e-03,6.518164183939999419e-03,3.193584969269999945e-03,1.000000000000000000e+00
9.250422149999999455e-01,-3.856064895040000273e+00,-6.610119675130000927e-02,-8.967019376779999718e+00,1.124744862320000045e-02,9.063476696609999717e-03,-3.379877656699999816e-03,1.000000000000000000e+00
9.299740659999999881e-01,-3.917011531170000005e+00,-9.937082187230000807e-02,-8.981014584380000443e+00,4.430576227609999730e-03,-7.511094678190000096e-03,-1.135618193079999819e-03,1.000000000000000000e+00
9.349802069999999521e-01,-3.907035788339999982e+00,-1.030316276679999893e-01,-8.987265461469998939e+00,-4.277870990340000568e-03,4.412552807479999673e-03,1.474070595579999882e-03,1.000000000000000000e+00
9.399725429999999937e-01,-3.855031168080000459e+00,-7.573932795800000783e-02,-8.983487696499999231e+00,-9.609013795850000067e-03,1.346854260190000164e-03,-8.494526147839999430e-03,1.000000000000000000e+00
9.450144329999999870e-01,-3.928161870739999895e+00,-9.464211284989999806e-02,-8.984610563049999499e+00,2.955979201939999950e-03,-8.882511174310002032e-04,-8.553091902289999306e-04,1.000000000000000000e+00
9.500449629999999646e-01,-3.879953720150000063e+00,-6.966435542589999308e-02,-8.978098989199999380e+00,-9.632697328930000386e-03,6.138867232950000544e-03,-9.649629704649999654e-03,1.000000000000000000e+00
9.550358289999999473e-01,-3.930660994080000581e+00,-6.370403594909999911e-02,-8.982497516419998718e+00,-1.415271963919999959e-02,-4.990405868739999917e-04,1.316892448809999915e-04,1.000000000000000000e+00
9.600109549999999992e-01,-3.904379428609999980e+00,-7.552373527880000548e-02,-8.977390548669999859e+00,3.359081223609999747e-03,-9.109543636440000855e-03,-7.847019471229999682e-03,1.000000000000000000e+00
9.650365159999999554e-01,-3.899885039800000008e+00,-7.068286198580001067e-02,-8.957847643810000093e+00,1.335251610729999965e-03,-2.111294306809999820e-03,-5.849130917340000096e-03,1.000000000000000000e+00
9.701294980000000345e-01,-3.924140067880000693e+00,-8.139237158389998894e-02,-8.958923164079999779e+00,1.018763519820000026e-02,-1.363075920380000128e-03,7.816481404010000925e-03,1.000000000000000000e+00
9.749875169999999702e-01,-3.901277370940000377e+00,-1.054295830550000118e-01,-8.990736936970000315e+00,-1.940960297359999942e-03,-7.246767636390000038e-03,5.921955220399999914e-03,1.000000000000000000e+00
9.799900729999999616e-01,-3.922681393500000446e+00,-1.078127792639999999e-01,-8.995210867519999098e+00,-1.370661426339999994e-03,5.272017326210000354e-03,1.003505755220000101e-02,1.000000000000000000e+00
9.849907549999999956e-01,-3.876438990030000031e+00,-1.016920039619999966e-01,-8.971644113969999168e+00,-9.213635697959998358e-03,6.869517732410000167e-03,-5.076021421700000445e-03,1.000000000000000000e+00
9.899951529999999611e-01,-3.920338629769999805e+00,-7.926135090460000032e-02,-8.992025807739999266e+00,-9.376286528999999356e-03,-1.421716995540000042e-02,1.132373930889999953e-03,1.000000000000000000e+00
9.950066910000000542e-01,-3.885991539009999496e+00,-9.715029627860000128e-02,-8.991149609430001632e+00,-4.379763267930000294e-03,4.145003855230000069e-03,-2.387918531889999651e-03,1.000000000000000000e+00
9.999919980000000486e-01,-3.896981135059999879e+00,-7.331138385850000105e-02,-8.988702216280000101e+00,7.506215013560000454e-03,1.793863065540000218e-02,-4.373002331699999898e-03,1.000000000000000000e+00
1.005003668000000072e+00,-3.968020710659999839e+00,-1.027849685640000038e-01,-8.970902355689998942e+00,2.542486041779999997e-02,1.138635165989999865e-02,1.439503673459999883e-02,1.000000000000000000e+00
1.009991413000000060e+00,-3.861792332769999447e+00,-1.078998912920000053e-01,-9.004787674159999256e+00,-8.207635954019999736e-03,3.789977170530000206e-03,-1.194167137150000009e-02,1.000000000000000000e+00
1.014991218999999889e+00,-3.961991075099999815e+00,-7.779800948689999385e-02,-8.973235767080000258e+00,3.731680568309999561e-03,1.149681769310000046e-02,-3.191484138369999886e-04,1.000000000000000000e+00
1.020001112000000099e+00,-3.884141234969999967e+00,-5.872100967240000136e-02,-8.944043574860000234e+00,8.973702788349999931e-03,2.191434614360000289e-03,1.090748934079999871e-03,1.000000000000000000e+00
1.025027216000000019e+00,-3.905389482440000393e+00,-5.279735524450000078e-02,-8.957635462360000744e+00,-7.453360594810000753e-03,-2.530775498600000128e-03,-5.773478187620000122e-05,1.000000000000000000e+00
1.030055788999999944e+00,-3.902248554059999375e+00,-7.569571714520000050e-02,-8.989842618480000880e+00,3.420695662499999810e-03,-4.635988734659999243e-03,8.562346920370000200e-06,1.000000000000000000e+00
1.035024772999999954e+00,-3.901044146709999882e+00,-6.358138681699999906e-02,-8.964849631519999917e+00,6.374998018150000376e-03,-5.198509432380000322e-03,-1.014307141300000012e-03,1.000000000000000000e+00
1.040078110000000056e+00,-3.916644159160000083e+00,-6.853009526549999619e-02,-8.978527443739999114e+00,-7.910124026239999037e-03,6.977532524620000051e-03,1.622938551009999938e-02,1.000000000000000000e+00
1.045026505999999911e+00,-3.843836697109999534e+00,-8.752230743999998841e-02,-8.987017039670000429e+00,-4.840147215870000200e-03,-1.867335289720000076e-03,-1.967853866520000161e-02,1.000000000000000000e+00
1.050019857999999973e+00,-3.962113532440000085e+00,-9.463177411900000613e-02,-8.987875117799999813e+00,-2.103709150109999565e-03,-8.900797925890000309e-03,-2.230233512819999983e-04,1.000000000000000000e+00
1.055060834000000058e+00,-3.896574892340000318e+00,-8.385695333289999720e-02,-8.971815963410000094e+00,5.846082232889999661e-03,-1.049224054440000111e-03,-4.311373922970000196e-03,1.000000000000000000e+00
1.060057012999999992e+00,-3.915066534580000202e+00,-7.898624202389999127e-02,-8.954274461499998949e+00,-7.090994622560000066e-04,8.697897195819998678e-03,6.585064344109999891e-03,1.000000000000000000e+00
1.064967816000000012e+00,-3.881962137359999954e+00,-6.972510003660001288e-02,-8.988589988069998427e+00,7.306789979339999887e-03,5.625188350680000162e-04,-5.470692645760000250e-03,1.000000000000000000e+00
1.070035904999999898e+00,-3.878303322589999880e+00,-7.940814809729999924e-02,-8.993142244550000441e+00,-1.863341405990000255e-02,1.947159320119999995e-02,-1.176692312579999877e-03,1.000000000000000000e+00
1.075008259000000077e+00,-3.936411228169999887e+00,-6.943161068249999179e-02,-8.959614068960000566e+00,-7.811095565560000628e-05,-2.886520233010000241e-03,8.472144603730000917e-03,1.000000000000000000e+00
1.080001487999999954e+00,-3.876327930869999605e+00,-7.660877230289998840e-02,-8.955416032749999644e+00,3.093557432290000055e-03,3.771346993739999650e-03,-1.585694611999999845e-03,1.000000000000000000e+00
1.085075331999999948e+00,-3.920668007850000247e+00,-1.016415524159999945e-01,-8.966803688200000622e+00,-2.570134587590000054e-03,-8.203587494790000670e-03,4.641343839470000489e-03,1.000000000000000000e+00
1.090023398999999893e+00,-3.893253931230000298e+00,-5.897776547899999389e-02,-8.981655220369999526e+00,3.437199164180000047e-03,-1.027985662220000027e-02,8.811911102379999623e-04,1.000000000000000000e+00
1.095054978000000068e+00,-3.937563320809999823e+00,-8.757734382919998839e-02,-8.991892536749999110e+00,-1.318311505020000086e-02,-4.149001557380000045e-03,1.458377484229999785e-02,1.000000000000000000e+00
1.100034219000000091e+00,-3.849353414700000364e+00,-8.297951291119999573e-02,-8.992026392260001444e+00,-1.144374534489999914e-02,1.974235102529999994e-02,5.921202711760000306e-03,1.000000000000000000e+00
1.105025970000000024e+00,-3.886489843919999743e+00,-9.019097866000000407e-02,-9.012606238960000127e+00,-9.173931553959999152e-03,2.275980263950000068e-02,1.463763182979999945e-03,1.000000000000000000e+00
1.110022947000000038e+00,-3.918055195009999991e+00,-1.091087190919999977e-01,-9.001584494199999398e+00,-9.699108079079999181e-03,8.198782801630000172e-03,1.051884610210000043e-02,1.000000000000000000e+00
1.114987254999999955e+00,-3.882795665580000222e+00,-9.596672165039998870e-02,-8.992316899640000472e+00,1.636269316079999939e-02,-2.026703441520000173e-03,4.767392762009999875e-03,1.000000000000000000e+00
1.120015103999999928e+00,-3.914115809730000617e+00,-7.547444821040000251e-02,-8.969215425519999840e+00,6.395979784429999676e-03,8.704097941520000034e-03,4.816283471879999681e-03,1.000000000000000000e+00
1.125019670999999999e+00,-3.896041808380000582e+00,-9.135391235899999185e-02,-9.009052345869999812e+00,-7.167083676899999901e-03,-1.324883103370000197e-02,5.833613686259999861e-03,1.000000000000000000e+00
1.130011858000000036e+00,-3.888182619309999755e+00,-1.087373102299999950e-01,-8.954186198689999543e+00,1.131809037179999991e-02,3.899902105330000160e-03,5.218280479310001031e-03,1.000000000000000000e+00
1.134984050999999994e+00,-3.868132641709999930e+00,-9.472353492249999118e-02,-8.984116057530000532e+00,1.333772670480000075e-03,-8.024619892240000829e-03,-5.547679029409999414e-03,1.000000000000000000e+00
1.140006574999999911e+00,-3.907876330819999744e+00,-6.126009056280000420e-02,-8.971989566410000450e+00,-3.366574179379999785e-03,6.198984105140000270e-03,-3.687990829350000065e-03,1.000000000000000000e+00
1.145054323999999957e+00,-3.911295783869999543e+00,-9.453438729230000115e-02,-8.963733194710000518e+00,-2.270448021590000296e-06,-3.801621496679999899e-03,5.753748118879999963e-03,1.000000000000000000e+00
1.150026508999999919e+00,-3.886620484559999866e+00,-7.427830179500000130e-02,-8.962486409520000308e+00,5.936088506129999845e-03,-1.601571450009999951e-03,-8.775610476729999972e-04,1.000000000000000000e+00
1.154999440999999960e+00,-3.930854178560000189e+00,-8.618399890779999961e-02,-8.961376986980001291e+00,3.314488101749999902e-03,8.411180227990000882e-03,1.800090819600000044e-02,1.000000000000000000e+00
1.160018656000000092e+00,-3.858173265490000059e+00,-1.222484423789999969e-01,-9.004148207210000976e+00,-8.603789843620000821e-03,5.488742608580000210e-03,1.292304834349999876e-03,1.000000000000000000e+00
1.165027395000000077e+00,-3.886209857930000400e+00,-9.223602895569998905e-02,-8.966590337710000469e+00,-9.678634814919999732e-03,7.313513197000000732e-04,5.889114923779999525e-03,1.000000000000000000e+00
1.170025592000000003e+00,-3.905109204190000405e+00,-7.955251587089999521e-02,-9.027670537100000558e+00,-2.786859171469999695e-03,-6.209962302819999188e-04,1.838610274720000074e-03,1.000000000000000000e+00
1.175041003000000028e+00,-3.866709038650000263e+00,-2.206110735889999994e-02,-8.961514349619999820e+00,-1.212776266039999884e-02,4.875273909420000523e-03,3.177656559269999726e-03,1.000000000000000000e+00
1.180080543999999954e+00,-3.894074599959999716e+00,-6.722383953909999432e-02,-8.970960223360000541e+00,8.383930660779999669e-03,-2.428022678940000307e-03,1.613065833230000086e-03,1.000000000000000000e+00
1.185046191999999943e+00,-3.909396672250000204e+00,-8.037844530099999552e-02,-8.979209580790000089e+00,-7.993073202670000418e-03,-4.972417373209999823e-04,7.741267792879999964e-03,1.000000000000000000e+00
1.190051589999999937e+00,-3.931637437890000530e+00,-7.920974858149999742e-02,-8.990518910309999612e+00,3.892702516169999592e-04,1.360464654860000198e-02,1.422428432850000000e-02,1.000000000000000000e+00
1.195056106000000007e+00,-3.850919348840000200e+00,-9.608138840539999503e-02,-8.997646570229999696e+00,9.321778779850000947e-04,-9.436810389159999701e-03,1.972625730560000068e-03,1.000000000000000000e+00
1.200029894999999902e+00,-3.904699746609999966e+00,-7.677916956689999350e-02,-8.978538549660001422e+00,1.147036906329999828e-02,1.395153626799999942e-02,-6.462507881220000763e-03,1.000000000000000000e+00
1.204966200000000098e+00,-3.928638548339999925e+00,-6.475081875540000809e-02,-8.962000671830001153e+00,-1.375211589040000078e-02,-7.616861723360000315e-03,-1.351684099059999918e-03,1.000000000000000000e+00
1.210039459999999956e+00,-3.952094534990000074e+00,-3.038214635140000508e-02,-8.971332563800000770e+00,4.753419663760000136e-03,9.169043041769998469e-04,2.209144830699999798e-02,1.000000000000000000e+00
1.215030164999999940e+00,-3.848994518259999609e+00,-7.561145466150000216e-02,-8.965684328780000101e+00,-1.492781471460000176e-02,8.893236517910000152e-03,4.191515035930000119e-03,1.000000000000000000e+00
1.220013392999999891e+00,-3.871025440540000417e+00,-5.328284177310000508e-02,-8.992413345750000175e+00,-1.093041151760000031e-02,8.464189246299999927e-03,3.160604974250000136e-03,1.000000000000000000e+00
1.225032332000000057e+00,-3.891418824750000116e+00,-7.337038403670000097e-02,-8.984578414339999597e+00,1.136433216740000141e-03,4.769238177689999296e-03,3.222964936870000019e-03,1.000000000000000000e+00
1.230009069999999927e+00,-3.889097688330000135e+00,-6.291995006639999888e-02,-9.014445144819999811e+00,-3.228500252590000164e-03,6.589116994290000057e-03,1.535291085019999981e-03,1.000000000000000000e+00
1.235054416999999960e+00,-3.896583952430000330e+00,-9.116751380819999862e-02,-8.987461276299999469e+00,-7.017165422440000203e-03,-1.342207938429999803e-02,-5.679880268869999180e-03,1.000000000000000000e+00
1.240000763999999922e+00,-3.937107101480000093e+00,-7.824463900960000606e-02,-9.009965369059999674e+00,8.216521237049999923e-04,-1.983113586900000277e-03,2.959494246169999763e-03,1.000000000000000000e+00
1.245031435000000020e+00,-3.908199279160000206e+00,-7.570327483050000306e-02,-8.984230039299999859e+00,-4.192403517659999863e-03,-1.397752948110000080e-02,5.458830855789999215e-03,1.000000000000000000e+00
1.250029990000000035e+00,-3.883221197509999723e+00,-6.881391717560000898e-02,-9.007332097939999116e+00,1.466975733640000015e-02,1.161416620020000109e-02,1.958510139959999865e-03,1.000000000000000000e+00
1.255020164000000049e+00,-3.912402283809999659e+00,-8.886128269250000156e-02,-9.000305560310000175e+00,6.494245026259999436e-03,5.078124348069999738e-03,-2.681572455909999979e-03,1.000000000000000000e+00
1.259987527000000052e+00,-3.914360139880000311e+00,-8.906191069800001303e-02,-9.018546734919999253e+00,-9.248839691280000275e-03,-3.807311644780000080e-03,-2.506612800059999989e-04,1.000000000000000000e+00
1.264984923000000094e+00,-3.883866217420000044e+00,-9.372402075750001227e-02,-9.001071283980000004e+00,-3.719232743609999798e-03,-1.511040842160000109e-03,-5.450587254020000140e-03,1.000000000000000000e+00
1.270006310000000083e+00,-3.942541109230000451e+00,-1.015149029629999894e-01,-8.954599455669999486e+00,-1.159888110119999902e-03,1.424682326610000188e-02,3.568935208019999956e-04,1.000000000000000000e+00
1.274992139000000080e+00,-3.874914556939999866e+00,-9.966254396099999413e-02,-8.997622020310000579e+00,8.325215429069998674e-03,-1.573695801199999963e-03,-6.400700658560000422e-03,1.000000000000000000e+00
1.280051767000000007e+00,-3.919255218440000466e+00,-4.598792639140000804e-02,-8.990161767440000062e+00,1.409129332750000060e-02,5.523695144799999806e-04,-2.585288602860000024e-03,1.000000000000000000e+00
1.285032874999999963e+00,-3.955773808020000004e+00,-8.159601353039999672e-02,-8.991575141360000245e+00,-1.247240323569999941e-02,-2.173348329960000155e-03,7.353674620389999937e-03,1.000000000000000000e+00
1.290041460000000084e+00,-3.901412395499999963e+00,-8.619966226780001461e-02,-8.965855593700000625e+00,4.760680720209999918e-03,4.590577445919999909e-03,-6.653019227090001134e-04,1.000000000000000000e+00
1.295033974000000088e+00,-3.923407661949999792e+00,-9.238921935660000806e-02,-8.994401889219998836e+00,-6.488767452539999717e-03,1.365983299910000087e-02,1.829393906520000029e-03,1.000000000000000000e+00
1.300027483999999900e+00,-3.850180805440000409e+00,-7.929201090429999210e-02,-8.975445844339999368e+00,5.062214564529999780e-03,-2.405642066149999911e-03,-1.152562908829999830e-02,1.000000000000000000e+00
1.305025056999999933e+00,-3.916583076630000271e+00,-1.141063355829999987e-01,-9.012193566500000586e+00,2.026182366540000244e-03,-3.971686586739999782e-03,9.247011505069999138e-03,1.000000000000000000e+00
1.310048670000000026e+00,-3.888394800759999548e+00,-7.060224363080000454e-02,-8.952679301259999889e+00,-9.134313091639999216e-03,1.487074047330000023e-02,-8.312049321830000323e-03,1.000000000000000000e+00
1.315038303999999991e+00,-3.913611367340000147e+00,-6.637811856309999703e-02,-9.002457185379999061e+00,1.106803398580000035e-02,-1.471478026359999709e-03,1.590698258950000096e-03,1.000000000000000000e+00
1.320097021000000037e+00,-3.887027311800000273e+00,-6.141224891719999912e-02,-8.980849749209999899e+00,1.611591503020000024e-02,2.607269678260000414e-03,-5.039268173280000117e-03,1.000000000000000000e+00
1.325039781000000083e+00,-3.916424963450000352e+00,-8.034028698139998592e-02,-8.966564034230000146e+00,4.033732227979999405e-03,-6.326447241009999951e-03,6.233972497280000115e-03,1.000000000000000000e+00
1.330049751000000002e+00,-3.894295841489999965e+00,-9.354643570090000193e-02,-8.989691811839998437e+00,-5.178570281710000341e-03,1.068822480740000067e-02,-4.897342994810000710e-03,1.000000000000000000e+00
1.335030173000000042e+00,-3.922872239900000224e+00,-1.270488375309999918e-01,-8.999885873589999363e+00,3.718947991730000755e-04,3.345513250680000133e-04,1.411319058389999895e-02,1.000000000000000000e+00
1.340074653999999921e+00,-3.814839735199999637e+00,-7.808094548100000254e-02,-8.967489332379999567e+00,3.457413055000000107e-03,3.760923165830000123e-03,-1.052914932370000063e-02,1.000000000000000000e+00
1.344954151000000042e+00,-3.930056598440000215e+00,-8.752653609049999839e-02,-8.980264642799999919e+00,-6.755519658330000517e-03,2.112703397869999597e-03,-2.145289443430000061e-03,1.000000000000000000e+00
1.350036341000000029e+00,-3.909396672250000204e+00,-6.850569147660000302e-02,-8.970442336960001484e+00,9.794914163649999853e-03,8.777420967819998809e-03,9.298233315350000819e-03,1.000000000000000000e+00
1.355043481999999910e+00,-3.918229674790000505e+00,-1.245085236649999955e-01,-8.997559476470000206e+00,-3.562728408719999500e-03,5.982973147179999895e-03,5.833499133589999976e-03,1.000000000000000000e+00
1.359982244000000007e+00,-3.857840088019999669e+00,-1.041975387759999927e-01,-8.964693564179999186e+00,-2.098188735539999964e-03,3.176464233550000456e-03,-7.563990075139999944e-04,1.000000000000000000e+00
1.365043989999999985e+00,-3.891809869899999885e+00,-9.621856838639998577e-02,-9.009735651960001590e+00,-2.747501712289999835e-03,-1.526051945979999859e-02,3.876353846860000011e-03,1.000000000000000000e+00
1.370055098999999998e+00,-3.889722542230000357e+00,-8.421084480439999798e-02,-9.000039602850000264e+00,-5.870861466969999783e-03,1.050383085379999948e-03,3.286000108349999838e-03,1.000000000000000000e+00
1.375047042000000053e+00,-3.912127850780000138e+00,-7.803158078079999727e-02,-8.981600859840000339e+00,3.963386407119999879e-04,-4.197864327579999520e-03,3.825528314340000124e-03,1.000000000000000000e+00
1.380013710000000060e+00,-3.874370367059999598e+00,-7.825398222660000236e-02,-9.003349750310000843e+00,-2.497928217049999889e-03,-1.101495930930000049e-03,-1.003842055799999966e-02,1.000000000000000000e+00
1.385033152999999961e+00,-3.880964358500000433e+00,-8.538871121109999074e-02,-8.993257395360000572e+00,-1.273794379089999984e-02,-3.094331827010000056e-03,-8.383976295589999975e-03,1.000000000000000000e+00
1.390004825999999971e+00,-3.929057650530000334e+00,-8.506994585179999957e-02,-8.979690057779999179e+00,-7.879387587310000829e-03,8.438294753430001377e-04,-1.085906196389999946e-02,1.000000000000000000e+00
1.394977909000000071e+00,-3.925307942609999934e+00,-9.576456840810000648e-02,-8.970623538750000847e+00,-9.079949930309999528e-03,1.818926073610000046e-03,-5.560666322709999915e-03,1.000000000000000000e+00
1.399962165999999897e+00,-3.941357744659999440e+00,-7.311384742580000207e-02,-8.967043926699998835e+00,-1.698441803460000107e-02,1.115501113239999835e-02,5.062547512350000674e-03,1.000000000000000000e+00
1.405004061000000082e+00,-3.874017900360000155e+00,-9.969476573020000232e-02,-9.004553280879999733e+00,1.115106604989999847e-02,-1.156675815579999954e-02,-6.109368521720000104e-03,1.000000000000000000e+00
1.410099967999999926e+00,-3.864788884240000222e+00,-8.652527749299999960e-02,-8.990618863550000839e+00,-1.340284943579999992e-02,2.681042533369999877e-03,-1.697737909850000060e-02,1.000000000000000000e+00
1.414977307000000017e+00,-3.935637321190000204e+00,-9.706967792360000902e-02,-8.977066723540000126e+00,5.409657023849999972e-05,-3.560230601579999956e-03,2.108511747790000040e-03,1.000000000000000000e+00
1.420031998000000018e+00,-3.910435075390000126e+00,-5.657707471259999787e-02,-8.971378156510001034e+00,-1.112171541900000039e-02,-1.058840006589999855e-02,8.077220991250000023e-03,1.000000000000000000e+00
1.425022419000000040e+00,-3.921029534639999703e+00,-1.077860465210000035e-01,-8.980423632749999996e+00,-5.516272038220000964e-03,-7.784421090039999463e-03,1.718426495790000008e-02,1.000000000000000000e+00
1.430027775999999973e+00,-3.880398833570000150e+00,-5.886395267389999547e-02,-8.966205137789998503e+00,1.361688598989999966e-03,-1.044340990479999953e-02,1.115846214819999878e-03,1.000000000000000000e+00
1.435044267000000096e+00,-3.893825301369999714e+00,-9.376427970259999800e-02,-9.006949820630000048e+00,-1.564701274040000006e-02,8.601624518629998745e-03,-5.216479767109999215e-04,1.000000000000000000e+00
1.440021143999999920e+00,-3.924387028380000420e+00,-1.008267197689999978e-01,-9.006336657169999427e+00,-7.511022035029999745e-03,-6.287086755040000030e-03,3.605653764680000206e-03,1.000000000000000000e+00
1.445034876000000024e+00,-3.902866978219999616e+00,-8.051682172519999958e-02,-8.987965134169998649e+00,-6.520201917739999221e-03,4.966827109460000139e-03,6.714626215399999501e-03,1.000000000000000000e+00
1.450042052999999997e+00,-3.904437588540000448e+00,-9.117819046589999143e-02,-8.977531418439999911e+00,1.574157504359999856e-04,-3.486634232099999550e-04,1.726352237159999720e-02,1.000000000000000000e+00
1.455050348999999965e+00,-3.860383635019999815e+00,-7.709105766080000255e-02,-9.002445494950000793e+00,1.254215184600000060e-02,-5.066671408709999894e-03,1.159425592049999907e-03,1.000000000000000000e+00
1.460006142999999978e+00,-3.962975994489999820e+00,-5.893730103790000008e-02,-8.980134878939999510e+00,-3.049237653610000105e-03,-1.079560071229999918e-02,2.046572603290000222e-02,1.000000000000000000e+00
1.465045938000000048e+00,-3.847255857900000020e+00,-6.139050744289999834e-02,-8.968426320969999921e+00,-1.355256233359999896e-02,3.049159422520000069e-04,5.776523612439999310e-03,1.000000000000000000e+00
1.470058843999999976e+00,-3.913192557399999938e+00,-7.804645868949999787e-02,-8.987285335219999283e+00,-1.435687532650000006e-03,-2.319086343050000070e-04,1.970143755900000300e-03,1.000000000000000000e+00
1.475023309000000005e+00,-3.929787426109999871e+00,-8.980655505280001061e-02,-8.972810235139998980e+00,7.596493698659999814e-03,2.170636318619999835e-03,5.328939296310000392e-03,1.000000000000000000e+00
1.480093623999999997e+00,-3.880751008009999836e+00,-8.563977249590000451e-02,-9.020797144199999451e+00,5.133378319439999699e-03,-9.013969451190000440e-03,8.664347231389998502e-03,1.000000000000000000e+00
1.485000764000000029e+00,-3.915160350350000318e+00,-5.313177939719999909e-02,-8.993511077860000924e+00,-2.491822466249999854e-03,-2.712047193199999817e-03,7.278057746589999995e-03,1.000000000000000000e+00
1.490034027000000094e+00,-3.910978680749999992e+00,-7.472615059380000035e-02,-9.015940351810000308e+00,-5.050363251940000317e-04,2.292058058079999780e-02,2.333007985730000018e-03,1.000000000000000000e+00
1.495036967000000105e+00,-3.928598508590000371e+00,-8.279109593330000183e-02,-8.983810352580000824e+00,-1.154667697850000029e-02,-7.154848426579999733e-03,8.788463659579999823e-03,1.000000000000000000e+00
1.500028718999999899e+00,-3.896844649190000176e+00,-5.897514426369999258e-02,-8.981537731469998675e+00,-1.882830634709999756e-02,-4.562307614830000101e-03,-1.967877615239999826e-03,1.000000000000000000e+00
1.505038376999999983e+00,-3.928887846930000372e+00,-5.808963926659999749e-02,-9.011715427600000439e+00,-7.350981701170000021e-03,-5.637408234180000047e-03,9.679200127720000157e-03,1.000000000000000000e+00
1.510041444000000066e+00,-3.887034033800000010e+00,-7.693286229130000264e-02,-8.985641659660000613e+00,-1.511029899119999912e-03,-1.229772716759999947e-02,5.358695983890000847e-03,1.000000000000000000e+00
1.515013938999999921e+00,-3.922706527940000409e+00,-8.533477993360000236e-02,-9.002876287579999470e+00,-7.049561478199999759e-03,1.598320715129999958e-02,8.763100951909999839e-03,1.000000000000000000e+00
1.520019760999999914e+00,-3.913977278040000396e+00,-7.096563358310001290e-02,-8.996673341290000181e+00,-1.382838934660000040e-02,-1.538259908560000132e-02,1.743069151420000105e-03,1.000000000000000000e+00
1.525029611999999979e+00,-3.896928235819999475e+00,-7.313906863199999553e-02,-8.969464431839998753e+00,-3.675453830510000148e-03,1.056661829350000106e-03,-9.680106304589999877e-03,1.000000000000000000e+00
1.530033189999999932e+00,-3.953464946559999582e+00,-6.363262838039999980e-02,-8.972940583519999791e+00,-2.544573042539999795e-03,7.165432441979999699e-03,4.745960235600000902e-03,1.000000000000000000e+00
1.535036217999999897e+00,-3.943648778209999595e+00,-4.462547893169999808e-02,-8.981053747349999838e+00,2.135540358719999893e-03,-3.765826812009999934e-03,7.601354271169999920e-03,1.000000000000000000e+00
1.539987149999999971e+00,-3.859275089260000069e+00,-6.717421911059999473e-02,-8.960455780480000243e+00,1.854601129890000311e-02,-3.273038659239999645e-03,-1.441707368939999963e-02,1.000000000000000000e+00
1.544995048000000093e+00,-3.957260831710000204e+00,-5.900151168079999925e-02,-8.985080518649999348e+00,2.368865534659999814e-03,-8.001237874850000839e-04,5.015262402590000765e-03,1.000000000000000000e+00
1.550074723999999904e+00,-3.880904445000000091e+00,-7.331681351879999753e-02,-8.974159311659999361e+00,-8.651100099090000203e-03,5.764991510660000089e-03,4.935505799950000091e-03,1.000000000000000000e+00
1.554973616999999919e+00,-3.929924496499999975e+00,-8.513759512739998980e-02,-8.983547317730000259e+00,-6.976862787270000183e-04,-8.644415065650000105e-03,7.777431048449999669e-03,1.000000000000000000e+00
1.560033275999999969e+00,-3.912005101190000111e+00,-6.619009887749999210e-02,-8.987655922089999194e+00,-1.440939307210000082e-02,-2.309386990959999553e-02,8.347064256670000751e-03,1.000000000000000000e+00
1.565043251000000080e+00,-3.925130540219999631e+00,-5.648872057569999383e-02,-8.982963964889998820e+00,-1.352523826060000184e-02,1.105028390879999808e-02,-5.050267092880000343e-03,1.000000000000000000e+00
1.570029617000000099e+00,-3.902032280969999434e+00,-7.442239557400000260e-02,-8.972399316249999757e+00,-2.532572252680000049e-04,1.146213617179999935e-04,-4.125385079530000283e-03,1.000000000000000000e+00
1.575019210000000003e+00,-3.935359381030000492e+00,-7.684453555380001133e-02,-8.988312924700000650e+00,2.526600845159999650e-03,-1.445522531870000078e-02,3.287727013230000157e-04,1.000000000000000000e+00
1.580033016000000012e+00,-3.926298122690000003e+00,-9.505670326649999502e-02,-9.032239744710000906e+00,-2.405262785030000232e-03,9.675377979870000006e-03,-1.268893945959999889e-03,1.000000000000000000e+00
1.585055196999999971e+00,-3.941661988299999919e+00,-8.161093710489999986e-02,-8.988345657920000065e+00,-1.247415132820000119e-02,-8.400334045289999801e-03,7.580058649180000316e-03,1.000000000000000000e+00
1.590005679999999977e+00,-3.857010066930000036e+00,-7.357590284639999034e-02,-9.000645752049999615e+00,-1.089597772809999983e-02,-6.840780377390000624e-03,-4.515170585360000154e-04,1.000000000000000000e+00
1.595025912000000101e+00,-3.909910174730000687e+00,-7.582148068300000043e-02,-8.999615239960000679e+00,1.595673337579999948e-02,-7.382357027379999291e-03,7.796690333630000580e-04,1.000000000000000000e+00
1.599959195999999917e+00,-3.903965879380000281e+00,-7.092439739039999025e-02,-8.982987345760001574e+00,1.309840288010000013e-02,-6.456286646430000123e-03,-3.460603766140000538e-04,1.000000000000000000e+00
1.604874039999999891e+00,-3.904589564230000587e+00,-8.157657817760001484e-02,-8.976941051329999866e+00,-2.271242439750000008e-03,-5.871459376069999674e-03,-1.232663402329999989e-03,1.000000000000000000e+00
1.609905866999999935e+00,-3.912668533530000659e+00,-9.135238712220000723e-02,-9.010057723519999229e+00,1.157992146910000186e-02,2.529506105929999957e-03,-1.787341199819999973e-03,1.000000000000000000e+00
1.614888080000000059e+00,-3.918981369940000015e+00,-9.614175855689999217e-02,-9.005808249380001129e+00,3.398464061320000205e-03,-8.058609440919999728e-03,1.060436479749999987e-02,1.000000000000000000e+00
1.620013351000000101e+00,-3.888800166690000282e+00,-8.419033173939999282e-02,-9.013255642769999909e+00,-5.910144187510000570e-03,3.375971689820000347e-03,-9.667511098089999824e-03,1.000000000000000000e+00
1.625027825000000092e+00,-3.910156842969999769e+00,-9.485059536830001137e-02,-8.992784517149999601e+00,8.495886810119999966e-03,4.512702114879999990e-03,-1.974597107619999908e-04,1.000000000000000000e+00
1.630025763999999988e+00,-3.931155499599999992e+00,-6.030105910519999168e-02,-8.992595716580000342e+00,4.775279667229999012e-03,-1.676462590690000129e-02,1.233399193729999878e-02,1.000000000000000000e+00
1.635023950999999975e+00,-3.900628843909999866e+00,-8.033814069010000725e-02,-8.975462210950000852e+00,5.626234691589999601e-03,-2.239529741929999727e-03,4.278482869269999850e-03,1.000000000000000000e+00
1.640075026999999963e+00,-3.900142229430000107e+00,-9.808830778110001758e-02,-8.967959287979999417e+00,-7.932135835290000242e-03,1.366276107729999870e-02,-7.820297032590000502e-03,1.000000000000000000e+00
1.644999493000000035e+00,-3.934227162130000455e+00,-6.970887955419999282e-02,-8.986140256830001505e+00,-2.850295510139999773e-03,5.471253301949999433e-03,-1.113181933759999857e-03,1.000000000000000000e+00
1.650052053000000019e+00,-3.904583426749999919e+00,-7.944690920510000254e-02,-9.004482553729999950e+00,-1.340758055450000027e-02,1.085635274650000037e-02,-4.758096765730000419e-04,1.000000000000000000e+00
1.654917326999999938e+00,-3.929189752480000131e+00,-8.036795130649999896e-02,-8.977918371930000419e+00,-1.216343324629999903e-02,8.275553584099998999e-03,7.247379980979999463e-03,1.000000000000000000e+00
1.659988841000000104e+00,-3.908059578430000514e+00,-7.174128043100000407e-02,-8.950058305109999779e+00,-4.723907914009999910e-03,5.591062363239999436e-04,-4.233814310280000284e-03,1.000000000000000000e+00
1.665127996000000055e+00,-3.874893806409999808e+00,-6.513055705430000064e-02,-8.987537264149999316e+00,-8.728073909879998857e-03,1.209076307710000089e-02,-3.950733691450000230e-03,1.000000000000000000e+00
1.670059627999999963e+00,-3.915186069309999795e+00,-4.217027236589999950e-02,-8.961545329279999805e+00,1.545453350990000016e-02,1.328818313779999913e-02,-2.417918993159999790e-03,1.000000000000000000e+00
1.675013040000000064e+00,-3.917174905039999988e+00,-7.447758266020000628e-02,-8.983962328269999631e+00,-1.192232500759999973e-02,-5.354362074290000030e-04,-1.711517106739999833e-04,1.000000000000000000e+00
1.680004425999999995e+00,-3.901509426130000513e+00,-7.463121145249999866e-02,-8.996274112839998338e+00,-7.404067437160000110e-04,-1.447616517539999925e-02,7.808681111779999578e-04,1.000000000000000000e+00
1.685048321000000016e+00,-3.908101371749999942e+00,-1.187788757049999949e-01,-9.011512598499999527e+00,-7.583722472189999980e-03,6.555733736600000833e-03,5.928895436229999170e-03,1.000000000000000000e+00
1.689941726000000033e+00,-3.859361890759999802e+00,-9.023896425389998921e-02,-9.006187019560000451e+00,-1.088039670140000109e-02,7.580705452709999778e-03,-6.210788153109999578e-03,1.000000000000000000e+00
1.695005061999999896e+00,-3.935467809840000442e+00,-7.930360087739998787e-02,-8.988906214419998264e+00,2.788741374390000301e-03,1.399686932560000041e-02,8.978683501479999343e-03,1.000000000000000000e+00
1.700004703000000061e+00,-3.896205182250000121e+00,-6.840838684830000127e-02,-8.970817015499999769e+00,-7.174170576040000101e-03,-7.897479459640000324e-03,-6.174012087289999654e-04,1.000000000000000000e+00
1.705058058999999959e+00,-3.890172624080000308e+00,-6.367527564550000407e-02,-8.963236935630000346e+00,4.605497233570000210e-03,-5.408035591239999940e-03,-4.291478544469999731e-04,1.000000000000000000e+00
1.710044391999999913e+00,-3.922434725259999588e+00,-8.742465575180000115e-02,-8.976146686089998994e+00,-3.429210279139999554e-03,-1.150318421420000112e-02,-5.356302019210000195e-03,1.000000000000000000e+00
1.714997662000000034e+00,-3.938066886419999690e+00,-8.743384370519999282e-02,-8.971759264780001075e+00,-9.573277086019999979e-03,-5.894571077079999860e-03,4.403281956909999365e-03,1.000000000000000000e+00
1.719982804000000032e+00,-3.926242593110000012e+00,-4.332173938939999636e-02,-8.960133708919999052e+00,-5.363544914869999240e-04,-2.921302802860000023e-03,7.903648540380000392e-03,1.000000000000000000e+00
1.725154054999999964e+00,-3.899096227509999846e+00,-7.344417992530000161e-02,-9.002986762220000827e+00,-7.329337298869999066e-03,-1.769571378830000000e-02,-3.040246665479999695e-04,1.000000000000000000e+00
1.730038514000000083e+00,-3.946578109659999445e+00,-8.275225262710000917e-02,-8.987972148439999032e+00,4.619036335500000152e-03,1.888480968770000004e-02,4.662520252170000018e-03,1.000000000000000000e+00
1.734946776999999996e+00,-3.908192557159999581e+00,-6.035493558379999984e-02,-9.000805911049999608e+00,1.068704482169999942e-02,2.076260186730000123e-02,3.036237554619999890e-03,1.000000000000000000e+00
1.740004357999999973e+00,-3.882574131780000215e+00,-3.612746908730000289e-02,-8.943029429380001005e+00,1.116717467079999821e-03,-5.583197809760000185e-03,-2.834455808620000000e-03,1.000000000000000000e+00
1.745044094000000046e+00,-3.925573900069999844e+00,-7.685389703719999743e-02,-8.986155454400000409e+00,9.130434133110000225e-03,1.740563474600000105e-02,6.247924175110000471e-04,1.000000000000000000e+00
1.750055354999999979e+00,-3.887982712819999520e+00,-8.293573770160000969e-02,-8.993824966120000042e+00,-2.082263119519999796e-03,-5.038529634479999714e-03,-5.385380703960000910e-03,1.000000000000000000e+00
1.755062402000000077e+00,-3.932847982729999803e+00,-9.942093549110000983e-02,-8.979069295529999550e+00,-1.024451456030000011e-03,8.234772831200000767e-03,5.875148810449998954e-03,1.000000000000000000e+00
1.759927000000000019e+00,-3.924849385189999929e+00,-7.323323145519999855e-02,-8.983553162949998949e+00,4.293453413989999426e-03,-4.720212891699999969e-03,4.725241102279999390e-03,1.000000000000000000e+00
1.764960332000000021e+00,-3.909440511399999707e+00,-7.435721681670000305e-02,-8.968560176480000479e+00,-1.796000171449999884e-03,7.124448660760000773e-03,4.882086999710000437e-03,1.000000000000000000e+00
1.770027165999999985e+00,-3.905119433329999890e+00,-8.990760427449999426e-02,-8.984722206729999883e+00,-5.046796519310000478e-03,-8.925545960659999473e-03,-4.635835532100000822e-03,1.000000000000000000e+00
1.775094769000000072e+00,-3.923208339980000403e+00,-5.791437859780000641e-02,-9.002582273069998919e+00,3.321524709460000040e-03,-4.645398352300000172e-03,-9.573516435920000414e-03,1.000000000000000000e+00
1.780003274000000024e+00,-3.944289998719999968e+00,-7.211960309090000021e-02,-8.986365882280001216e+00,1.105393189940000014e-02,2.215391956269999966e-03,6.514860317110000507e-03,1.000000000000000000e+00
1.785009261999999985e+00,-3.917069398839999828e+00,-7.908921834120000161e-02,-8.970560410389998296e+00,4.592447075989999385e-03,1.909049693499999950e-03,4.418919794260000103e-03,1.000000000000000000e+00
1.790037504000000057e+00,-3.898962956519999690e+00,-6.389990558109999441e-02,-9.005061230399999062e+00,6.889109965409999370e-03,8.024046197529999258e-03,-1.049208827320000093e-02,1.000000000000000000e+00
1.794938353000000042e+00,-3.919370661519999466e+00,-7.934831680199999626e-02,-8.992589286839999474e+00,-4.053360782560000083e-03,9.241512045260000946e-03,-1.687454059720000120e-03,1.000000000000000000e+00
1.799985355000000009e+00,-3.938792862609999723e+00,-7.325502316189999585e-02,-8.982604483919999439e+00,-1.168826036160000061e-02,3.764796536419999940e-03,8.543548174199999679e-03,1.000000000000000000e+00
1.805010495999999964e+00,-3.868158945199999810e+00,-8.423855479530001356e-02,-8.998021833290000160e+00,1.229504588990000015e-02,-1.121772453189999984e-02,3.390246303749999950e-03,1.000000000000000000e+00
1.809959521999999987e+00,-3.900676482440000203e+00,-8.645782001360001467e-02,-8.984534575199999651e+00,-1.481760572639999850e-02,3.272250760350000178e-04,8.717023767530000453e-03,1.000000000000000000e+00
1.814960093999999913e+00,-3.862359611269999604e+00,-5.903382478149999529e-02,-8.978640840989999816e+00,1.136024598960000105e-03,-5.270885769279999404e-03,-7.698965258899998984e-03,1.000000000000000000e+00
1.819900148999999967e+00,-3.920857685209999666e+00,-7.336392689649999521e-02,-8.995690175469999161e+00,-1.853156089780000002e-02,-1.333406567570000201e-02,-7.240514270960000942e-03,1.000000000000000000e+00
1.825015585999999912e+00,-3.922859380419999820e+00,-1.224109759970000016e-01,-9.020888329610000866e+00,1.466464344410000134e-02,-1.222796738150000104e-02,2.948039909820000110e-03,1.000000000000000000e+00
1.829988723999999900e+00,-3.925634982609999657e+00,-7.598211917139999216e-02,-9.025352323279999922e+00,-4.227996803819999636e-03,4.030229058119999888e-03,3.337250789630000214e-03,1.000000000000000000e+00
1.835061317999999941e+00,-3.908190803590000151e+00,-4.814542408570000182e-02,-8.976204553749999704e+00,1.248141750689999926e-02,-1.149680931119999826e-03,-1.279952935870000245e-02,1.000000000000000000e+00
1.839999517999999945e+00,-3.930326939820000032e+00,-9.485400203490000626e-02,-9.000610680739999481e+00,1.096908561890000064e-02,-9.346256265419999399e-04,-2.207962796090000290e-03,1.000000000000000000e+00
1.845011366000000042e+00,-3.904029884519999438e+00,-4.227347701209999836e-02,-8.964559124139999113e+00,-2.703221980479999717e-03,1.958636567000000047e-03,4.610256291930000215e-03,1.000000000000000000e+00
1.850031127999999914e+00,-3.914865459049999608e+00,-8.182093572689999594e-02,-9.004429362239999790e+00,-9.594683535400000060e-03,-1.659406721589999981e-02,9.862889535729999976e-03,1.000000000000000000e+00
1.855035283000000090e+00,-3.847472715519999920e+00,-5.452650799150000199e-02,-9.005092794590000338e+00,-4.765483550729999844e-03,-4.962928593159999548e-03,-1.109302975240000072e-02,1.000000000000000000e+00
1.860011011000000103e+00,-3.918446240149999760e+00,-9.026303011600000925e-02,-9.011941637570000552e+00,1.215126551689999813e-02,-2.862377092240000077e-03,3.223428735510000098e-03,1.000000000000000000e+00
1.865020340000000054e+00,-3.938113063649999912e+00,-5.756704473119999416e-02,-8.960938595560001829e+00,-9.754502214489998643e-03,1.586800068619999976e-02,7.778155617420000681e-03,1.000000000000000000e+00
1.869963698000000063e+00,-3.890101604669999436e+00,-8.504377936410000005e-02,-8.969460924710000782e+00,-2.681981772180000011e-03,-3.294577822090000163e-03,-5.675186868760000169e-03,1.000000000000000000e+00
1.875021539000000015e+00,-3.918605230099999837e+00,-7.715313571210000165e-02,-9.011832331969999998e+00,2.065396402029999728e-03,-6.736018694939999510e-03,5.170382559300000687e-03,1.000000000000000000e+00
1.879976085000000019e+00,-3.911400413289999989e+00,-4.944024966919999264e-02,-8.972540186030000697e+00,-1.368044875560000054e-03,-1.173121854660000112e-04,1.018621400000000073e-02,1.000000000000000000e+00
1.885005792999999930e+00,-3.893729439780000412e+00,-5.660933758090000434e-02,-8.978310001599998813e+00,-1.360156387089999849e-02,5.244408268479999399e-03,3.684431081639999613e-03,1.000000000000000000e+00
1.889987670000000008e+00,-3.902996449819999825e+00,-1.175379631330000091e-01,-9.010015637939998712e+00,1.522393990309999987e-02,3.821556922050000412e-03,7.520106155430000393e-04,1.000000000000000000e+00
1.895042805999999969e+00,-3.884279766650000187e+00,-6.270491450969999103e-02,-8.990541122139999786e+00,-4.136683419349999544e-03,2.144585829230000271e-03,-4.534889943899999241e-03,1.000000000000000000e+00
1.900011171999999915e+00,-3.945429231880000387e+00,-8.185759620919999535e-02,-9.013622722519999186e+00,-1.643342897299999994e-02,-1.064942032099999887e-02,1.018663030120000104e-02,1.000000000000000000e+00
1.905058976999999931e+00,-3.876493058299999905e+00,-8.637756698480000828e-02,-8.977237988449999762e+00,-3.253291361030000335e-03,1.377618871630000106e-03,7.536259945480000078e-04,1.000000000000000000e+00
1.910030638999999919e+00,-3.892091317190000233e+00,-8.527305807530000115e-02,-8.993492373160000497e+00,-9.417004184799998795e-05,-1.458244957029999900e-02,-8.669974282379998287e-03,1.000000000000000000e+00
1.915044503999999925e+00,-3.913769772769999378e+00,-7.578386121949999554e-02,-8.987071400199999616e+00,-4.350018221880000251e-03,-3.355830907820000347e-03,4.636706784369999494e-03,1.000000000000000000e+00
1.920013108000000024e+00,-3.921196123380000564e+00,-7.442139092699999459e-02,-8.982420359529999843e+00,2.177093876530000228e-03,1.061924174429999812e-02,2.837030915539999650e-03,1.000000000000000000e+00
1.925017377999999946e+00,-3.899484057790000513e+00,-7.212764483350000977e-02,-8.985312573839999928e+00,-1.001944858579999903e-02,-3.613091539589999334e-04,-1.478453399609999837e-03,1.000000000000000000e+00
1.930020891999999932e+00,-3.885573021330000376e+00,-7.470461004879999645e-02,-8.996832331240000258e+00,5.401319358500000431e-03,4.893401637670000484e-03,1.107433112339999831e-03,1.000000000000000000e+00
1.934995610000000088e+00,-3.886231192980000415e+00,-6.850011111919999951e-02,-8.975972498560000901e+00,-1.389249879869999989e-02,-6.043639499689999403e-03,-6.871663499619999962e-03,1.000000000000000000e+00
1.939997465000000032e+00,-3.925641412350000081e+00,-6.773495826589999436e-02,-9.026009910410000003e+00,6.816292181609999445e-03,5.502885673199999980e-03,3.959020599719999950e-03,1.000000000000000000e+00
1.944986826000000057e+00,-3.909193258640000224e+00,-4.958010566439999961e-02,-8.989204320580000740e+00,-5.470705218610000080e-03,-5.572545342150000101e-04,7.214479148390001012e-03,1.000000000000000000e+00
1.950034575000000103e+00,-3.869816064750000173e+00,-4.706965721350000326e-02,-8.975961977169999884e+00,8.816486224530001260e-04,4.958775825800000115e-04,-1.200752239670000061e-02,1.000000000000000000e+00
1.954979497999999927e+00,-3.923518428850000017e+00,-7.433770839860000257e-02,-8.971755173130000927e+00,8.218102157120000736e-03,1.552990265189999920e-02,-1.138569880279999974e-02,1.000000000000000000e+00
1.959999999000000104e+00,-3.937481780009999710e+00,-8.383615713999999219e-02,-8.960416617510000847e+00,-1.569360028950000062e-03,6.010025274010000022e-03,7.882307283579999616e-03,1.000000000000000000e+00
1.965043768999999996e+00,-3.879468566979999977e+00,-5.787317437120000074e-02,-8.979982318730000301e+00,-8.857212029399999520e-03,8.408708497880000229e-03,2.637516008690000014e-03,1.000000000000000000e+00
1.970000881999999898e+00,-3.898253639210000010e+00,-7.588816184419999722e-02,-9.004579584369999168e+00,-1.741837477309999887e-03,8.398858830330001302e-03,1.297348877419999972e-03,1.000000000000000000e+00
1.975069935000000054e+00,-3.904951675540000000e+00,-6.378068138190000347e-02,-8.990782529680000579e+00,1.150960661470000132e-02,-3.402505768459999740e-03,-9.930168278520000100e-03,1.000000000000000000e+00
1.979987111000000022e+00,-3.935430108180000275e+00,-3.860006289609999724e-02,-8.959326484189999107e+00,5.789144430310000713e-03,5.354432854799999995e-03,4.395231604580000090e-03,1.000000000000000000e+00
1.984996670999999990e+00,-3.866507086339999955e+00,-8.274543016070000367e-02,-8.972319236749999760e+00,5.498214159160000249e-04,-2.628860063850000164e-03,-1.314213778820000171e-02,1.000000000000000000e+00
1.990021115000000007e+00,-3.938485988620000100e+00,-5.418027467000000041e-02,-8.973485942439999974e+00,9.427499957379998838e-03,-1.258224807679999939e-02,1.982294255869999564e-03,1.000000000000000000e+00
1.995020637999999957e+00,-3.921346637769999699e+00,-1.045725095680000022e-01,-9.026605538210001001e+00,-1.075324416160000109e-02,-2.159917028619999946e-03,4.828232340510000414e-03,1.000000000000000000e+00
1.999999902999999968e+00,-3.863689106309999843e+00,-7.443406317890000068e-02,-8.968030599649999601e+00,2.371874870729999765e-03,9.511051699520000485e-03,-6.750491447750000228e-03,1.000000000000000000e+00
2.005064092000000020e+00,-3.908429873050000225e+00,-5.064564340359999778e-02,-8.965966652860000607e+00,5.112725310030000192e-03,3.679439891129999713e-03,7.121074013409999480e-03,1.000000000000000000e+00
2.010017556999999844e+00,-3.878585062139999984e+00,-6.630492089619999252e-02,-8.995214374650000622e+00,8.875426836309999179e-03,-4.944520071149999946e-03,-2.325811889020000089e-03,1.000000000000000000e+00
2.015069658999999902e+00,-3.922102716830000446e+00,-4.009660333049999692e-02,-8.992855828819999786e+00,1.556770969179999999e-02,1.480750367050000064e-02,7.587568834420000373e-03,1.000000000000000000e+00
2.020031073999999816e+00,-3.854557997609999731e+00,-6.620980822499999974e-02,-8.977776333110000451e+00,-2.227833028880000198e-03,1.298044063150000094e-02,-6.152475252749999880e-03,1.000000000000000000e+00
2.025046738999999985e+00,-3.912777254599999921e+00,-8.287152249210001653e-02,-8.988879326410000203e+00,6.812297506259998260e-04,5.989193450659999196e-04,-2.563665388150000116e-03,1.000000000000000000e+00
2.030041570999999934e+00,-3.910188407149999712e+00,-6.738418120000000400e-02,-8.985454028139999494e+00,-3.845689585429999842e-03,1.089294068519999943e-02,4.482988733800000181e-04,1.000000000000000000e+00
2.035072812000000120e+00,-3.918233474180000453e+00,-7.451079537660000585e-02,-8.994243483789999161e+00,3.294809721409999660e-04,2.693013288080000137e-03,-4.710543900729999463e-03,1.000000000000000000e+00
2.039960178999999929e+00,-3.933725642350000218e+00,-1.055325319729999989e-01,-9.002565906460000988e+00,-1.144830137489999920e-02,-1.124606467779999848e-02,1.423308858650000142e-03,1.000000000000000000e+00
2.045005578000000046e+00,-3.919341143160000041e+00,-9.689446748710001112e-02,-8.954561461739999118e+00,8.727146312590000621e-03,-1.216820627449999997e-02,1.500401366499999958e-02,1.000000000000000000e+00
2.050045542999999970e+00,-3.855286019619999394e+00,-9.949087718849999873e-02,-8.985172873110000680e+00,5.061509087680000039e-03,-1.670630835000000078e-02,-1.085016690190000049e-02,1.000000000000000000e+00
2.055033986999999840e+00,-3.943639133590000068e+00,-9.000850736569998567e-02,-8.989947247899999994e+00,-4.422475583850000828e-03,4.329005721959999949e-03,7.194248028100000067e-03,1.000000000000000000e+00
2.059919226999999964e+00,-3.913996567259999892e+00,-1.016837567229999933e-01,-8.968141074280000069e+00,-2.837184816599999833e-03,-1.031445153060000022e-02,5.789605900649999644e-03,1.000000000000000000e+00
2.065051122999999933e+00,-3.890748962669999589e+00,-6.491039779790000463e-02,-8.976948650119998874e+00,1.480878237629999934e-02,1.032961346210000027e-02,-4.126522224399999973e-03,1.000000000000000000e+00
2.069993515000000173e+00,-3.898600260689999875e+00,-6.512362955659999064e-02,-8.998627982489999511e+00,-1.597442105410000132e-02,-1.122540049249999908e-02,-6.412667222319999583e-03,1.000000000000000000e+00
2.075018469999999837e+00,-3.913623350039999949e+00,-1.162248438410000001e-01,-8.995710049210000392e+00,5.269733257590000081e-03,4.638975486159999453e-03,-3.896214067940000254e-03,1.000000000000000000e+00
2.079923668999999808e+00,-3.905794263849999837e+00,-6.735665843880001002e-02,-8.985244769299999490e+00,-2.432255540040000052e-03,-1.793978922070000107e-02,-6.783741991970000315e-03,1.000000000000000000e+00
2.085018821999999883e+00,-3.909570859780000518e+00,-6.642643751719999601e-02,-9.011739977510000443e+00,7.376004010439999800e-03,1.309995912020000229e-02,-3.504859749230000449e-03,1.000000000000000000e+00
2.089925594999999969e+00,-3.926860725010000053e+00,-8.807698218070000862e-02,-9.040168199620000067e+00,-1.735017169270000083e-03,-6.076733116059998812e-04,7.759750820700000301e-03,1.000000000000000000e+00
2.095003564999999845e+00,-3.918190804080000422e+00,-6.856085572999999489e-02,-8.986463497439999060e+00,-5.779904313390000441e-06,-1.601675711570000118e-02,1.179173681889999874e-02,1.000000000000000000e+00
2.099983674999999828e+00,-3.943264455060000007e+00,-8.648982258710000148e-02,-9.011521950849999740e+00,5.341058131310000290e-03,6.310071330520000688e-03,1.012300979350000060e-02,1.000000000000000000e+00
2.105106398000000212e+00,-3.810367265959999639e+00,-6.640470974249999825e-02,-8.994859569860000903e+00,4.551551304760000256e-03,-5.033523775639999961e-03,-1.946329697969999967e-02,1.000000000000000000e+00
2.110037587999999964e+00,-3.971930577580000232e+00,-6.855969581930000667e-02,-8.989797610300000130e+00,-4.591183736920000265e-03,-2.216997742649999895e-02,7.694168016309999719e-03,1.000000000000000000e+00
2.115052085999999942e+00,-3.851449217940000391e+00,-3.538987096119999842e-02,-8.984361556719999697e+00,-2.697861520570000483e-03,-8.815303444860001078e-04,-6.772910710419999779e-04,1.000000000000000000e+00
2.119994660000000142e+00,-3.893839329900000035e+00,-4.724847524590000680e-02,-8.999608810219999810e+00,-7.161944638939998949e-03,-1.011478435249999960e-02,-1.134571991859999879e-02,1.000000000000000000e+00
2.125015372000000013e+00,-3.889948752200000470e+00,-9.622334502620000229e-02,-9.007543694869999840e+00,-4.117035306990000053e-03,1.379219256339999852e-02,-4.280193708840000430e-03,1.000000000000000000e+00
2.130014365000000076e+00,-3.908857450809999801e+00,-6.857117619460000035e-02,-8.987656506619998709e+00,4.633296746760000480e-03,-5.103930365290000083e-03,-5.010679364199999673e-03,1.000000000000000000e+00
2.135019289999999792e+00,-3.915768545369999298e+00,-7.100253152739999241e-02,-8.990268150419998605e+00,4.802232142539999797e-03,-1.744201034309999718e-02,2.029734430829999766e-03,1.000000000000000000e+00
2.139908880000000124e+00,-3.891490136419999413e+00,-1.151960487829999935e-01,-9.010313159580000786e+00,4.111377056690000719e-04,9.787270799280000516e-03,-1.870166626760000166e-03,1.000000000000000000e+00
2.145018815999999884e+00,-3.886174494360000065e+00,-3.989025797019999514e-02,-8.968999736939998968e+00,1.255359128120000015e-02,2.788499929010000277e-03,-1.024257857349999967e-02,1.000000000000000000e+00
2.149918834999999806e+00,-3.944751771009999963e+00,-6.364657927399999804e-02,-8.970818184540000573e+00,-3.757577855139999836e-03,-1.188836526130000217e-03,4.342366941270000592e-03,1.000000000000000000e+00
2.154968472999999829e+00,-3.894189750769999403e+00,-8.060183312760001162e-02,-8.997526158719999501e+00,1.780942082409999946e-02,-9.387424215669999336e-03,3.340643132109999934e-03,1.000000000000000000e+00
2.159819038999999830e+00,-3.921603827400000242e+00,-6.749536365659999926e-02,-9.000786621819999667e+00,1.081675477329999829e-02,-2.623371314260000177e-03,9.100102819499999648e-03,1.000000000000000000e+00
2.164925660000000196e+00,-3.891869491130000469e+00,-5.544752725999999715e-02,-8.982985592200000369e+00,4.180641379209999904e-03,7.829001173379999956e-03,-1.764772459859999861e-04,1.000000000000000000e+00
2.169835916999999892e+00,-3.871961844609999481e+00,-7.314732043710001075e-02,-8.957270136180000009e+00,-1.700061256999999947e-03,-1.347216079010000187e-03,-8.122347295280000351e-03,1.000000000000000000e+00
2.175035685000000107e+00,-3.927589916070000076e+00,-8.987207630339998088e-02,-8.976652297519999379e+00,-1.958501525219999840e-05,8.621221408249999871e-03,-1.291115069760000091e-03,1.000000000000000000e+00
2.179943531999999795e+00,-3.912730492850000186e+00,-8.277751493250000425e-02,-8.981478694759999826e+00,2.180847106499999872e-03,-4.326101392509999928e-03,-1.985051203520000161e-03,1.000000000000000000e+00
2.184995681000000189e+00,-3.936770416869999956e+00,-8.421903724400001123e-02,-9.005674393869998795e+00,-1.230956986549999960e-03,-2.756631234659999603e-03,1.563378423450000054e-02,1.000000000000000000e+00
2.189917789999999975e+00,-3.883907133949999757e+00,-7.432857067749999713e-02,-8.962771071680000645e+00,-8.792310953139998581e-03,-7.534512784329999539e-03,5.830883048470000829e-03,1.000000000000000000e+00
2.194998143999999929e+00,-3.906189400640000198e+00,-3.495536798450000343e-02,-8.942055031389999797e+00,6.839068140829999802e-03,1.186042465270000131e-02,1.567530632020000189e-02,1.000000000000000000e+00
2.199945531000000010e+00,-3.861348096140000408e+00,-9.475656040930001411e-02,-8.989840864919999674e+00,7.808121852579999987e-03,6.685847882180000028e-03,-9.495876729489999973e-03,1.000000000000000000e+00
2.205015227000000078e+00,-3.929224531530000508e+00,-6.602404442850000332e-02,-8.969677197810000280e+00,-7.494167890399999754e-03,-4.405392799529999660e-03,-1.625607488679999945e-03,1.000000000000000000e+00
2.209942743000000043e+00,-3.885519829840000217e+00,-5.785369335249999218e-02,-8.978719751439999897e+00,3.295846283440000048e-03,-2.791461069140000004e-03,-5.003643222149999244e-03,1.000000000000000000e+00
2.215021298999999999e+00,-3.899596285990000410e+00,-8.891206303159999991e-02,-9.000691929280000281e+00,5.370355211199999597e-05,6.990809924900000510e-04,-9.421534836290001297e-03,1.000000000000000000e+00
2.220038746999999812e+00,-3.916615809850000129e+00,-5.540626366780000700e-02,-8.978214724529999913e+00,-5.822742823510000318e-03,-3.975971601900000346e-03,-6.074594333770000354e-03,1.000000000000000000e+00
2.225088044000000043e+00,-3.920599618790000296e+00,-9.935671114849999042e-02,-8.978580635229999274e+00,8.826967328790001968e-03,-1.116484962400000024e-02,-9.599411860110000985e-03,1.000000000000000000e+00
2.229986420999999996e+00,-3.935633521790000255e+00,-7.890235399960000839e-02,-8.947966301260001032e+00,1.474483124910000095e-02,1.079731807109999935e-02,-9.752663318069999766e-04,1.000000000000000000e+00
2.234978643999999903e+00,-3.886023687709999841e+00,-6.728216386389999915e-02,-8.970191577070000477e+00,-1.932016923089999996e-03,7.360275369140000142e-03,-5.991672165689999018e-03,1.000000000000000000e+00
2.239881088999999825e+00,-3.901489552390000171e+00,-4.944714520079999953e-02,-8.970363426509999627e+00,-4.087475128469999532e-03,-5.127418786290000030e-03,-2.366380300370000099e-03,1.000000000000000000e+00
2.245007057000000028e+00,-3.910643457439999970e+00,-7.570015129169999080e-02,-8.985320172619999823e+00,-2.083980012690000126e-03,7.886504754419999472e-03,-4.110471345480000167e-04,1.000000000000000000e+00
2.249981041999999931e+00,-3.889844999569999739e+00,-5.187961021189999716e-02,-8.983013064719999718e+00,1.047293096779999821e-02,1.721378415820000105e-02,-1.068799477069999962e-02,1.000000000000000000e+00
2.254972226000000024e+00,-3.960145739499999706e+00,-1.234730157379999999e-01,-9.012111148909999869e+00,-2.533328719440000251e-03,2.590768039230000128e-03,1.119590084999999915e-02,1.000000000000000000e+00
2.259885243999999904e+00,-3.888718333619999967e+00,-7.093259896310000201e-02,-8.984164572850000141e+00,4.070179536940000432e-03,-7.071950938549999462e-03,2.013145713140000216e-03,1.000000000000000000e+00
2.264941890999999874e+00,-3.837423322930000325e+00,-8.558838023530000727e-02,-9.012605654430000612e+00,1.423545554279999868e-02,-1.272901194170000068e-03,-1.396189816300000101e-02,1.000000000000000000e+00
2.269887553999999863e+00,-3.934482890449999992e+00,-8.747281487560000512e-02,-8.978741378749999669e+00,-9.013487957419999766e-03,1.011688075960000092e-02,-9.090198203919999664e-03,1.000000000000000000e+00
2.274934750999999977e+00,-3.939097398509999959e+00,-7.612889809780000461e-02,-9.030925739500000660e+00,1.208225730810000027e-03,-4.240007139739999584e-03,1.218563597649999913e-02,1.000000000000000000e+00
2.279849431000000148e+00,-3.867181040080000187e+00,-8.493373398520000228e-02,-8.955252366619999904e+00,1.446472387760000013e-02,-3.622348885980000472e-04,-1.110242493449999958e-02,1.000000000000000000e+00
2.284980873999999940e+00,-3.949657370969999359e+00,-7.100936312689999641e-02,-9.001462913650000175e+00,-9.526746347549998328e-03,-2.300838939849999838e-03,3.890397492799999566e-04,1.000000000000000000e+00
2.289893664000000051e+00,-3.889657075780000195e+00,-9.028250200149999516e-02,-9.017661184260001406e+00,4.748830106109999801e-04,-8.265813812609998715e-03,-4.251442849640000091e-03,1.000000000000000000e+00
2.295048593000000192e+00,-3.927969270780000244e+00,-6.375090729809999857e-02,-8.979412409880000112e+00,1.893465965990000222e-02,-1.284779864360000023e-03,6.034443154929999831e-03,1.000000000000000000e+00
2.299852542000000000e+00,-3.881085939049999656e+00,-9.238581268999999929e-02,-8.986576310160000247e+00,5.862549412999999536e-03,1.323434058579999861e-03,-3.888445673510000297e-03,1.000000000000000000e+00
2.304915591999999958e+00,-3.907835706549999788e+00,-6.505352802899999620e-02,-8.990294453900000704e+00,-1.298804488029999850e-02,2.673693932590000440e-03,-1.173500902949999990e-03,1.000000000000000000e+00
2.309956929999999797e+00,-3.934278307790000540e+00,-7.560710727989999880e-02,-8.976812456519999373e+00,1.397522445770000080e-02,-8.104995358740000200e-04,1.007699221370000030e-02,1.000000000000000000e+00
2.314956683000000126e+00,-3.853113059500000048e+00,-4.724720117089999810e-02,-8.987341449319998787e+00,-3.132379206360000074e-04,8.841373492030000754e-04,-6.416789721699999241e-03,1.000000000000000000e+00
2.319983283000000007e+00,-3.905027371130000535e+00,-8.059475493279999458e-02,-9.001929362120000278e+00,-9.018454700709999106e-03,-8.593532256780000989e-03,-8.327140472829999349e-03,1.000000000000000000e+00
2.325041095000000002e+00,-3.933828518199999902e+00,-9.362441457419999613e-02,-8.990285101550000491e+00,-8.333299309020001169e-03,1.303313113750000085e-02,1.106768567120000081e-02,1.000000000000000000e+00
2.330036644999999851e+00,-3.891727744569999370e+00,-9.363356599510000433e-02,-8.999269202999998996e+00,-7.320246659220000507e-03,-5.219525191930000137e-04,-7.778841536489999441e-04,1.000000000000000000e+00
2.335016897000000036e+00,-3.904391995830000184e+00,-9.484239379550001015e-02,-8.991607874590000549e+00,-4.742075223479999373e-03,1.159683987500000069e-02,6.036439910529999703e-03,1.000000000000000000e+00
2.339914450999999840e+00,-3.921367388289999756e+00,-6.600433051440000864e-02,-8.979556786789999023e+00,-1.634069718420000069e-03,-1.164111495019999956e-02,-5.082434974609999732e-03,1.000000000000000000e+00
2.344938304999999890e+00,-3.905697525469999931e+00,-9.118963430849999496e-02,-8.984304273580001166e+00,6.252227351070000286e-03,5.841053556649999229e-03,-6.128509994600000749e-04,1.000000000000000000e+00
2.349953807999999977e+00,-3.867660348019999805e+00,-9.955490973489999895e-02,-8.987888561810001065e+00,1.244462653990000001e-02,4.113519564270000026e-03,-1.439000386739999922e-02,1.000000000000000000e+00
2.355019203999999977e+00,-3.946162222330000358e+00,-9.840114572300000251e-02,-8.991511428480000845e+00,-8.285110816359998742e-03,2.219548076389999888e-02,1.247412618249999980e-02,1.000000000000000000e+00
2.359947604999999893e+00,-3.851784441239999968e+00,-6.500195767199999641e-02,-8.979873597650000150e+00,5.010550376029999572e-03,-9.482094319540000085e-04,-7.882803678510000647e-03,1.000000000000000000e+00
2.364963207999999817e+00,-3.915703955699999739e+00,-5.760127122769999330e-02,-8.961198707799999497e+00,-9.353443048889999167e-03,-1.182580599559999871e-03,-1.020361296829999827e-02,1.000000000000000000e+00
2.369896543999999938e+00,-3.953564899800000365e+00,-1.137910316900000163e-01,-8.988622721300000507e+00,3.036885522309999957e-03,-3.409174736589999991e-03,1.360005233439999864e-02,1.000000000000000000e+00
2.375000001000000083e+00,-3.880371945559999869e+00,-6.983139168900000249e-02,-8.992643062860000924e+00,1.565844751890000178e-03,1.095936819910000096e-02,2.271467586979999866e-03,1.000000000000000000e+00
2.379909966000000043e+00,-3.960772346959999801e+00,-9.118382562219999599e-02,-9.000974837869998524e+00,6.007964722809999540e-03,-7.167968433350000237e-03,1.344700064510000008e-02,1.000000000000000000e+00
2.384997511999999986e+00,-3.882681099290000049e+00,-1.065898316070000018e-01,-8.987066139510000440e+00,4.603632260110000242e-03,-4.746275488289999900e-03,-6.150693166999999378e-03,1.000000000000000000e+00
2.389925811999999983e+00,-3.872353474280000540e+00,-8.521331811160000325e-02,-8.972979746489999187e+00,-1.617910340429999996e-02,-5.496763158589999636e-03,-8.856214582919999870e-03,1.000000000000000000e+00
2.395005151999999971e+00,-3.956870078830000192e+00,-7.583637685800000139e-02,-9.005300299860000024e+00,2.248854609209999939e-03,8.187809959049999892e-03,1.143122930079999884e-02,1.000000000000000000e+00
2.399897650999999854e+00,-3.853885505169999615e+00,-1.044829772540000062e-01,-8.999180355669999187e+00,5.258969031270000968e-03,1.399680227040000016e-02,9.458630811420000407e-04,1.000000000000000000e+00
2.404975660999999931e+00,-3.887563610630000444e+00,-9.693096357260000406e-02,-8.961525455539998575e+00,-8.620465174320000173e-03,1.077653607349999968e-03,-5.066267214719999759e-03,1.000000000000000000e+00
2.409894057999999895e+00,-3.927235988069999628e+00,-1.064132877300000002e-01,-8.965665624079999674e+00,-1.609894679859999954e-04,1.722654793409999921e-03,-6.953733973210001005e-04,1.000000000000000000e+00
2.414983546999999842e+00,-3.878193432480000258e+00,-6.511432287209999170e-02,-8.987413930029999776e+00,9.208554401989999319e-03,-7.271994370970000753e-03,-8.887823205439999421e-04,1.000000000000000000e+00
2.419954022000000204e+00,-3.928477220299999573e+00,-8.648854394549999880e-02,-8.999254005430000092e+00,6.534664891659999232e-03,-1.259634853339999935e-03,4.841904155910000361e-03,1.000000000000000000e+00
2.424954511999999784e+00,-3.905181392649999861e+00,-7.700619238889999663e-02,-9.004028964750000696e+00,-1.064966805279999977e-02,-6.338163744660000286e-03,-2.453916706139999768e-03,1.000000000000000000e+00
2.429868941000000060e+00,-3.905655439900000303e+00,-9.491348627039998542e-02,-8.994377339299999718e+00,8.493384346370000046e-03,-8.714054711159999536e-03,1.171041745689999948e-02,1.000000000000000000e+00
2.434894434999999913e+00,-3.872908185550000049e+00,-5.663325731269999719e-02,-8.972919540730000421e+00,1.412830594929999871e-02,-2.897131489590000324e-03,4.642600193619999573e-03,1.000000000000000000e+00
2.439908108000000020e+00,-3.930283100680000086e+00,-8.653438324800000192e-02,-9.008518092859999271e+00,8.958093821999999623e-03,-2.052623080090000118e-03,6.400286220009999624e-03,1.000000000000000000e+00
2.444820613000000087e+00,-3.906695304340000341e+00,-7.443270690539999235e-02,-8.978049889360001146e+00,-9.416870889250000386e-04,-9.957749396560000230e-03,4.204830154780000127e-03,1.000000000000000000e+00
2.449913908000000085e+00,-3.904696531740000420e+00,-9.382274102479999656e-02,-9.015194501880001710e+00,7.166042923929999420e-03,-1.891810330559999791e-03,6.268470548089999546e-03,1.000000000000000000e+00
2.454989099000000063e+00,-3.896602364869999668e+00,-7.799144969980000008e-02,-8.977952274199999749e+00,-1.286615990100000058e-02,4.470439162109999566e-03,-2.323060063650000256e-03,1.000000000000000000e+00
2.459937945000000070e+00,-3.895161226149999933e+00,-9.595146928230000039e-02,-8.979845540599999509e+00,5.292769521470000113e-03,1.139882951970000029e-04,2.841846784580000229e-03,1.000000000000000000e+00
2.465070869999999914e+00,-3.905380422349999936e+00,-6.880605352950000531e-02,-9.001700229540000819e+00,-3.868231549860000167e-03,1.554298400879999820e-02,1.646289043130000004e-02,1.000000000000000000e+00
2.470046347999999892e+00,-3.863775323290000063e+00,-1.032053767999999982e-01,-8.997403409129999474e+00,7.478780113160000444e-03,7.513437885790000791e-03,6.612290162590000542e-04,1.000000000000000000e+00
2.475017010000000184e+00,-3.922002763590000107e+00,-8.392421901589998401e-02,-8.977802052080001260e+00,-1.318250689660000093e-02,-5.649105645720000658e-03,3.142396686599999503e-03,1.000000000000000000e+00
2.479919906000000118e+00,-3.894515913989999856e+00,-4.232600635030000363e-02,-8.978331044389998183e+00,-1.754876924679999936e-03,-3.606029786169999939e-03,-4.389604553580000491e-03,1.000000000000000000e+00
2.485010727000000141e+00,-3.917423034580000074e+00,-7.934358582789999281e-02,-8.985866700589998146e+00,1.925576711069999997e-03,-4.463309887800000555e-03,1.103444397450000121e-02,1.000000000000000000e+00
2.489937355999999991e+00,-3.881040054080000523e+00,-1.015712636590000023e-01,-8.949455663039998399e+00,7.588572800159999916e-03,-9.297154843809999486e-03,-1.549073494970000249e-04,1.000000000000000000e+00
2.495054985999999975e+00,-3.925479207530000014e+00,-9.482400875549999719e-02,-9.000382717200000826e+00,-2.465241402390000100e-02,-1.926197111609999693e-02,3.980419598519999852e-03,1.000000000000000000e+00
2.499864389999999936e+00,-3.903184958130000215e+00,-6.976720844560001245e-02,-8.983240443739999748e+00,7.161156274380000610e-03,-1.745208352800000154e-02,6.737108342350001111e-03,1.000000000000000000e+00
2.504986508000000001e+00,-3.868999779940000217e+00,-3.519592614159999799e-02,-8.970628214930000510e+00,-3.670086385680000011e-03,-7.945699617270001250e-03,-3.364131087440000358e-03,1.000000000000000000e+00
2.509897486999999927e+00,-3.892823723119999801e+00,-8.184483719229999898e-02,-9.003497049830000876e+00,-2.668222878130000180e-03,-8.768033236270001557e-03,-4.799122922120000433e-03,1.000000000000000000e+00
2.514966908999999973e+00,-3.928636502509999850e+00,-7.674707566189999108e-02,-8.982000088290000406e+00,1.992648467419999971e-04,5.926902871580000398e-03,-9.863384068009999756e-03,1.000000000000000000e+00
2.519869824000000147e+00,-3.903261822759999777e+00,-7.527350967769999568e-02,-8.939730387839999182e+00,9.557451121510001507e-03,-5.584807135159999304e-03,-1.620226353409999834e-02,1.000000000000000000e+00
2.524966533999999818e+00,-3.943794616419999510e+00,-1.090074689409999964e-01,-8.980658610549999921e+00,1.573033630850000086e-02,8.323462679979999612e-04,8.770475164059999759e-03,1.000000000000000000e+00
2.529941845000000189e+00,-3.874086873940000064e+00,-7.436506676300000396e-02,-8.969733896430000186e+00,1.898194104429999987e-02,2.882615663110000333e-03,-9.428154677149998622e-03,1.000000000000000000e+00
2.535019941999999915e+00,-3.912505744180000633e+00,-7.714150920639999132e-02,-9.007287089760000143e+00,1.867734128609999837e-03,1.527415215970000066e-02,2.257298910989999612e-03,1.000000000000000000e+00
2.539954231999999923e+00,-3.917066183969999393e+00,-9.963513536429999262e-02,-9.004099691889999590e+00,-1.311377715320000137e-02,9.681532159450001451e-03,5.105256102979999384e-03,1.000000000000000000e+00
2.545018552999999795e+00,-3.884045957900000179e+00,-5.549324783149999635e-02,-8.976647036819999315e+00,-2.650967333469999611e-03,1.200778037309999970e-02,6.161633878949999282e-03,1.000000000000000000e+00
2.549911191000000077e+00,-3.918758667099999649e+00,-7.670354704739998364e-02,-8.970525339069999049e+00,-1.197530422360000048e-02,-1.216533593829999954e-02,4.008830524980000129e-03,1.000000000000000000e+00
2.555052413999999938e+00,-3.918369667780000398e+00,-9.603052586789999345e-02,-8.999390199029999593e+00,4.377180244770000755e-03,-8.843719027940000893e-03,8.167892694470000117e-03,1.000000000000000000e+00
2.559895512999999845e+00,-3.901111951249999876e+00,-5.880545938569999020e-02,-8.966874415350000405e+00,-1.251894235610000010e-02,1.123567856850000123e-02,-6.491101812569999990e-03,1.000000000000000000e+00
2.565014055999999876e+00,-3.921832667719999499e+00,-1.272253722749999982e-01,-9.021286389020000129e+00,-3.275894559920000237e-03,1.487419009210000018e-02,1.073844358329999887e-02,1.000000000000000000e+00
2.569953389999999782e+00,-3.862238030719999493e+00,-1.068179960730000072e-01,-9.001059009019998669e+00,6.163606420159999967e-03,8.119821548460000663e-03,-4.051825962960000152e-03,1.000000000000000000e+00
2.575011758000000039e+00,-3.931604704669999339e+00,-5.531441609930000392e-02,-8.957457767710000240e+00,-1.112398039550000113e-02,-1.328880898650000066e-02,1.945347711440000363e-02,1.000000000000000000e+00
2.579877074000000103e+00,-3.888439224419999896e+00,-8.155479560400000216e-02,-8.973432166429999413e+00,8.644637651739998929e-03,-5.109148565680000226e-03,1.155848149210000030e-02,1.000000000000000000e+00
2.585024166999999817e+00,-3.871479321790000316e+00,-9.354301076789998948e-02,-8.986322627659999895e+00,1.307809725400000192e-02,9.339902549979999663e-03,-7.539957761760000474e-03,1.000000000000000000e+00
2.589951639000000139e+00,-3.947779594400000036e+00,-8.655850390910001246e-02,-9.000900603589998994e+00,-7.180545013399999843e-03,-1.396101666609999908e-03,1.596131548290000146e-02,1.000000000000000000e+00
2.595010627000000181e+00,-3.870944192000000061e+00,-7.212174481560000572e-02,-8.981925269489998698e+00,5.368827376510000755e-03,-7.861729711289998715e-03,4.311238881199999586e-04,1.000000000000000000e+00
2.599954733000000129e+00,-3.899820742400000206e+00,-8.405491445720000843e-02,-8.989939064599999696e+00,7.477596402169999976e-03,3.631727304310000118e-04,-4.755785688759999776e-03,1.000000000000000000e+00
2.604948869999999861e+00,-3.920492943550000220e+00,-8.499086186680000765e-02,-8.964601794239998256e+00,-8.556738030170000543e-04,-2.753308508550000172e-03,-4.255144856870000068e-03,1.000000000000000000e+00
2.609932794000000111e+00,-3.928908305189999783e+00,-5.404714524299999989e-02,-8.952416266410001100e+00,5.852770060300000431e-03,-5.425286944959999656e-03,1.301005017010000049e-02,1.000000000000000000e+00
2.615027196000000220e+00,-3.878232887699999853e+00,-8.284954812229999854e-02,-8.992055033839999822e+00,7.396548055110000082e-03,4.797615576539999635e-03,-8.056422695520001551e-03,1.000000000000000000e+00
2.619924698000000163e+00,-3.887883928630000430e+00,-9.018835744459999249e-02,-8.999115473739999871e+00,1.970090670509999761e-04,4.715278744699999414e-03,-4.141720011829999430e-03,1.000000000000000000e+00
2.625014456999999801e+00,-3.908802505749999767e+00,-9.606263803919999622e-02,-8.999634529179999731e+00,8.914223872129999060e-03,-9.869905188680000441e-03,-5.916643422100000211e-04,1.000000000000000000e+00
2.629901596999999924e+00,-3.886078340510000118e+00,-9.855589789330000683e-02,-9.009403643520000671e+00,2.251247409729999985e-03,-1.501088961959999926e-02,-4.391128662970000297e-03,1.000000000000000000e+00
2.635049817000000072e+00,-3.956954834499999851e+00,-8.621800164210001449e-02,-8.970452273839999435e+00,9.270181879399999603e-03,-8.900269865989999044e-03,1.285259332510000144e-02,1.000000000000000000e+00
2.639931761000000154e+00,-3.818059574030000736e+00,-1.081482034969999950e-01,-9.007693916989998328e+00,7.278766715899999970e-04,1.162634976210000053e-02,-1.260546781120000168e-02,1.000000000000000000e+00
2.644926261000000167e+00,-3.925054844630000428e+00,-1.245600072570000050e-01,-8.992379443480000845e+00,6.733061280099999872e-03,-2.859771018850000221e-03,1.123044407000000017e-03,1.000000000000000000e+00
2.649900447999999908e+00,-3.906629837890000179e+00,-7.803486871640000211e-02,-8.982739508479999913e+00,-2.152149565520000089e-03,-1.188799180089999963e-02,-2.075757132839999974e-03,1.000000000000000000e+00
2.655104410999999942e+00,-3.895406433080000230e+00,-4.598205833959999322e-02,-8.986773878560001094e+00,-7.184244226660000017e-03,1.136263832449999978e-03,-7.079152856020000557e-03,1.000000000000000000e+00
2.659951742000000063e+00,-3.896478446230000170e+00,-3.496651499959999715e-02,-8.944367984510000369e+00,-1.171306893229999771e-02,-4.825952462850000187e-03,-3.454822581259999956e-03,1.000000000000000000e+00
2.664906811999999903e+00,-3.879711728090000200e+00,-7.092315528139998826e-02,-8.970719984860000551e+00,1.680431142449999998e-02,1.245524734260000134e-02,-1.999413594599999677e-03,1.000000000000000000e+00
2.669906983000000178e+00,-3.897309344100000406e+00,-1.246047414480000032e-01,-8.991606121020000231e+00,1.473835203800000042e-02,4.313813056800000142e-03,4.905487410719999719e-03,1.000000000000000000e+00
2.674867603000000038e+00,-3.896240545819999568e+00,-1.281898151270000064e-01,-9.003966420900001211e+00,7.254963740709999970e-03,-4.610734060409999932e-03,-1.593582914210000092e-03,1.000000000000000000e+00
2.679856473000000072e+00,-3.923276729049999911e+00,-1.327510220950000042e-01,-8.981267097839999991e+00,-9.094074368479998852e-03,-6.173824425790000112e-03,5.687327124179999450e-03,1.000000000000000000e+00
2.684936652000000201e+00,-3.892130480150000071e+00,-1.115349507259999901e-01,-8.999602380479998942e+00,-8.597836829720000365e-03,-1.022846065460000092e-02,2.117022173479999984e-03,1.000000000000000000e+00
2.689849022000000200e+00,-3.901642697130000670e+00,-6.854221496159999816e-02,-8.981864479209999530e+00,4.779339767990000223e-03,-8.845474570989999077e-03,7.245137821880000056e-04,1.000000000000000000e+00
2.694929469999999938e+00,-3.892768193540000254e+00,-1.114008120849999950e-01,-8.988552578669999349e+00,6.871934747320000269e-04,2.714158035809999757e-04,-7.994730956850000514e-03,1.000000000000000000e+00
2.699850384999999964e+00,-3.853170342639999912e+00,-1.019150721279999949e-01,-8.976586831069999661e+00,3.113960381600000115e-03,3.330623265360000036e-03,-1.789592579009999587e-02,1.000000000000000000e+00
2.704861070999999839e+00,-3.917844767119999627e+00,-1.189218461059999982e-01,-9.031544163660001345e+00,-7.698115659880000851e-04,-3.604885190729999883e-03,-1.212197449060000050e-02,1.000000000000000000e+00
2.709853144999999852e+00,-3.885880479849999958e+00,-1.116049106889999976e-01,-9.001248978639999621e+00,-1.493508345449999931e-03,-1.256450265650000016e-02,-1.095119491220000046e-02,1.000000000000000000e+00
2.714903292999999884e+00,-3.929860199090000172e+00,-7.580414138910000765e-02,-8.998368454770000469e+00,1.071437634529999981e-02,-2.805437659839999948e-03,-4.799289163199999832e-04,1.000000000000000000e+00
2.719857059000000188e+00,-3.898923501290000093e+00,-8.282192946300000191e-02,-8.980701865169999465e+00,-8.208166807890000805e-03,6.716352421790000582e-03,-9.345221333210000951e-04,1.000000000000000000e+00
2.724966755000000074e+00,-3.890855345649999908e+00,-1.091528961610000042e-01,-9.000708880410000390e+00,-7.837994489820000786e-04,-5.367152392859998906e-03,-6.967799738050000670e-03,1.000000000000000000e+00
2.729895454999999860e+00,-3.861553847840000220e+00,-4.862322506469999445e-02,-9.007697424130000741e+00,-1.068196259440000071e-03,-7.870612666009999675e-03,-1.769059337679999844e-02,1.000000000000000000e+00
2.734951198000000083e+00,-3.957276029280000440e+00,-6.132038764899999661e-02,-8.973464315130000202e+00,-8.439829573040000255e-03,9.542077314110000100e-04,7.523685693739999916e-03,1.000000000000000000e+00
2.739923318999999857e+00,-3.869510067540000264e+00,-4.964971856819999640e-02,-8.995305560060000261e+00,-9.121354669329999332e-03,1.323607983069999836e-03,-7.065327838060000455e-03,1.000000000000000000e+00
2.745012009999999947e+00,-3.881554141080000520e+00,-6.525401447060000248e-02,-9.010763825960001583e+00,4.233841784300000285e-03,-6.298089865600000302e-03,-1.444320287560000096e-02,1.000000000000000000e+00
2.749931820000000027e+00,-3.919125746849999814e+00,-3.325964258300000143e-02,-9.027499856700000436e+00,9.687729179860000983e-03,9.919600561260000920e-03,-6.084537133569998917e-03,1.000000000000000000e+00
2.754947408000000042e+00,-3.890866743830000196e+00,-6.384575054129999760e-02,-8.987934739039999954e+00,1.186789828349999864e-03,9.729673620310000512e-04,-1.172065269200000051e-02,1.000000000000000000e+00
2.759939154000000006e+00,-3.902133987769999646e+00,-6.363597568159999607e-02,-8.960708878460000193e+00,7.251735776659999806e-03,3.527152352039999560e-03,-7.911562919620000398e-03,1.000000000000000000e+00
2.765040261000000221e+00,-3.897115282830000638e+00,-1.041801492500000065e-01,-8.976819470780000643e+00,1.025529298929999875e-02,-1.219058781859999954e-02,-1.189849618820000045e-02,1.000000000000000000e+00
2.769880514000000016e+00,-3.919145036069999755e+00,-1.078741723289999982e-01,-8.988894523980000884e+00,1.867288025099999704e-03,-2.313393726939999909e-02,-1.648931647650000217e-03,1.000000000000000000e+00
2.774991130000000084e+00,-3.937305546660000211e+00,-1.264880618429999881e-01,-8.952161999389998570e+00,-1.421081461010000047e-02,-7.214145269240000019e-03,3.726625116539999776e-03,1.000000000000000000e+00
2.779902149000000211e+00,-3.868476925099999963e+00,-7.069729236989999444e-02,-8.954515869039999743e+00,4.577799234539999852e-03,-8.517697453499999127e-03,-1.272411551329999911e-02,1.000000000000000000e+00
2.785156060999999905e+00,-3.938885801590000568e+00,-5.655512317570000197e-02,-8.974553863939998877e+00,-1.072288118299999891e-02,-1.375904679299999947e-02,7.121989037839998289e-04,1.000000000000000000e+00
2.789889244999999907e+00,-3.919590149489999842e+00,-6.253258101689999904e-02,-8.987001842099999749e+00,4.299814812840000063e-03,2.503712661559999875e-03,-6.738316267729999899e-03,1.000000000000000000e+00
2.794898261000000161e+00,-3.934769890699999717e+00,-5.891191543490000015e-02,-8.984398966120000551e+00,2.387496642770000222e-03,-1.432722434399999988e-02,-1.068557240070000004e-02,1.000000000000000000e+00
2.799871705999999794e+00,-3.915959976289999922e+00,-7.446925322330000263e-02,-8.980556319219999750e+00,-6.134085822850000001e-03,-1.499962434169999949e-02,-6.043940782550000744e-03,1.000000000000000000e+00
2.804966033999999997e+00,-3.881304842500000074e+00,-4.933788983980000320e-02,-8.966189940219999599e+00,1.622646301979999844e-02,-7.527123671029999075e-03,-2.311452291909999596e-02,1.000000000000000000e+00
2.809940832000000110e+00,-3.927840968219999507e+00,-3.143640921130000376e-02,-8.954712268390000673e+00,-4.901106003670000627e-03,-3.183468244969999642e-03,-1.080585084859999982e-02,1.000000000000000000e+00
2.814954311000000153e+00,-3.894006503159999966e+00,-5.547244250549999978e-02,-8.985403174730000941e+00,-3.320481337139999855e-04,-7.953913882369999504e-04,-1.842826232309999895e-02,1.000000000000000000e+00
2.819906986999999976e+00,-3.952515390749999913e+00,-4.450495782459999716e-02,-8.967878623960000795e+00,1.652425155040000010e-02,-3.311077365650000239e-03,-1.196635048839999986e-02,1.000000000000000000e+00
2.824863597999999865e+00,-3.940615694119999457e+00,-7.204703561160001601e-02,-8.986928776860001022e+00,-5.307734478270000576e-03,-1.174269616600000059e-02,-8.774637244639999292e-03,1.000000000000000000e+00
2.829882485999999808e+00,-3.895848039369999682e+00,-9.854542216509999675e-02,-9.014895226680000206e+00,6.246964912860000513e-04,-2.765119774270000021e-03,-1.585456915199999831e-02,1.000000000000000000e+00
2.834890435000000153e+00,-3.957991776340000101e+00,-7.235084086380000334e-02,-9.017097705160001198e+00,1.567816734309999960e-02,-2.193956635890000062e-02,2.251699799670000158e-03,1.000000000000000000e+00
2.839884545999999954e+00,-3.908839622890000420e+00,-7.688910534789998585e-02,-8.994223025519998416e+00,5.468631628899999625e-03,5.839892197399999298e-03,-7.757608778769999915e-03,1.000000000000000000e+00
2.844977394999999909e+00,-3.891725698750000184e+00,-6.900306023930000143e-02,-9.032171940170000468e+00,9.251207113270000157e-03,-5.176535807550000298e-03,-1.062073744829999944e-02,1.000000000000000000e+00
2.849918272000000030e+00,-3.918648484719999381e+00,-8.297665423380000405e-02,-9.007508039030000191e+00,1.024928316470000156e-02,-1.276130229229999885e-02,-1.203803904349999912e-02,1.000000000000000000e+00
2.855039065999999792e+00,-3.936303968399999853e+00,-7.093338441439998865e-02,-8.994199060130000589e+00,1.227330975229999968e-02,-3.231001086530000451e-03,-9.216217324140000069e-03,1.000000000000000000e+00
2.859886275000000033e+00,-3.870126738140000189e+00,-1.138425244150000071e-01,-8.983443272839998883e+00,1.556071732189999966e-02,-9.417962282900000509e-03,-1.424128934740000012e-02,1.000000000000000000e+00
2.864959042999999816e+00,-3.925054552369999783e+00,-1.135421075630000110e-01,-8.965557487530000813e+00,2.365064993500000032e-02,-2.323200181129999806e-02,-1.197498943660000106e-02,1.000000000000000000e+00
2.869881089999999801e+00,-3.936180926540000513e+00,-1.519977113540000035e-01,-9.016206893799999733e+00,1.848025992509999896e-02,-1.503829658029999863e-02,-1.052430085840000071e-02,1.000000000000000000e+00
2.874936987999999971e+00,-3.942738385360000208e+00,-1.284190847049999917e-01,-9.027996700310000122e+00,1.007483433929999908e-02,-1.078593358400000042e-02,9.699033573270000180e-03,1.000000000000000000e+00
2.879964398999999897e+00,-3.887676131090000098e+00,-1.028864653099999943e-01,-8.981606120539998628e+00,4.221206065270000259e-03,-2.409785613420000264e-02,-1.983498036859999980e-02,1.000000000000000000e+00
2.884976366000000070e+00,-3.915241598889999786e+00,-1.103582442290000076e-01,-9.003049890580001602e+00,1.599103584889999957e-02,-2.583570405840000112e-02,-1.405671052629999841e-02,1.000000000000000000e+00
2.889941684000000066e+00,-3.905053674609999526e+00,-1.081171873039999953e-01,-9.021944560660001500e+00,-1.044786651619999951e-03,3.155313897879999710e-04,-1.714175939560000014e-02,1.000000000000000000e+00
2.894971425000000043e+00,-3.893975523500000424e+00,-1.160778274530000070e-01,-8.972305208230000773e+00,8.472167886790000005e-03,-2.640252932909999822e-02,-1.671806722879999943e-02,1.000000000000000000e+00
2.899896773000000039e+00,-3.892846519469999489e+00,-9.470125002550000559e-02,-8.976047901889998570e+00,2.323118969800000086e-02,-2.061881870029999911e-02,-1.670176908370000005e-02,1.000000000000000000e+00
2.904967451000000089e+00,-3.944208750180000056e+00,-1.324552357530000002e-01,-8.954501840510001642e+00,4.109352827070000304e-03,-8.250558748840000275e-03,-7.859489880500000053e-03,1.000000000000000000e+00
2.909919261000000201e+00,-3.924941155129999970e+00,-1.529153559220000069e-01,-8.977358984489999472e+00,2.135183662179999942e-02,-2.439361624420000388e-02,-2.941483631729999854e-03,1.000000000000000000e+00
2.914913560000000015e+00,-3.941269189589999833e+00,-1.123734291099999782e-01,-8.972408668599999970e+00,1.374791376290000061e-02,-1.543995924290000009e-02,2.101628342640000056e-03,1.000000000000000000e+00
