t,ax,ay,az,wx,wy,wz,zv
5.116240999999999671e-03,-2.789846991629999717e+00,7.024113331380000824e-01,-9.394320075710000495e+00,-6.621172069569999756e-04,-1.301063876600000099e-02,1.202705688770000156e-02,1.000000000000000000e+00
1.020564499999999930e-02,-2.768143986129999679e+00,6.751105806939999843e-01,-9.381443642999999000e+00,3.668228629979999964e-03,-8.930382318790000204e-03,1.784802228209999772e-02,1.000000000000000000e+00
1.522301600000000067e-02,-2.785497856509999703e+00,6.860071646960000935e-01,-9.371146120869999763e+00,2.641716273499999674e-04,5.920869298280000137e-03,1.798049546779999924e-02,1.000000000000000000e+00
2.019297700000000084e-02,-2.743490606379999974e+00,6.632356531780000397e-01,-9.385669736260000562e+00,-6.701584905389999965e-03,-1.049508526920000032e-02,3.195760771630000094e-03,1.000000000000000000e+00
2.523701100000000017e-02,-2.783156554080000067e+00,6.906096900550000584e-01,-9.380160032930000114e+00,3.242743667219999924e-03,-1.236079633239999843e-02,1.313935592770000028e-02,1.000000000000000000e+00
3.023528099999999927e-02,-2.754212783669999887e+00,6.716733727860000336e-01,-9.369278573429999923e+00,-4.631774965669999654e-03,-9.821920655669998806e-03,8.184773847460000834e-03,1.000000000000000000e+00
3.524202399999999680e-02,-2.744516734559999893e+00,7.501425138670000381e-01,-9.373424587200000602e+00,-3.999785520140000140e-03,-1.279307715589999943e-02,-1.683935872279999869e-03,1.000000000000000000e+00
4.024467899999999848e-02,-2.785186014079999772e+00,6.892139979129999761e-01,-9.404006772460000718e+00,7.013249676670000460e-03,-1.239964086559999963e-02,9.248495101930001572e-03,1.000000000000000000e+00
4.524819599999999747e-02,-2.763886620940000594e+00,6.978408103530000517e-01,-9.371690895269999544e+00,3.525894135239999658e-03,-2.338193589820000261e-03,6.387253757569999642e-03,1.000000000000000000e+00
5.024908699999999784e-02,-2.783551398619999784e+00,6.943438350820000382e-01,-9.359979414690000610e+00,-1.330731809140000069e-02,-5.883504636590000452e-04,1.781198382379999695e-02,1.000000000000000000e+00
5.521147500000000291e-02,-2.731212431829999510e+00,7.050237075939999043e-01,-9.361359470870000976e+00,-5.025839898739999784e-03,-9.257151745260001202e-03,4.465854261069999824e-03,1.000000000000000000e+00
6.020591899999999663e-02,-2.746723012429999500e+00,6.787359315840000296e-01,-9.374348716300000106e+00,-8.252457715570000324e-03,7.045382633810000350e-03,1.302803866570000031e-05,1.000000000000000000e+00
6.524791100000000565e-02,-2.777940280740000212e+00,6.905867475710000258e-01,-9.380334220449999094e+00,-6.068331655109999827e-03,-1.190196443350000077e-02,1.034689135849999921e-02,1.000000000000000000e+00
7.013591700000000595e-02,-2.762668769579999850e+00,6.727514503470000129e-01,-9.389076914360000359e+00,-2.277154941110000243e-03,-3.980412147940000540e-03,1.143109053369999835e-03,1.000000000000000000e+00
7.509173500000000667e-02,-2.785586996100000157e+00,7.193656097449999676e-01,-9.364279742229999925e+00,7.141811307520000429e-03,-2.795720240100000014e-03,2.212961204349999864e-03,1.000000000000000000e+00
7.998171099999999700e-02,-2.766639426779999855e+00,7.016920058879999589e-01,-9.335020914519999380e+00,-1.411987701429999985e-03,-6.737470626829999976e-03,5.719170439990000146e-03,1.000000000000000000e+00
8.508833000000000368e-02,-2.758230202620000071e+00,6.681810006260000545e-01,-9.370904713330000746e+00,4.119132645429999552e-03,-1.774695515629999901e-02,-1.002899184820000081e-02,1.000000000000000000e+00
9.006241700000000572e-02,-2.817396092809999697e+00,7.131793953899998595e-01,-9.384999874180000035e+00,-1.740413950759999925e-03,-3.170664422210000020e-05,1.572089642289999784e-02,1.000000000000000000e+00
9.525091099999999367e-02,-2.777398721199999976e+00,7.028079312410000501e-01,-9.353416402909999761e+00,-8.089357055719999939e-03,-6.632244214419999798e-03,1.249610632660000040e-02,1.000000000000000000e+00
1.000650420000000068e-01,-2.788381887509999935e+00,7.159479102560000197e-01,-9.350852105379999557e+00,1.030832715329999850e-02,-1.993710361420000104e-02,1.010263152420000018e-02,1.000000000000000000e+00
1.052429799999999999e-01,-2.755762058939999815e+00,6.921027781569999426e-01,-9.358914415810000165e+00,-7.220756262540000206e-03,-1.143371406939999897e-02,-1.096043735739999844e-02,1.000000000000000000e+00
1.100440570000000007e-01,-2.817634577739999813e+00,7.052129465559999755e-01,-9.354348715329999564e+00,-9.484963375139998827e-04,-2.285738848149999891e-02,1.468317583200000028e-03,1.000000000000000000e+00
1.152532909999999938e-01,-2.763941273739999982e+00,7.683722172369999992e-01,-9.330481517529999991e+00,-5.435490980739999915e-03,8.203116245569999979e-03,-7.264555897559999862e-04,1.000000000000000000e+00
1.200767330000000049e-01,-2.780827234350000232e+00,8.024890794369999858e-01,-9.371475791219999962e+00,-1.295405160639999907e-02,-9.350857697429999782e-03,8.962145075200000227e-03,1.000000000000000000e+00
1.251249899999999915e-01,-2.791853070749999777e+00,7.194561375719999985e-01,-9.355790146310001276e+00,-1.408183109020000150e-02,3.119296627119999728e-03,1.079989783470000110e-02,1.000000000000000000e+00
1.302137849999999986e-01,-2.721277021010000130e+00,7.122984478370000261e-01,-9.341415583989999050e+00,-1.428808178750000032e-02,5.651409737770000073e-04,-2.644040156159999707e-03,1.000000000000000000e+00
1.351122210000000046e-01,-2.775796838970000291e+00,7.216766631659999875e-01,-9.359241163540000130e+00,-2.396702207619999872e-02,-6.109757348899999552e-03,9.322226047520001252e-03,1.000000000000000000e+00
1.402301420000000021e-01,-2.744453313939999806e+00,7.302243459550000759e-01,-9.333098422029999952e+00,-9.133365005250001015e-03,8.139379322529999641e-03,6.024674046779999841e-03,1.000000000000000000e+00
1.450472309999999987e-01,-2.792127796040000387e+00,7.520139337630000753e-01,-9.306958603120000006e+00,-2.309810835870000200e-03,-2.825398929419999962e-03,5.288775544610000226e-03,1.000000000000000000e+00
1.500661159999999994e-01,-2.753891004370000228e+00,7.191982172880000412e-01,-9.381153135619999972e+00,2.132673980669999927e-04,8.080267347399999744e-03,-6.776181980969999720e-03,1.000000000000000000e+00
1.552704410000000090e-01,-2.788005163149999799e+00,7.678345301639999398e-01,-9.384715212019999697e+00,-1.909110881390000194e-02,4.375246353449999473e-03,1.297835633159999912e-02,1.000000000000000000e+00
1.600630540000000102e-01,-2.694475815590000156e+00,9.394026645720000568e-01,-9.350281027499999453e+00,-5.013138987119999772e-03,5.023987963800000470e-03,-1.288344152270000029e-02,1.000000000000000000e+00
1.650890540000000128e-01,-2.800039007559999682e+00,8.516491969910000570e-01,-9.343194868630000371e+00,-5.942447111010000678e-03,6.524091586469999392e-03,-1.430680230260000102e-02,1.000000000000000000e+00
1.702365859999999953e-01,-2.781876158880000283e+00,7.348371735119999526e-01,-9.363205391000001043e+00,5.569037748500000034e-04,-2.243933081630000020e-02,-1.499780081210000046e-02,1.000000000000000000e+00
1.752266759999999979e-01,-2.774788246449999995e+00,6.634202159650000041e-01,-9.356407985940000671e+00,1.900627627040000003e-03,-1.175110694020000020e-02,-4.021867178380000157e-03,1.000000000000000000e+00
1.800167729999999910e-01,-2.799527258640000404e+00,6.715243927699999782e-01,-9.399383788839999809e+00,2.277557738130000196e-03,6.162353791300000105e-03,-1.777729019519999794e-03,1.000000000000000000e+00
1.850281779999999876e-01,-2.785115286929999989e+00,7.027380078100000649e-01,-9.368433939299999125e+00,-1.347564160819999775e-03,1.064124517139999893e-02,-9.630896151070000161e-03,1.000000000000000000e+00
1.901142819999999956e-01,-2.814645332799999622e+00,7.430662188060001005e-01,-9.377373617079999946e+00,3.599402029070000123e-03,1.290328986939999999e-02,2.772338688369999950e-03,1.000000000000000000e+00
1.952398110000000131e-01,-2.784144396069999861e+00,7.112399517599999887e-01,-9.347098305810000340e+00,-1.044944301250000027e-02,5.920097231859999982e-03,-4.256717860700000126e-03,1.000000000000000000e+00
2.000598339999999919e-01,-2.833324606570000181e+00,7.241998249680000610e-01,-9.369303707869999442e+00,6.450735963879999880e-04,5.108929239209999799e-03,4.104410763830000294e-03,1.000000000000000000e+00
2.052522449999999998e-01,-2.764250778079999638e+00,6.813955061820000658e-01,-9.357744202979999315e+00,-6.146351341159999974e-03,1.216245815159999917e-02,-1.088689640159999986e-02,1.000000000000000000e+00
2.101733769999999946e-01,-2.828823203490000271e+00,5.990315496199999368e-01,-9.397285939779999708e+00,5.455841775979999343e-03,1.688569784159999962e-02,-3.980370238419999999e-04,1.000000000000000000e+00
2.151085020000000070e-01,-2.806629199599999680e+00,6.252139655589999956e-01,-9.394012617190000469e+00,-7.911640219390000256e-03,2.529795840379999924e-02,8.257690351460001115e-04,1.000000000000000000e+00
2.202687210000000007e-01,-2.831534508280000306e+00,6.565618745029999648e-01,-9.365385073130001459e+00,-1.327539142219999989e-02,1.161457411939999934e-02,-9.968265891080000177e-03,1.000000000000000000e+00
2.250619520000000096e-01,-2.819760483859999667e+00,6.199756995790000058e-01,-9.310576209099998835e+00,-1.507434435189999866e-02,3.302040696140000342e-02,-1.435272861270000058e-04,1.000000000000000000e+00
2.302221969999999895e-01,-2.781181454609999548e+00,6.493340421409999896e-01,-9.343742565639999498e+00,9.519740706310000347e-04,3.450759127740000293e-02,3.020519390699999852e-03,1.000000000000000000e+00
2.351019689999999940e-01,-2.726586233329999942e+00,6.169951493990000202e-01,-9.351908920960001481e+00,5.616401322189998671e-03,1.528289169070000050e-02,2.721720375120000122e-05,1.000000000000000000e+00
2.402534249999999927e-01,-2.761144044240000373e+00,7.001724681709999842e-01,-9.368723862160001303e+00,-1.714775152500000108e-02,3.281171992419999739e-02,6.165232043710000553e-03,1.000000000000000000e+00
2.450724910000000034e-01,-2.680430923620000350e+00,6.436951594709999780e-01,-9.418384841910000915e+00,-1.979935728009999882e-02,1.362441852689999858e-02,-8.646450936789999708e-03,1.000000000000000000e+00
2.502005030000000185e-01,-2.742164618479999927e+00,6.746496121179998973e-01,-9.409463868830000521e+00,-2.079704031349999954e-02,3.008029796179999965e-02,1.499880664050000020e-02,1.000000000000000000e+00
2.551093560000000093e-01,-2.671292800659999855e+00,7.281419136570000950e-01,-9.414541610480000600e+00,-1.952173374590000093e-02,3.026727028189999877e-02,1.111271092669999976e-03,1.000000000000000000e+00
2.602378419999999970e-01,-2.714443375600000152e+00,7.378514067670000065e-01,-9.401988418380000212e+00,-1.784947141999999876e-02,2.046291157600000146e-02,-2.880399115379999892e-03,1.000000000000000000e+00
2.651014239999999744e-01,-2.779052041370000392e+00,7.298392921600000971e-01,-9.393972285180000270e+00,-1.725199073549999948e-02,2.484241500500000005e-02,-8.756984025239999969e-03,1.000000000000000000e+00
2.702468559999999798e-01,-2.746154272640000116e+00,6.808990279019999647e-01,-9.389377943130000403e+00,-1.231641881170000147e-02,2.947022439910000017e-03,-1.302909688090000007e-03,1.000000000000000000e+00
2.752606719999999840e-01,-2.713335706620000121e+00,5.684957973090000172e-01,-9.452191249920000260e+00,-2.592705748980000252e-02,1.580139994620000099e-02,-3.665091237050000384e-03,1.000000000000000000e+00
2.800894720000000060e-01,-2.728667423520000135e+00,5.949452666869999851e-01,-9.419029569550000147e+00,-3.275387734170000231e-02,2.225734852250000131e-02,2.664241008459999980e-03,1.000000000000000000e+00
2.850651009999999874e-01,-2.743351782439999997e+00,6.424943323139999940e-01,-9.425149513739999207e+00,-2.057838439940000083e-02,5.095298402010000650e-03,1.320426352320000149e-02,1.000000000000000000e+00
2.900597970000000081e-01,-2.730143925820000206e+00,6.650632339320000641e-01,-9.429535181469999472e+00,-1.238904148340000053e-02,2.210196806119999954e-03,7.428449112919999903e-03,1.000000000000000000e+00
2.952844929999999812e-01,-2.700740428940000104e+00,7.197688567829999551e-01,-9.415494965680000661e+00,-1.526555325840000046e-02,6.907377392050000238e-03,5.432039964939999917e-03,1.000000000000000000e+00
3.000934860000000204e-01,-2.763600789740000341e+00,7.353576171899999236e-01,-9.421677453710000094e+00,-9.341839700940001573e-03,1.234540482980000077e-03,9.984133765100001653e-03,1.000000000000000000e+00
3.052332059999999792e-01,-2.753296253339999833e+00,7.233347325710000053e-01,-9.432600998789999025e+00,-1.668816059830000031e-02,-1.456255558879999675e-04,1.404884830119999990e-02,1.000000000000000000e+00
3.102361100000000094e-01,-2.714199922229999729e+00,7.211429946809999603e-01,-9.405532959119998537e+00,1.695641898550000149e-03,-6.018190644680000874e-03,4.909621085970000513e-03,1.000000000000000000e+00
3.152501650000000266e-01,-2.714767492990000086e+00,7.125276534829999564e-01,-9.431075396649999831e+00,-1.851937361059999634e-02,1.843918301169999996e-02,5.713999737050000013e-03,1.000000000000000000e+00
3.202609630000000096e-01,-2.737857276669999784e+00,6.648101359539999589e-01,-9.450743389199999456e+00,-1.461139135060000004e-02,5.709605757150000007e-04,1.360052265230000078e-02,1.000000000000000000e+00
3.251949679999999732e-01,-2.720856165249999847e+00,6.411394105740000349e-01,-9.444107896709999395e+00,-2.782208030110000095e-04,-1.576365344229999771e-02,4.092648159710000379e-03,1.000000000000000000e+00
3.302137509999999998e-01,-2.740092488380000191e+00,6.017275107049999683e-01,-9.448416992080000298e+00,3.187604248520000284e-03,3.022805089130000192e-03,2.175579406319999923e-02,1.000000000000000000e+00
3.351293750000000071e-01,-2.702056187709999779e+00,6.757237441560000057e-01,-9.423620404470000267e+00,8.658351376649999279e-03,-1.406298298389999958e-02,1.517765969039999892e-02,1.000000000000000000e+00
3.400966060000000235e-01,-2.725968685959999416e+00,6.537609917379999525e-01,-9.485620641309999712e+00,-1.915189623829999938e-02,-1.181356050070000129e-02,2.296637371179999915e-02,1.000000000000000000e+00
3.450987480000000107e-01,-2.705077289100000115e+00,6.373820308020000658e-01,-9.460025012280000922e+00,1.159131806339999855e-02,2.698137657719999749e-03,1.268137618899999909e-02,1.000000000000000000e+00
3.502820400000000167e-01,-2.739674262969999941e+00,6.934626683339999431e-01,-9.437895598060000779e+00,6.456047762189999831e-03,-1.875867880880000005e-02,2.236080728469999959e-02,1.000000000000000000e+00
3.552883270000000149e-01,-2.717147373859999604e+00,7.398726834609999914e-01,-9.425794241380000216e+00,1.969390548769999957e-02,-1.375009305779999885e-02,3.254650160670000125e-02,1.000000000000000000e+00
3.602653160000000021e-01,-2.706456176240000122e+00,7.253635349850000580e-01,-9.453119470680000802e+00,2.278097718949999989e-02,-2.271619439129999793e-02,3.712513297799999862e-02,1.000000000000000000e+00
3.652667479999999744e-01,-2.648426304330000036e+00,7.013477224950001032e-01,-9.476966794739999145e+00,2.191209793090000135e-02,-1.229126658289999945e-02,1.492893137040000005e-02,1.000000000000000000e+00
3.701452829999999916e-01,-2.690121712030000278e+00,7.073690286110000391e-01,-9.464186808139999130e+00,2.573580108579999817e-02,-2.413143031299999977e-02,1.922161504629999948e-02,1.000000000000000000e+00
3.751036220000000254e-01,-2.606659877229999811e+00,7.260461834870000075e-01,-9.479268057410001447e+00,3.497227281330000243e-02,-9.302750229839999718e-03,1.281360350550000103e-02,1.000000000000000000e+00
3.800918580000000047e-01,-2.647312497870000225e+00,7.327854286139999784e-01,-9.533597613499999568e+00,3.355713561179999443e-02,-2.915001101790000090e-02,1.674138568340000077e-02,1.000000000000000000e+00
3.850768740000000134e-01,-2.578469263270000145e+00,6.850920956780000015e-01,-9.526348373019999372e+00,4.575501754880000049e-02,-3.998279944059999341e-02,1.080693863329999782e-02,1.000000000000000000e+00
3.900962130000000250e-01,-2.596914143759999849e+00,6.436226056920000271e-01,-9.501433711989998088e+00,5.750754848119999513e-02,-5.036678537730000099e-02,2.190237306060000000e-02,1.000000000000000000e+00
3.952667799999999843e-01,-2.550793613100000190e+00,6.793418615880000289e-01,-9.611865679050000111e+00,5.981475859880000523e-02,-7.973314821719999779e-02,3.769673034550000135e-02,1.000000000000000000e+00
4.001176579999999872e-01,-2.400434709329999805e+00,6.827974088689999776e-01,-9.592691022980000426e+00,6.251736730340000381e-02,-9.672727435830000275e-02,1.653935760260000221e-02,1.000000000000000000e+00
4.052875870000000047e-01,-2.445656975969999980e+00,5.878192141989999620e-01,-9.696685065940000570e+00,7.557358592749999215e-02,-1.445184499030000014e-01,3.401828557250000107e-02,1.000000000000000000e+00
4.102282369999999956e-01,-2.247807860620000042e+00,4.492949424650000134e-01,-9.829306068439999322e+00,1.145517006519999881e-01,-1.864478439090000161e-01,3.410721942779999794e-02,1.000000000000000000e+00
4.152784070000000161e-01,-2.110867095220000156e+00,3.789198586529999857e-01,-9.924069926239999617e+00,1.033008545639999970e-01,-2.276299297810000233e-01,4.487586021420000154e-02,1.000000000000000000e+00
4.202577769999999990e-01,-1.943916683740000151e+00,2.329345120569999983e-01,-1.020299558870000034e+01,1.219369694590000108e-01,-2.987357676029999687e-01,8.925779163840000252e-02,1.000000000000000000e+00
4.252846869999999946e-01,-1.629541668379999919e+00,1.169217674640000010e-01,-1.043018404960000112e+01,1.534458845849999975e-01,-4.514674246310000361e-01,1.225881651039999881e-01,1.000000000000000000e+00
4.301350899999999977e-01,-1.548245194910000011e+00,3.716402276059999760e-02,-1.027175289860000085e+01,1.527863144870000023e-01,-6.114893555639999700e-01,1.501814872030000081e-01,1.000000000000000000e+00
4.351054280000000163e-01,-1.484657250489999969e+00,-3.038459632009999842e-02,-1.022035588880000034e+01,1.609417498110000122e-01,-7.880074381829998975e-01,1.740343421699999948e-01,1.000000000000000000e+00
4.401255029999999735e-01,-1.400288383849999985e+00,-4.662783629669999680e-02,-1.053067388390000048e+01,1.694423407319999852e-01,-9.684621095659999845e-01,2.235059738159999865e-01,1.000000000000000000e+00
4.450998780000000044e-01,-1.651437419970000153e+00,3.269906417130000187e-01,-1.065259229059999946e+01,1.518368273969999960e-01,-1.095792889599999986e+00,2.344421893360000009e-01,0.000000000000000000e+00
4.501071560000000082e-01,-1.353876615149999907e+00,2.217460507019999860e-01,-1.088828905220000109e+01,1.492301076650000002e-01,-1.150117993349999868e+00,2.235713154080000153e-01,0.000000000000000000e+00
4.551169179999999814e-01,-1.463501503610000087e+00,4.957547515510000169e-01,-1.127952475050000025e+01,1.943863034250000177e-01,-1.217337369920000079e+00,2.335753440859999752e-01,0.000000000000000000e+00
4.601104610000000261e-01,-1.688458698380000067e+00,6.116091455109999853e-01,-1.129117076460000035e+01,2.857588827609999771e-01,-1.253511428829999774e+00,2.761959731579999855e-01,0.000000000000000000e+00
4.651311360000000006e-01,-8.040096400679999089e-01,4.258955813719999539e-01,-1.240139644430000132e+01,4.387083649640000083e-01,-1.229768753050000107e+00,3.830789923669999930e-01,0.000000000000000000e+00
4.700907999999999753e-01,-1.098608891670000004e-01,9.791198309979999570e-02,-1.393529177299999944e+01,4.630555212499999906e-01,-1.261236071589999952e+00,4.022819995880000388e-01,0.000000000000000000e+00
4.750796669999999833e-01,-2.049844763499999889e+00,9.925026423250001006e-02,-1.393332661039999998e+01,2.991988360880000197e-01,-1.471478104589999836e+00,3.794764876369999818e-01,0.000000000000000000e+00
4.801162070000000170e-01,-2.568487090700000142e+00,-6.288051949840000043e-01,-1.226909926699999964e+01,6.964797526600000066e-02,-1.712679982189999839e+00,3.213324546810000237e-01,0.000000000000000000e+00
4.850774110000000139e-01,-1.764009613920000108e+00,-1.689505430949999942e+00,-1.285563074289999896e+01,-1.371422260999999865e-01,-1.884572267529999845e+00,2.759360671039999824e-01,0.000000000000000000e+00
4.901062709999999822e-01,-2.121754692200000125e+00,-1.457476544229999726e+00,-1.295017365140000187e+01,-2.107038646939999871e-01,-1.959213852879999829e+00,2.870100736619999870e-01,0.000000000000000000e+00
4.950567069999999847e-01,-2.601456755630000117e+00,-1.349392017090000007e+00,-1.280807170390000138e+01,-2.178339213129999730e-01,-1.999598979950000022e+00,4.029293656350000363e-01,0.000000000000000000e+00
5.000764949999999542e-01,-2.334474921209999998e+00,-1.188294131029999923e+00,-1.276411565779999968e+01,-1.773608922960000223e-01,-2.042783260349999797e+00,5.334740877149999339e-01,0.000000000000000000e+00
5.050703760000000431e-01,-2.355012243930000082e+00,-8.266914274759999959e-01,-1.267389938029999996e+01,-1.298262029889999947e-01,-2.168622255329999859e+00,6.187147498130000089e-01,0.000000000000000000e+00
5.101712160000000384e-01,-2.315601147779999813e+00,-1.029165791479999870e+00,-1.266563073359999869e+01,-9.769893437619998899e-02,-2.240695238109999821e+00,7.336747050290000072e-01,0.000000000000000000e+00
5.150945609999999508e-01,-2.682407192129999896e+00,-1.354312376220000003e+00,-1.274784841359999810e+01,-5.184784531589999718e-02,-2.318276643749999977e+00,8.268399834630000278e-01,0.000000000000000000e+00
5.201770629999999951e-01,-2.999521130940000280e+00,-1.485670080800000070e+00,-1.310538408690000090e+01,1.888191211039999930e-03,-2.366915941240000265e+00,8.846806287770000443e-01,0.000000000000000000e+00
5.251134179999999985e-01,-2.479218907709999975e+00,-1.486301802829999907e+00,-1.311478670599999852e+01,-4.636448342350000390e-03,-2.345554113389999973e+00,9.248380661010000559e-01,0.000000000000000000e+00
5.300843720000000259e-01,-1.364717011990000062e+00,-1.306353231960000194e+00,-1.373856508579999947e+01,-4.307446628809999400e-02,-2.201908826829999999e+00,9.314132928849999660e-01,0.000000000000000000e+00
5.351216199999999645e-01,-1.660970460539999971e-01,-1.129402454660000110e+00,-1.408705937450000079e+01,-1.715270578860000061e-01,-1.972744107250000045e+00,9.497320652009999531e-01,0.000000000000000000e+00
5.400720850000000350e-01,7.054657522730000130e-01,-1.277378628019999907e+00,-1.389374863319999953e+01,-3.361119925980000089e-01,-1.717626929279999937e+00,9.967378377910000031e-01,0.000000000000000000e+00
5.450332399999999744e-01,2.068112533859999935e+00,-1.636693439829999708e+00,-1.337834528800000022e+01,-4.736599624160000022e-01,-1.450776815410000031e+00,9.939742088320000502e-01,0.000000000000000000e+00
5.500997589999999660e-01,1.993929837929999893e+00,-1.164946353989999794e+00,-1.283060852980000099e+01,-5.561847686770000632e-01,-1.268505334849999944e+00,9.220287203789999664e-01,0.000000000000000000e+00
5.550772099999999876e-01,2.310194539500000088e-01,-6.898592370139999819e-01,-1.239438802689999974e+01,-5.746383070949999672e-01,-1.211560845379999973e+00,8.614894151690000168e-01,0.000000000000000000e+00
5.599993229999999933e-01,9.274527721240000133e-01,-1.145250012139999995e+00,-1.275282737099999864e+01,-4.846949279309999969e-01,-1.145658135410000167e+00,8.235318064689999273e-01,0.000000000000000000e+00
5.650947619999999727e-01,3.321701705490000212e+00,-9.775956901700000312e-01,-1.206271277099999928e+01,-3.515864908699999902e-01,-9.744578003880000061e-01,7.595044970509999827e-01,0.000000000000000000e+00
5.702429159999999886e-01,4.874657708440000015e+00,-7.293759854970001122e-01,-1.079513730569999908e+01,-1.772943884129999925e-01,-7.365481853489999065e-01,6.700088381769999657e-01,0.000000000000000000e+00
5.751814549999999526e-01,5.534567724330000438e+00,-1.252389294320000124e+00,-9.883527487980000359e+00,-8.440370857719999009e-02,-5.323588252069999527e-01,6.380782723430000747e-01,0.000000000000000000e+00
5.800524129999999889e-01,6.185381995090000196e+00,-1.530090383409999921e+00,-9.378577732180000126e+00,-9.449477307500000686e-03,-3.859398365020000332e-01,6.360623240470000272e-01,0.000000000000000000e+00
5.850757340000000140e-01,6.719035282810000176e+00,-1.489251884810000037e+00,-8.847365992389999434e+00,3.777305781840000626e-02,-3.505493998529999877e-01,6.213977932930000447e-01,0.000000000000000000e+00
5.901084340000000150e-01,6.940171604110000558e+00,-1.423411193020000187e+00,-8.293719717960000182e+00,1.113504394889999888e-01,-3.741470575330000381e-01,6.086415052410000248e-01,0.000000000000000000e+00
5.950708190000000286e-01,6.841378052400000520e+00,-1.491278860589999811e+00,-8.463295363380000325e+00,1.627881526949999935e-01,-3.789936006069999919e-01,6.161409020420000049e-01,0.000000000000000000e+00
6.001005160000000282e-01,6.699130558899999421e+00,-1.012022275910000157e+00,-8.128116483310000362e+00,2.261293977499999885e-01,-3.806076943869999840e-01,6.156701445579999543e-01,0.000000000000000000e+00
6.052381749999999894e-01,6.349926660599999551e+00,-8.427025049469999418e-01,-8.342418574679999921e+00,2.557367682460000013e-01,-3.092485368250000310e-01,6.393245458599999820e-01,0.000000000000000000e+00
6.102814210000000461e-01,5.762607249149999333e+00,-1.046852327879999933e+00,-8.917565902299999792e+00,2.919642329219999666e-01,-2.089721411469999957e-01,6.990736722949999482e-01,0.000000000000000000e+00
6.150520229999999477e-01,5.155011942389999824e+00,-8.765623236470000412e-01,-9.682208212300000838e+00,3.258976340290000162e-01,-3.529190272089999941e-02,7.761133909230000238e-01,0.000000000000000000e+00
6.202329650000000250e-01,4.444595728109999477e+00,-5.721166912199999732e-01,-1.024103744229999968e+01,3.759269118310000213e-01,1.491752564909999967e-01,8.748949170110000839e-01,0.000000000000000000e+00
6.250553180000000264e-01,3.802008895199999738e+00,-1.509205836420000058e-01,-1.092643845779999978e+01,4.274239540099999957e-01,3.686168193819999717e-01,9.486863613129999928e-01,0.000000000000000000e+00
6.301019270000000061e-01,3.195645468319999960e+00,4.377934513719999865e-01,-1.134721472339999870e+01,4.659968912600000457e-01,6.321359872820000447e-01,1.004140138629999957e+00,0.000000000000000000e+00
6.350737400000000532e-01,2.769663743040000181e+00,8.534919022480000894e-01,-1.159763325329999972e+01,5.414336919780000645e-01,9.296015501019999627e-01,1.059920668600000004e+00,0.000000000000000000e+00
6.400413600000000036e-01,2.592190330109999774e+00,1.079538280490000002e+00,-1.167645369200000083e+01,6.754079461099999904e-01,1.244133114810000107e+00,1.108037948610000045e+00,0.000000000000000000e+00
6.450676440000000511e-01,2.670717923379999803e+00,1.257131666540000081e+00,-1.161360589849999947e+01,8.014113903049999710e-01,1.534941077229999840e+00,1.148528575900000126e+00,0.000000000000000000e+00
6.500959579999999738e-01,2.971360327599999795e+00,1.324393915560000190e+00,-1.143972115769999931e+01,9.123263359069999634e-01,1.828436136249999899e+00,1.164645552639999915e+00,0.000000000000000000e+00
6.551308689999999491e-01,3.220364314520000271e+00,1.356379830149999854e+00,-1.122237838339999882e+01,1.020782470699999944e+00,2.021904468539999833e+00,1.176747679710000050e+00,0.000000000000000000e+00
6.601167629999999953e-01,3.323178792300000239e+00,1.301409784210000087e+00,-1.110793016650000098e+01,1.123050808909999976e+00,2.158092260359999681e+00,1.149006485939999989e+00,0.000000000000000000e+00
6.652384529999999518e-01,3.238407628470000077e+00,1.163963261239999936e+00,-1.096129116000000003e+01,1.188261270519999968e+00,2.242548942570000037e+00,1.102662801739999976e+00,0.000000000000000000e+00
6.701705829999999864e-01,2.951398612799999821e+00,1.057907609569999963e+00,-1.083805290289999945e+01,1.248379945759999998e+00,2.302401304240000446e+00,1.045134544369999974e+00,0.000000000000000000e+00
6.752872049999999460e-01,2.717119609070000052e+00,9.319063905320000840e-01,-1.081414361950000114e+01,1.262500286100000091e+00,2.351047277450000195e+00,9.560816884039999852e-01,0.000000000000000000e+00
6.801234870000000265e-01,2.309947067540000010e+00,7.912041537049999684e-01,-1.099410855700000056e+01,1.274012207980000033e+00,2.418733358379999920e+00,9.034879803659999764e-01,0.000000000000000000e+00
6.851281759999999776e-01,2.022405698570000077e+00,7.537550052760000341e-01,-1.106607021589999995e+01,1.260753750799999962e+00,2.464887380600000011e+00,8.219509124760000507e-01,0.000000000000000000e+00
6.901017750000000284e-01,1.603049967290000044e+00,7.938436353630000664e-01,-1.113463463349999927e+01,1.254625797270000120e+00,2.502980709080000032e+00,7.512576580050001063e-01,0.000000000000000000e+00
6.950824169999999524e-01,1.284455142270000128e+00,9.049147771019999675e-01,-1.122555935160000118e+01,1.262470006939999889e+00,2.545150756840000028e+00,6.677111387249999863e-01,0.000000000000000000e+00
7.000667250000000008e-01,9.271081234049999287e-01,1.074373956529999896e+00,-1.127040036380000032e+01,1.258159756660000017e+00,2.570602416989999917e+00,6.327918171880000386e-01,0.000000000000000000e+00
7.052724790000000077e-01,7.447770413119999544e-01,1.133076759259999955e+00,-1.131775365109999854e+01,1.280770659449999904e+00,2.591218471529999956e+00,5.734999775890000651e-01,0.000000000000000000e+00
7.101337549999999776e-01,5.750637409900000163e-01,1.260756725170000037e+00,-1.134003679459999958e+01,1.306531190870000136e+00,2.596498966219999982e+00,5.156490802759999825e-01,0.000000000000000000e+00
7.152725589999999745e-01,3.676699311689999861e-01,1.310212976129999873e+00,-1.132064820349999934e+01,1.343420028689999768e+00,2.600996494290000349e+00,4.900461137290000324e-01,0.000000000000000000e+00
7.202412310000000373e-01,2.521106842299999928e-01,1.340866326929999852e+00,-1.139313359400000181e+01,1.358453869819999937e+00,2.594862222670000218e+00,4.727892875670000050e-01,0.000000000000000000e+00
7.252851769999999476e-01,1.596505002630000114e-01,1.385084092709999881e+00,-1.155245555650000178e+01,1.378723025320000017e+00,2.577657938000000204e+00,4.456527233120000098e-01,0.000000000000000000e+00
7.300526170000000148e-01,-1.155301121759999966e-01,1.498820946529999976e+00,-1.169818504690000083e+01,1.390955090520000104e+00,2.539217710490000446e+00,4.425331056119999884e-01,0.000000000000000000e+00
7.351191120000000190e-01,-4.891720852249999973e-01,1.588064579609999916e+00,-1.183448152299999911e+01,1.401665329929999926e+00,2.488596200940000003e+00,4.557747542860000056e-01,0.000000000000000000e+00
7.401425329999999914e-01,-7.548642086269999885e-01,1.574961790800000205e+00,-1.194819558050000019e+01,1.397722363470000007e+00,2.460467576979999738e+00,4.660587608810000115e-01,0.000000000000000000e+00
7.450815610000000033e-01,-9.600020196819999407e-01,1.665683679729999866e+00,-1.199316051140000106e+01,1.382170438770000009e+00,2.406641960140000425e+00,4.779210686680000486e-01,0.000000000000000000e+00
7.501136320000000302e-01,-1.119372132099999861e+00,1.838388416949999993e+00,-1.200593582180000141e+01,1.371515989300000182e+00,2.380734443659999755e+00,5.217122435569999661e-01,0.000000000000000000e+00
7.551003259999999884e-01,-1.287264062210000004e+00,1.980040721049999952e+00,-1.218786475279999948e+01,1.341385364530000013e+00,2.336483955379999866e+00,5.798690915109999677e-01,0.000000000000000000e+00
7.601185350000000396e-01,-1.453310364460000059e+00,2.225720385849999872e+00,-1.233850072000000075e+01,1.334253072739999935e+00,2.272947311399999837e+00,6.122978925700000019e-01,0.000000000000000000e+00
7.652314679999999703e-01,-1.858125529209999849e+00,2.585712074009999917e+00,-1.266629591950000133e+01,1.324482560160000100e+00,2.217597723009999910e+00,6.747835874559999780e-01,0.000000000000000000e+00
7.700463549999999602e-01,-2.485793025400000023e+00,3.041211570199999770e+00,-1.293286829640000057e+01,1.360034108160000255e+00,2.162034034729999998e+00,7.378053665160000385e-01,0.000000000000000000e+00
7.750668939999999507e-01,-3.217057089669999925e+00,3.411393082329999604e+00,-1.322202893710000104e+01,1.381546974179999721e+00,2.141253471369999772e+00,7.809689640999999405e-01,0.000000000000000000e+00
7.800931450000000433e-01,-3.963044383550000216e+00,3.730404086930000140e+00,-1.335487790310000022e+01,1.437705874439999976e+00,2.182379722599999905e+00,8.407267332080000655e-01,0.000000000000000000e+00
7.850694110000000503e-01,-4.346071348730000672e+00,4.038784976449999675e+00,-1.335224755459999990e+01,1.477973580360000039e+00,2.259996891020000120e+00,8.891812562940000220e-01,0.000000000000000000e+00
7.901008090000000150e-01,-4.502095146390000302e+00,4.337779028940000003e+00,-1.322822486910000173e+01,1.496617913249999932e+00,2.347119092940000318e+00,9.420441389079999839e-01,0.000000000000000000e+00
7.950709670000000173e-01,-4.467682589180000718e+00,4.452964035739999993e+00,-1.298281919900000148e+01,1.550122618679999897e+00,2.422517061229999769e+00,9.721983075139999375e-01,0.000000000000000000e+00
8.000693690000000302e-01,-4.277905282739999926e+00,4.156637448889999753e+00,-1.263065411280000028e+01,1.558611273769999972e+00,2.491426706309999961e+00,1.024862885479999930e+00,0.000000000000000000e+00
8.052381859999999669e-01,-3.913988091700000282e+00,4.024595999840000715e+00,-1.207003449219999958e+01,1.539768815040000183e+00,2.504998922349999990e+00,1.077291011810000088e+00,0.000000000000000000e+00
8.101094589999999762e-01,-3.569142973139999953e+00,4.042726115290000699e+00,-1.159409455780000009e+01,1.481432914729999828e+00,2.475929737090000415e+00,1.160170555110000112e+00,0.000000000000000000e+00
8.152784060000000110e-01,-3.270145998040000279e+00,4.038998911459999341e+00,-1.109341531890000176e+01,1.416752576829999999e+00,2.390160799029999783e+00,1.219650149350000046e+00,0.000000000000000000e+00
8.202461540000000051e-01,-3.168065971999999952e+00,3.914612068809999901e+00,-1.070398930029999995e+01,1.335255861279999845e+00,2.279726028440000274e+00,1.292780876159999925e+00,0.000000000000000000e+00
8.252491280000000540e-01,-3.151984313510000302e+00,3.844878607370000090e+00,-1.034772671570000036e+01,1.240105748179999967e+00,2.153970479969999907e+00,1.391524672510000116e+00,0.000000000000000000e+00
8.300539209999999724e-01,-3.211351279240000078e+00,3.929738326280000305e+00,-1.002065281620000015e+01,1.151487827299999989e+00,2.009272336959999627e+00,1.524322032929999793e+00,0.000000000000000000e+00
8.351284030000000191e-01,-3.184590113560000102e+00,4.211336422809999647e+00,-9.646712536020000783e+00,1.057299256320000103e+00,1.867175698279999851e+00,1.637555480000000063e+00,0.000000000000000000e+00
8.401353000000000293e-01,-3.174841457489999907e+00,4.320736124199999750e+00,-9.376632443330001010e+00,9.054535627369999506e-01,1.701104640960000136e+00,1.741275310520000064e+00,0.000000000000000000e+00
8.450858270000000116e-01,-3.228757756590000305e+00,4.087831623690000526e+00,-9.218264420619998845e+00,7.699477076530000241e-01,1.581020474429999823e+00,1.863924145699999979e+00,0.000000000000000000e+00
8.501128329999999567e-01,-3.258002263519999886e+00,3.724454823140000315e+00,-9.006056086659999238e+00,6.125446557999999486e-01,1.407591581339999953e+00,2.006328582760000145e+00,0.000000000000000000e+00
8.551363680000000356e-01,-3.219269797279999956e+00,3.466731523189999997e+00,-8.948955896819999367e+00,4.123871922490000008e-01,1.259901404379999867e+00,2.142554759979999890e+00,0.000000000000000000e+00
8.601159139999999814e-01,-3.324831235690000053e+00,3.222736012079999934e+00,-8.871454723989998570e+00,1.956960707900000096e-01,1.084954619409999932e+00,2.280130147930000017e+00,0.000000000000000000e+00
8.652672909999999940e-01,-3.641202539440000052e+00,2.992568535320000223e+00,-8.921123302519999854e+00,3.461012383919999597e-04,9.391897320750000056e-01,2.434793472289999983e+00,0.000000000000000000e+00
8.702522139999999684e-01,-4.240701633500000511e+00,2.909654982049999727e+00,-9.132967479349998641e+00,-1.572820544239999785e-01,7.697996497149999229e-01,2.585970401760000037e+00,0.000000000000000000e+00
8.750856089999999865e-01,-4.851413318719999701e+00,2.933046086769999672e+00,-9.545250057369999652e+00,-2.344586700199999540e-01,6.253855228419999968e-01,2.770088911060000214e+00,0.000000000000000000e+00
8.801702519999999863e-01,-6.435571392399999979e+00,3.688205698149999989e+00,-1.050232340320000013e+01,-1.900231540200000013e-01,5.277794003490000607e-01,2.947965621949999893e+00,0.000000000000000000e+00
8.851280769999999576e-01,-8.615036076900000950e+00,4.921775433450000570e+00,-1.101323878940000078e+01,-4.241563007239999850e-02,5.548109412189999867e-01,3.092306137080000017e+00,0.000000000000000000e+00
8.901162200000000135e-01,-1.068064583419999991e+01,6.194259129029999755e+00,-1.058106317789999906e+01,2.116248011589999811e-01,6.632612347599999847e-01,3.169514179229999673e+00,0.000000000000000000e+00
8.950875440000000127e-01,-1.124762622190000094e+01,7.011539388750000157e+00,-1.006226376040000048e+01,5.325780510900000042e-01,8.688853383059998992e-01,3.146143198009999864e+00,0.000000000000000000e+00
9.002486349999999637e-01,-1.107332413249999981e+01,7.821462855980000128e+00,-8.830390892200000508e+00,9.367351531980000479e-01,1.218645334239999878e+00,3.048162937159999419e+00,0.000000000000000000e+00
9.052671899999999994e-01,-9.820127905730000606e+00,7.029067446660000051e+00,-7.797543051210000797e+00,1.330451607699999927e+00,1.604465603829999809e+00,2.943638324740000201e+00,0.000000000000000000e+00
9.101076890000000530e-01,-7.875897626000000429e+00,5.305305379709999158e+00,-7.184856558789999070e+00,1.623950362210000220e+00,1.810363769529999889e+00,2.806248426439999832e+00,0.000000000000000000e+00
9.150926139999999709e-01,-6.097183487159999693e+00,3.282189194790000375e+00,-6.436636975809999939e+00,1.766315460209999966e+00,1.869902372359999676e+00,2.657227277760000117e+00,0.000000000000000000e+00
9.201642829999999718e-01,-4.818708442209999276e+00,1.432676303359999848e+00,-5.858312187190000131e+00,1.713100910189999881e+00,1.713542938229999812e+00,2.544471025470000036e+00,0.000000000000000000e+00
9.252877040000000441e-01,-4.016427014169999588e+00,1.128752868180000063e-01,-5.623890852380000638e+00,1.480019807819999977e+00,1.392678380010000216e+00,2.394363164900000118e+00,0.000000000000000000e+00
9.302754850000000131e-01,-3.990813264959999884e+00,-2.709973536710000297e-01,-5.682468129030000092e+00,1.117342829700000095e+00,1.046209812160000086e+00,2.270032167430000136e+00,0.000000000000000000e+00
9.352468160000000363e-01,-4.462576498209999798e+00,-1.902155700000000005e-01,-5.795083285340000501e+00,6.823337674139999809e-01,7.663189172740000332e-01,2.082836866379999652e+00,0.000000000000000000e+00
9.402953120000000498e-01,-5.238211619130000329e+00,2.500883480900000233e-01,-5.920087383110000268e+00,2.940100729469999896e-01,5.578754544259999504e-01,1.933313846590000162e+00,0.000000000000000000e+00
9.450806000000000484e-01,-5.892491520169999220e+00,9.324125134240000001e-01,-5.939964049969999493e+00,-1.297456678000000023e-02,4.383291602130000020e-01,1.812395930290000123e+00,0.000000000000000000e+00
9.501054740000000054e-01,-6.395527551310000725e+00,1.734878065860000040e+00,-5.897100475269999365e+00,-2.381132990120000126e-01,4.362743198870000505e-01,1.721297979350000062e+00,0.000000000000000000e+00
9.552417669999999639e-01,-6.849769448650000037e+00,2.282734504840000067e+00,-5.845190255290000358e+00,-3.434644341470000084e-01,3.688974082469999582e-01,1.655636668210000106e+00,0.000000000000000000e+00
9.602587289999999776e-01,-7.134764201889998603e+00,2.722114640880000103e+00,-5.924844222239999958e+00,-3.635069429869999813e-01,3.250111639500000149e-01,1.569521665570000168e+00,0.000000000000000000e+00
9.652630269999999957e-01,-7.468719093119998931e+00,2.965122309989999927e+00,-6.045241702990000299e+00,-3.236002326010000152e-01,2.468774616720000037e-01,1.453003406520000151e+00,0.000000000000000000e+00
9.700088329999999592e-01,-7.898786918679999935e+00,2.907539597330000003e+00,-6.140916245900000625e+00,-2.459553331140000021e-01,2.034288048740000021e-01,1.336396813389999938e+00,0.000000000000000000e+00
9.750737019999999866e-01,-8.367240296729999471e+00,2.707022285689999919e+00,-6.295078633609999308e+00,-1.596775054929999993e-01,1.953212469819999852e-01,1.195176482199999946e+00,0.000000000000000000e+00
9.800711530000000282e-01,-8.793638493859999627e+00,2.387104833760000044e+00,-6.333623760580000983e+00,-9.668190032239999676e-02,2.078404128550000174e-01,1.045629024509999949e+00,0.000000000000000000e+00
9.851087950000000371e-01,-8.947343785450000198e+00,1.940705174350000117e+00,-6.276284501290001039e+00,-9.180160611870000209e-02,2.276019453999999775e-01,9.239416718480000235e-01,0.000000000000000000e+00
9.903774659999999841e-01,-8.715037835349999540e+00,1.360932232749999971e+00,-6.115578391019999671e+00,-1.652083396910000168e-01,2.577325403690000072e-01,7.823368906970000758e-01,0.000000000000000000e+00
9.950373439999999903e-01,-8.316367603099999783e+00,7.859583620059999998e-01,-5.864326917439999676e+00,-2.738534212110000365e-01,3.204799592489999682e-01,6.418969035149999502e-01,0.000000000000000000e+00
1.000123493999999891e+00,-7.851505527539999640e+00,4.950883235310000186e-01,-5.615252203369999862e+00,-4.141413867470000176e-01,2.998887896540000098e-01,4.918941259380000264e-01,0.000000000000000000e+00
1.005239047999999968e+00,-7.294962362629999753e+00,4.220219548099999884e-01,-5.303138557069999592e+00,-5.450224280359999840e-01,2.229667603970000023e-01,3.451022803780000037e-01,0.000000000000000000e+00
1.010098600999999929e+00,-6.986711821489999252e+00,3.648838075810000303e-01,-5.028821849719999015e+00,-6.685398221019999143e-01,6.434129178519999714e-02,2.159375548360000230e-01,0.000000000000000000e+00
1.015276443999999945e+00,-6.980638639060000372e+00,1.821708682969999937e-01,-4.940468443480000360e+00,-7.419841885569999906e-01,-7.979497313500000244e-02,1.265817880629999947e-01,0.000000000000000000e+00
1.020233815000000099e+00,-7.008045701419999496e+00,1.378769411409999923e-01,-4.991357503719999755e+00,-7.620527744289999905e-01,-2.746175229549999708e-01,2.981192804870000032e-02,0.000000000000000000e+00
1.025285919999999962e+00,5.473224490090000671e+00,-5.701134835580000448e+00,-1.519615225079999909e+01,-1.196292400359999952e+00,-8.015200495719999874e-02,-2.341085970400000049e-01,0.000000000000000000e+00
1.030285751000000083e+00,-2.141423415399999808e+00,-2.043562322230000117e+00,-6.341721726840000350e+00,-1.538535833359999883e+00,-1.679696798320000184e+00,1.120243668559999933e-01,0.000000000000000000e+00
1.035270705000000069e+00,-4.790402385180000167e+00,-7.483194193200000122e+00,-6.795414758130000621e-01,-1.835721492770000074e+00,-1.419223427769999990e+00,3.152363002300000074e-03,0.000000000000000000e+00
1.040135932999999957e+00,1.619877767970000271e+00,-7.318692197779999908e+00,-8.504865391130000063e+00,-2.077895164490000113e+00,-1.449834346770000115e+00,3.081246316429999688e-01,0.000000000000000000e+00
1.045075605000000074e+00,6.924051074919999493e+00,-6.591805910210000619e+00,-1.468962896210000046e+01,-2.273754358290000166e+00,-1.673525452610000075e+00,6.050610542300000061e-01,0.000000000000000000e+00
1.050108569999999908e+00,7.988023537489999271e+00,-2.967400484059999677e+00,-1.317095224530000053e+01,-2.298949480059999662e+00,-1.237764477729999868e+00,5.162293314929999877e-01,0.000000000000000000e+00
1.055232744000000000e+00,1.004078374999999923e+01,-4.827622108759999975e+00,-1.526877558849999872e+01,-2.162967443469999917e+00,-1.176424860950000095e+00,3.306640088560000024e-01,0.000000000000000000e+00
1.060249613000000091e+00,1.079438677959999993e+01,-8.700577640590000383e-01,-1.261491761450000126e+01,-2.138420104979999792e+00,-1.426445007319999903e+00,-3.592927753930000301e-02,0.000000000000000000e+00
1.065277846999999944e+00,7.868387104239999097e+00,9.780359995500000070e-02,-9.693851303819998932e+00,-2.101516008379999967e+00,-1.977891445159999817e+00,-3.210544884199999505e-01,0.000000000000000000e+00
1.070272185000000098e+00,2.887978572300000213e+00,1.180034033010000094e+00,-9.743946583330000522e+00,-1.977088093759999943e+00,-2.755842447280000052e+00,-6.147468686100000523e-01,0.000000000000000000e+00
1.075182257000000030e+00,-4.639708258099999760e+00,2.414018705779999774e+00,-1.085425935680000009e+01,-1.676953196529999968e+00,-3.441119194030000550e+00,-6.877745389939999843e-01,0.000000000000000000e+00
1.080135072000000029e+00,-8.406953882959999902e+00,5.946537583140000471e+00,-1.337886317440000106e+01,-1.359565615650000003e+00,-3.909665584559999907e+00,-8.880365490909999382e-01,0.000000000000000000e+00
1.085042799000000002e+00,-1.245030339079999848e+01,8.359388998710000962e+00,-1.590112773529999934e+01,-9.993096590039999283e-01,-3.888377189639999898e+00,-8.743131160739999741e-01,0.000000000000000000e+00
1.090116494999999963e+00,-1.121915416069999871e+01,8.132760509720000641e+00,-1.655961619400000018e+01,-7.260337471960001121e-01,-3.718707084659999662e+00,-8.684659004210000255e-01,0.000000000000000000e+00
1.095069690000000096e+00,-1.035461822879999971e+01,7.145345217130000925e+00,-1.365339440119999814e+01,-2.101271897549999990e-01,-2.838233470920000112e+00,-6.190142631530000106e-01,0.000000000000000000e+00
1.100117430999999923e+00,-1.113086563640000115e+01,5.306330631109999807e+00,-1.307949561240000058e+01,-1.638299226759999949e-01,-1.313404917720000231e+00,3.322492912410000138e-02,0.000000000000000000e+00
1.105237752999999934e+00,-3.864750598060000097e+00,4.585951825730000486e+00,-1.169329376770000017e+01,-4.925844818350000320e-02,-7.720637917520000171e-01,4.834840893749999813e-01,0.000000000000000000e+00
1.110089659000000006e+00,-2.668556945949999815e+00,3.452830715869999345e+00,-1.068646533409999932e+01,-1.011329069729999947e-01,-3.320709168909999898e-01,6.530563831329999624e-01,0.000000000000000000e+00
1.115287922000000043e+00,-7.652214981209999323e-01,1.639609473399999962e+00,-9.678926706409999525e+00,-6.846982985730000471e-02,-7.101492285730000020e-01,6.539250016209999794e-01,0.000000000000000000e+00
1.120255353999999981e+00,9.552249414729999111e-02,1.374016170729999819e+00,-9.867213482030001259e+00,3.880626708269999808e-02,-1.279073715210000017e+00,3.745812773699999654e-01,0.000000000000000000e+00
1.125264797999999900e+00,-4.262284665889999880e-01,-7.439759540620000111e-01,-9.643006667239999885e+00,2.459586411709999837e-02,-1.691647768020000164e+00,2.388507127760000071e-01,0.000000000000000000e+00
1.130265980999999975e+00,-8.510614602310000443e-01,-1.985603469740000016e+00,-9.484760809610000010e+00,3.602434415369999959e-03,-1.931339025500000028e+00,1.542380154130000014e-01,0.000000000000000000e+00
1.135090450000000084e+00,-2.372126314209999531e+00,-1.983185887199999886e+00,-9.499522325410000079e+00,-3.959797788409999755e-03,-1.946831583980000113e+00,1.445715725420000097e-01,0.000000000000000000e+00
1.140132342000000021e+00,-2.674474937819999898e+00,-1.727689031130000163e+00,-1.039745433100000049e+01,-6.922869384289999373e-02,-1.830267190929999899e+00,6.126677617430000694e-02,0.000000000000000000e+00
1.145097763999999962e+00,-3.416577499229999759e+00,-1.392493492189999849e+00,-1.071240407750000045e+01,-1.361760050059999949e-01,-1.612168550489999852e+00,-1.535985851660000030e-03,0.000000000000000000e+00
1.150123494000000024e+00,-5.159799176669999987e+00,-2.489404493899999959e+00,-1.092018758069999862e+01,-2.403317838909999893e-01,-1.323883533479999874e+00,8.732612431050000568e-02,0.000000000000000000e+00
1.155182353000000051e+00,-4.154034572919999668e+00,-2.177471172590000226e+00,-1.102426404130000037e+01,-3.010320663450000156e-01,-1.170292973520000057e+00,1.692927479740000130e-01,0.000000000000000000e+00
1.160020518999999917e+00,-3.379983214070000130e+00,-1.407365190369999963e+00,-1.071128530260000034e+01,-3.855856955049999923e-01,-1.111762046810000015e+00,1.687275916340000292e-01,0.000000000000000000e+00
1.165090192999999941e+00,-2.892592495830000221e+00,-9.775238670429999832e-01,-1.065970475289999975e+01,-4.587538540359999972e-01,-1.152810096739999901e+00,9.067384153599999941e-02,0.000000000000000000e+00
1.170262786000000110e+00,-2.498667704540000312e+00,-8.273884698289999395e-01,-1.101252450359999813e+01,-5.503344535830000384e-01,-1.248501181600000010e+00,1.876961812379999983e-02,0.000000000000000000e+00
1.175109484000000037e+00,-3.225919610560000095e+00,-1.975725780459999692e+00,-1.105841882430000034e+01,-6.495084166529999647e-01,-1.260763049129999924e+00,-6.436963099989999326e-03,0.000000000000000000e+00
1.180082397000000061e+00,-4.128646449159999676e+00,-1.687026473620000244e+00,-1.086517588759999953e+01,-6.854826211929999635e-01,-1.175580859179999882e+00,3.730807453389999723e-02,0.000000000000000000e+00
1.185074165999999929e+00,-4.180924333409999250e+00,-7.755789337450000875e-01,-1.045734911989999993e+01,-7.530032396319999988e-01,-1.035354018210000060e+00,5.677204206590000246e-02,0.000000000000000000e+00
1.190095654000000058e+00,-4.008229971449999596e+00,1.122700509339999986e-01,-1.032022729889999901e+01,-7.455010414120000206e-01,-8.525336384770000331e-01,8.355216681960001002e-02,0.000000000000000000e+00
1.195186029000000039e+00,-3.659918638080000175e+00,6.207916190719999783e-01,-1.001795466309999938e+01,-7.218503952029999837e-01,-7.283680438999999840e-01,4.683143272999999718e-02,0.000000000000000000e+00
1.200181573000000057e+00,-3.385357892840000549e+00,1.094985440470000126e+00,-9.933983417489999468e+00,-6.846418380740000309e-01,-6.686685085300000386e-01,3.077449090779999646e-02,0.000000000000000000e+00
1.205236677999999895e+00,-3.326637408329999879e+00,1.308293990759999970e+00,-1.027494789520000040e+01,-6.060740351679999582e-01,-6.708166003230000562e-01,1.630952954289999896e-02,0.000000000000000000e+00
1.210253054999999911e+00,-3.543511980530000383e+00,1.245262365049999875e+00,-1.009030093740000034e+01,-5.379700660710000637e-01,-6.850116252900000369e-01,-1.808558590709999673e-04,0.000000000000000000e+00
1.215286472000000062e+00,-3.677819913210000013e+00,1.563988415230000095e+00,-9.844076936600000494e+00,-4.210655689239999888e-01,-6.532164812089999995e-01,2.360118739309999616e-02,0.000000000000000000e+00
1.220250698999999939e+00,-3.579840015980000345e+00,1.692740467350000166e+00,-1.007145945879999971e+01,-3.595730662349999607e-01,-5.959430932999999486e-01,1.397588476539999951e-02,0.000000000000000000e+00
1.225050999999999890e+00,-3.654159051640000211e+00,1.754438214109999894e+00,-9.960368735589998579e+00,-3.285788893700000157e-01,-4.823423326019999902e-01,3.104382939640000158e-02,0.000000000000000000e+00
1.230070589999999964e+00,-3.363619816019999931e+00,1.740067889580000138e+00,-1.000460652119999949e+01,-3.005157411099999565e-01,-3.696157038210000079e-01,2.780219353740000232e-02,0.000000000000000000e+00
1.235266838000000034e+00,-3.147767572599999841e+00,1.462663153089999835e+00,-9.953437475030000314e+00,-2.736882567410000022e-01,-3.086076080800000399e-01,1.383225060999999922e-02,0.000000000000000000e+00
1.240246399000000110e+00,-2.951713670099999742e+00,1.130388762289999960e+00,-9.894157603060001804e+00,-2.262443304060000049e-01,-2.659912109379999889e-01,3.122389502819999940e-02,0.000000000000000000e+00
1.245089859999999993e+00,-2.760352601600000177e+00,1.080797267579999943e+00,-9.659114336960001879e+00,-1.973412632939999800e-01,-2.672432065009999747e-01,1.926052756609999972e-02,0.000000000000000000e+00
1.250132358999999971e+00,-2.820073495329999957e+00,9.978424324510000165e-01,-9.633922612550000153e+00,-1.629380285739999989e-01,-2.806660532949999953e-01,2.490157075230000142e-02,0.000000000000000000e+00
1.255107756999999991e+00,-2.913840451040000445e+00,7.002678183040000892e-01,-9.722631992620000219e+00,-1.165676787500000006e-01,-2.881590127939999690e-01,-1.741929212589999991e-03,0.000000000000000000e+00
1.260089338000000003e+00,-2.926767152630000091e+00,6.820318313240000263e-01,-9.622850014400000873e+00,-9.583891183139998937e-02,-3.020691275599999837e-01,-1.202480867509999989e-02,0.000000000000000000e+00
1.265258151000000053e+00,-2.851870024819999738e+00,5.690077654190000001e-01,-9.587727847610000964e+00,-8.435536921019999579e-02,-2.535878717900000301e-01,-1.396235264840000115e-02,0.000000000000000000e+00
1.270187084000000022e+00,-2.799391065040000015e+00,4.049262604389999853e-01,-9.554918633939999850e+00,-6.934660673140000120e-02,-2.133386433120000036e-01,-1.175391674039999966e-02,0.000000000000000000e+00
1.275253677999999891e+00,-2.759166022159999621e+00,2.274504911549999897e-01,-9.568954173559999887e+00,-9.093859046700000781e-02,-1.806066781280000200e-01,-1.267913728949999867e-02,0.000000000000000000e+00
1.280054311000000000e+00,-2.759322966290000068e+00,1.671827771970000043e-01,-9.644794719700000130e+00,-1.060585230590000011e-01,-1.461631506680000081e-01,5.944062490020001095e-03,1.000000000000000000e+00
1.285043141999999916e+00,-2.788932799389999939e+00,2.745697139980000090e-01,-9.639629884279999672e+00,-1.199577972289999905e-01,-1.436268836260000126e-01,-1.533430302520000059e-03,1.000000000000000000e+00
1.290068240999999949e+00,-2.929846998469999964e+00,3.888650967480000165e-01,-9.525793661749998975e+00,-1.203238591550000042e-01,-1.556963473559999922e-01,1.882108859720000096e-02,0.000000000000000000e+00
1.295070522000000057e+00,-3.040425388259999639e+00,5.137608387650000052e-01,-9.609086861980001615e+00,-1.129784211520000053e-01,-1.680778712029999955e-01,-7.223536726089999777e-03,1.000000000000000000e+00
1.300044095000000066e+00,-3.001547083809999794e+00,6.184868492610000601e-01,-9.563706920560001379e+00,-1.038020774719999872e-01,-1.555785834789999988e-01,-4.615347832439999423e-03,1.000000000000000000e+00
1.305234382000000082e+00,-2.734356867340000274e+00,4.973400845139999693e-01,-9.432263729660000706e+00,-1.044415757059999894e-01,-1.335162669420000003e-01,-1.830243505540000114e-03,1.000000000000000000e+00
1.310064568000000040e+00,-2.593914961939999930e+00,5.946386484229999603e-01,-9.530245964980000650e+00,-9.829598665239999700e-02,-8.394519984719998884e-02,3.136400599030000208e-03,1.000000000000000000e+00
1.315271281000000014e+00,-2.534405372879999785e+00,7.470547769850001130e-01,-9.482112925450000063e+00,-8.723046630619998854e-02,-4.122391343120000023e-02,1.380900852379999752e-02,1.000000000000000000e+00
1.320240485000000019e+00,-2.338056286830000108e+00,5.150200450460000745e-01,-9.430302658720000508e+00,-1.021927371620000025e-01,-5.245773121709999820e-02,6.326702423389999946e-04,1.000000000000000000e+00
1.325284482000000041e+00,-2.395500321659999710e+00,5.211598995080000130e-01,-9.554937338640000277e+00,-1.135716512799999911e-01,-6.317616254089999939e-02,5.043327808380000318e-03,1.000000000000000000e+00
1.330265521999999923e+00,-2.388248889229999783e+00,6.208101045770000326e-01,-9.598860651519999010e+00,-1.075941547749999921e-01,-8.139143139119998926e-02,-1.054587401450000038e-02,1.000000000000000000e+00
1.335089793999999941e+00,-2.585230427970000022e+00,6.685422351540000196e-01,-9.513187278150001092e+00,-1.116436272859999967e-01,-9.514202177519999470e-02,-1.118358597160000120e-02,1.000000000000000000e+00
1.340103757999999923e+00,-2.613537069520000422e+00,7.818412090100000933e-01,-9.487150335099999054e+00,-1.114398986099999905e-01,-1.211634799840000110e-01,-7.968947291369999839e-03,1.000000000000000000e+00
1.345134263000000052e+00,-2.547977386629999952e+00,7.854216247799999939e-01,-9.456995435330000532e+00,-1.051901727910000139e-01,-1.196719035510000056e-01,-2.732677385210000379e-03,1.000000000000000000e+00
1.350121606999999946e+00,-2.616853354459999892e+00,8.136686451000000320e-01,-9.538608135129999610e+00,-1.025005355479999963e-01,-1.006521508100000073e-01,-2.024618536229999891e-02,0.000000000000000000e+00
1.355262871000000091e+00,-2.808507852960000051e+00,1.002813425799999880e+00,-9.461597376169999407e+00,-1.041995808479999897e-01,-1.026077419519999950e-01,-1.707016862929999768e-02,0.000000000000000000e+00
1.360232295999999952e+00,-2.825715885130000160e+00,9.381284799179999689e-01,-9.394270975870000484e+00,-9.073039144279999857e-02,-9.056205302480001273e-02,-2.693051658570000048e-02,0.000000000000000000e+00
1.365252388999999900e+00,-2.671291339350000182e+00,5.684233896600000557e-01,-9.308754254360001923e+00,-8.604215830560001110e-02,-8.606522530320000197e-02,-4.158486798410000046e-02,0.000000000000000000e+00
1.370238440999999918e+00,-2.540721716420000220e+00,3.120395216219999934e-01,-9.329783598389999710e+00,-4.902434349059999613e-02,-7.202432304619998948e-02,-5.664836987849999894e-02,1.000000000000000000e+00
1.375249925999999956e+00,-2.374152851599999892e+00,2.721237273519999667e-01,-9.455050146479999640e+00,-3.447546809910000121e-02,-6.312582641839999120e-02,-4.735315591099999860e-02,0.000000000000000000e+00
1.380049668999999923e+00,-2.252042137190000126e+00,6.289568784139999424e-01,-9.707408704530001486e+00,-4.107579961419999259e-02,-5.792306736109999882e-02,-7.149375975129999838e-02,1.000000000000000000e+00
1.385037169999999929e+00,-2.384897679109999835e+00,1.010047834029999869e+00,-9.695330728720000124e+00,-4.575076699260000046e-02,-8.109974861150000269e-02,-7.840055972339998736e-02,0.000000000000000000e+00
1.390073158999999947e+00,-2.602045076909999644e+00,8.308727317479999153e-01,-9.439807569160000966e+00,-5.811668187380000100e-02,-1.177496090530000122e-01,-6.017780676480000146e-02,0.000000000000000000e+00
1.395068041999999897e+00,-2.733709217079999920e+00,5.164869757929999583e-01,-9.412470649430000336e+00,-5.209457129239999928e-02,-1.030181944370000130e-01,-5.853310972450000149e-02,1.000000000000000000e+00
1.400001706999999929e+00,-2.865463665889999678e+00,2.963094530490000267e-01,-9.457627888010001982e+00,-3.757117316130000051e-02,-9.643745422360000541e-02,-2.760753780600000082e-02,1.000000000000000000e+00
1.405092835000000040e+00,-2.769901058929999937e+00,4.058133089389999726e-01,-9.432184819199999737e+00,-3.672911971810000065e-02,-8.907411247490000517e-02,-2.434592694040000130e-02,1.000000000000000000e+00
1.410244269999999966e+00,-2.862079868669999971e+00,4.294360304579999954e-01,-9.485985967489998671e+00,-3.129954636099999826e-02,-7.625254988669999401e-02,-1.668670214710000002e-02,1.000000000000000000e+00
1.415234405999999945e+00,-2.881104887129999792e+00,4.467199774100000242e-01,-9.558325227519999245e+00,-6.148330494760000098e-02,-6.231801956889999883e-02,-9.051144123079999868e-03,1.000000000000000000e+00
1.420212486999999912e+00,-2.773347984509999531e+00,5.110121611110000073e-01,-9.513723284719999285e+00,-2.872629091140000215e-02,-6.341256946330001143e-02,-1.001998037099999933e-02,1.000000000000000000e+00
1.425103567000000071e+00,-2.597434952760000026e+00,5.077751884839999397e-01,-9.398632678210001146e+00,-3.324152901770000001e-02,-6.957162171599999556e-02,-5.980888381600000039e-03,1.000000000000000000e+00
1.430131005000000011e+00,-2.410862433709999753e+00,4.596132151219999851e-01,-9.531033315969999364e+00,-3.865559026599999642e-02,-5.896652117369999974e-02,-7.981156930330000204e-03,1.000000000000000000e+00
1.435108494999999929e+00,-2.427123248160000024e+00,4.407222348329999928e-01,-9.660352938839999126e+00,-3.894781693820000001e-02,-8.748101443050000647e-02,-1.176371425389999975e-02,1.000000000000000000e+00
1.440089759999999997e+00,-2.637883283009999857e+00,3.800571555879999619e-01,-9.325241278789999200e+00,-4.556147381659999412e-02,-1.045656949279999970e-01,-2.648827387020000115e-03,1.000000000000000000e+00
1.445066646999999982e+00,-2.541960318300000132e+00,1.659182006219999950e-01,-9.428944229839999025e+00,-7.238417118789999827e-02,-1.159627586599999843e-01,3.873865585769999988e-03,1.000000000000000000e+00
1.450121827000000030e+00,-2.343366229799999978e+00,2.166880731929999859e-01,-9.540388588809999959e+00,-6.430269032719999889e-02,-1.296882629389999875e-01,-5.175943486390000015e-03,1.000000000000000000e+00
1.455094832999999976e+00,-2.477285893819999973e+00,3.621206995440000020e-01,-9.547869299949999444e+00,-9.023740887639999930e-02,-1.211536154149999989e-01,-2.712816931309999769e-04,1.000000000000000000e+00
1.460241708000000083e+00,-2.607192961189999991e+00,5.274258280349999328e-01,-9.622768181330000559e+00,-7.608372718099999654e-02,-1.291677951810000224e-01,-1.693858951329999668e-02,1.000000000000000000e+00
1.465116265000000029e+00,-2.776704601459999644e+00,7.938939042450000594e-01,-9.525048396339999002e+00,-9.576661139730001382e-02,-1.524902135129999892e-01,3.028609789909999855e-04,1.000000000000000000e+00
1.470243474999999966e+00,-2.870899719459999666e+00,1.024098936539999949e+00,-9.508379001089998894e+00,-8.071862161160001103e-02,-1.766162514689999796e-01,-4.459267482159999692e-03,1.000000000000000000e+00
1.475249019999999911e+00,-3.078744013000000113e+00,1.131406195699999895e+00,-9.427905534449999791e+00,-5.698775127530000123e-02,-1.617793887850000056e-01,-9.670269675550000055e-03,1.000000000000000000e+00
1.480096985000000087e+00,-2.859498620000000102e+00,8.866242103910000338e-01,-9.435641681659999946e+00,-1.476198062300000148e-02,-1.436691731209999989e-01,-2.473938511679999765e-03,1.000000000000000000e+00
1.485234785999999918e+00,-2.735583778780000141e+00,8.612292915670000104e-01,-9.575839841419998777e+00,1.023567747320000120e-03,-1.365988403559999786e-01,-2.760533243420000213e-03,1.000000000000000000e+00
1.490124108000000058e+00,-2.543682612050000014e+00,8.641727976729999261e-01,-9.716704356139999277e+00,1.151190977539999841e-02,-1.563793867830000073e-01,-1.624740287660000199e-02,1.000000000000000000e+00
1.495091404999999929e+00,-2.530965461559999685e+00,9.800829769410001058e-01,-9.637665890739999242e+00,1.321283355359999939e-02,-1.498345583679999982e-01,-1.442216336729999944e-02,1.000000000000000000e+00
1.500093136999999910e+00,-2.728092838500000283e+00,9.219547592299999206e-01,-9.556830020519999636e+00,1.688686944540000040e-02,-1.777102798219999946e-01,-3.921501338480000085e-03,1.000000000000000000e+00
1.505097954000000016e+00,-2.668109786709999653e+00,8.708641120049999129e-01,-9.533768293889998802e+00,2.163249254229999974e-02,-2.028077393770000014e-01,-3.610117360949999851e-03,1.000000000000000000e+00
1.510097558000000006e+00,-2.671689983279999847e+00,9.785614664630000181e-01,-9.478325808130000141e+00,4.163214191790000351e-02,-2.104225158689999875e-01,-2.491388656200000176e-02,1.000000000000000000e+00
1.515124117999999909e+00,-2.875251484929999712e+00,9.549271275709999562e-01,-9.385472167859999715e+00,4.670576751230000323e-02,-2.073327153920000165e-01,-1.937085948880000116e-02,1.000000000000000000e+00
1.520054309999999909e+00,-2.899487223780000011e+00,6.302057094320000497e-01,-9.404421783010000979e+00,4.845979064699999783e-02,-2.222464382649999848e-01,-2.549413405359999760e-02,1.000000000000000000e+00
1.525122196000000097e+00,-3.021620150020000395e+00,6.149922851439999505e-01,-9.438076215329999741e+00,4.734000191090000087e-02,-2.016339600089999962e-01,-4.641478881239999993e-02,1.000000000000000000e+00
1.530104248000000000e+00,-2.768012760959999596e+00,7.338184249240000678e-01,-9.473369062499999771e+00,4.520098119969999384e-02,-2.104553580280000002e-01,-5.355023592709999558e-02,1.000000000000000000e+00
1.535103077000000038e+00,-2.720520065159999668e+00,6.985346378360000053e-01,-9.532624969069999565e+00,5.909828096630000832e-02,-2.219335436819999952e-01,-4.561873897910000142e-02,1.000000000000000000e+00
1.540074350999999897e+00,-2.566007548840000041e+00,3.961075421559999699e-01,-9.513937804260001130e+00,5.507234856490000191e-02,-2.372842282059999808e-01,-5.056708306069999936e-02,1.000000000000000000e+00
1.545130461999999927e+00,-2.448246407949999703e+00,3.284161079380000237e-01,-9.599712299920000191e+00,5.146271735430000410e-02,-2.637409269809999901e-01,-6.735925376420000277e-02,1.000000000000000000e+00
1.550118960999999906e+00,-2.386371258790000116e+00,3.788335686089999710e-01,-9.631237903510001530e+00,3.592576086519999601e-02,-2.879634499550000060e-01,-5.059175565840000333e-02,1.000000000000000000e+00
1.555105584000000096e+00,-2.452636605729999975e+00,4.364235147249999613e-01,-9.638998016120000401e+00,1.333363633599999980e-02,-3.446191251280000256e-01,-7.987692207100000052e-02,1.000000000000000000e+00
1.560098946999999958e+00,-2.591255387349999939e+00,4.663356187129999442e-01,-9.646780925079999847e+00,-1.095002889629999830e-02,-3.687051534650000462e-01,-7.290061563249999876e-02,1.000000000000000000e+00
1.565102852000000100e+00,-2.615354348079999891e+00,3.788770058919999628e-01,-9.609594811510000056e+00,-1.820855308319999869e-03,-3.835105299950000157e-01,-8.780663460489999961e-02,1.000000000000000000e+00
1.570213051999999943e+00,-2.713660408530000012e+00,3.128612498019999744e-01,-9.705052496789999594e+00,-1.505035813899999880e-02,-4.011908173560000401e-01,-8.550748229030000203e-02,1.000000000000000000e+00
1.575120400000000087e+00,-2.534384914609999928e+00,-2.164008902820000191e-01,-9.781454768470000616e+00,-2.935608662659999757e-02,-4.199185967450000390e-01,-1.069640368219999943e-01,1.000000000000000000e+00
1.580113850999999903e+00,-2.797378263920000219e+00,1.633135162819999986e-01,-9.683736152510000750e+00,-7.116351276639999723e-02,-4.285084009170000430e-01,-8.186147361989999649e-02,1.000000000000000000e+00
1.585086573999999970e+00,-2.822833315430000045e+00,6.177706638159999875e-01,-9.557910216979999873e+00,-9.899630397559999739e-02,-4.449928104879999902e-01,-6.901548802849999387e-02,1.000000000000000000e+00
1.590251904000000049e+00,-2.964261016990000108e+00,7.614918831389999587e-01,-9.513496490230000546e+00,-1.060259789230000027e-01,-4.642023146149999446e-01,-6.932926923040000355e-02,1.000000000000000000e+00
1.595234923000000027e+00,-3.104128629619999913e+00,1.011863285950000080e+00,-9.372435576160000892e+00,-8.878285437820000736e-02,-4.748665392399999408e-01,-7.657650113109999712e-02,1.000000000000000000e+00
1.600118385999999893e+00,-3.069556497929999850e+00,1.242396308090000012e+00,-9.370126714690000469e+00,2.815008163449999982e-03,-4.744970202449999563e-01,-6.683270633219999535e-02,0.000000000000000000e+00
1.605077223000000108e+00,-2.960519200109999804e+00,1.402909233869999994e+00,-9.611568741930000215e+00,8.589056134220000860e-02,-4.917340874669999806e-01,-6.241261959080000171e-02,0.000000000000000000e+00
1.610134643000000088e+00,-2.733592897229999874e+00,1.438391466139999908e+00,-9.830917010769999465e+00,1.480612307789999915e-01,-5.071472525600000392e-01,-7.679124921560000205e-02,0.000000000000000000e+00
1.615115861000000042e+00,-2.672642169439999993e+00,1.274207742900000051e+00,-9.922719680680000209e+00,1.961279660460000240e-01,-5.249348282810000210e-01,-6.095036864280000549e-02,0.000000000000000000e+00
1.620077216000000098e+00,-2.475763506559999882e+00,1.068823263599999907e+00,-1.010693526130000031e+01,2.511611878869999814e-01,-5.793599486349999550e-01,-8.998840302230000365e-02,0.000000000000000000e+00
1.625107225999999905e+00,-2.524996031760000204e+00,9.796381557829999531e-01,-1.023220064040000032e+01,3.016259074209999835e-01,-6.498436331750000461e-01,-8.246199041599999724e-02,0.000000000000000000e+00
1.630131943999999944e+00,-2.457536068209999591e+00,1.073082382349999975e+00,-1.027136360699999962e+01,3.402545154089999802e-01,-7.342121005060000538e-01,-8.268258720639999615e-02,0.000000000000000000e+00
1.635111396999999966e+00,-2.463574763850000071e+00,9.151853381600000281e-01,-1.025573699879999978e+01,3.712065219879999711e-01,-8.114662766460000176e-01,-1.033164262769999953e-01,0.000000000000000000e+00
1.640079049999999983e+00,-2.512534609590000301e+00,8.204514371070000811e-01,-1.035675874799999896e+01,4.124131798740000021e-01,-8.675493001940000060e-01,-1.143526434900000166e-01,0.000000000000000000e+00
1.645095887999999951e+00,-2.326434238090000051e+00,8.173606314849999332e-01,-1.064324461650000053e+01,4.399864673610000554e-01,-9.284541010860000165e-01,-1.331533789630000020e-01,0.000000000000000000e+00
1.650111246999999892e+00,-2.337712003430000074e+00,6.607659020639999881e-01,-1.087377420460000010e+01,4.785121977330000220e-01,-1.026927828789999886e+00,-1.417707204820000122e-01,0.000000000000000000e+00
1.655075540999999983e+00,-2.360575577150000104e+00,7.268281276450000439e-01,-1.092630869400000115e+01,4.788559675219999923e-01,-1.104824662209999975e+00,-1.248332411050000063e-01,0.000000000000000000e+00
1.660254493000000053e+00,-2.431357524730000108e+00,1.009747755100000033e+00,-1.098825515480000092e+01,4.740180969239999875e-01,-1.215135812760000045e+00,-1.222121343019999945e-01,0.000000000000000000e+00
1.665104461000000091e+00,-2.302213258420000130e+00,9.930695920259999809e-01,-1.097496546510000037e+01,5.082299709319999526e-01,-1.332693696020000207e+00,-1.643764972689999992e-01,0.000000000000000000e+00
1.670257609000000087e+00,-2.702280644120000019e+00,1.366660547269999970e+00,-1.108372277690000018e+01,5.750647187230000235e-01,-1.462275981899999966e+00,-1.493565738200000048e-01,0.000000000000000000e+00
1.675087484000000071e+00,-2.426498686520000003e+00,1.271222881869999988e+00,-1.102057921529999973e+01,6.386957764630000201e-01,-1.542135953899999912e+00,-1.568054854869999903e-01,0.000000000000000000e+00
1.680064959999999941e+00,-2.514203127329999621e+00,1.301381873289999991e+00,-1.115589953990000005e+01,6.802221536640000732e-01,-1.654512763020000055e+00,-1.757030189040000023e-01,0.000000000000000000e+00
1.685257027000000019e+00,-2.548754800749999827e+00,1.280303575550000073e+00,-1.125811605180000008e+01,7.411896586419999267e-01,-1.786282658579999794e+00,-1.796843558549999775e-01,0.000000000000000000e+00
1.690256696000000058e+00,-2.394091916170000278e+00,1.304912531629999872e+00,-1.150539102289999960e+01,8.038601279260000343e-01,-1.931645274159999870e+00,-1.744975000620000161e-01,0.000000000000000000e+00
1.695229190000000052e+00,-2.179621190230000227e+00,1.351742087339999898e+00,-1.166532790239999962e+01,8.760673999789999611e-01,-2.069877147670000195e+00,-1.983024328950000192e-01,0.000000000000000000e+00
1.700087925999999916e+00,-2.021906809129999871e+00,1.502855316610000047e+00,-1.188799684009999957e+01,9.637681841850000986e-01,-2.238576650620000219e+00,-2.434586584569999879e-01,0.000000000000000000e+00
1.705113568000000024e+00,-1.805265899550000164e+00,1.652760631399999847e+00,-1.230162557200000073e+01,1.054066777229999863e+00,-2.417428493500000108e+00,-2.339672595259999766e-01,0.000000000000000000e+00
1.710090563000000063e+00,-1.532765886229999985e+00,1.517402166750000170e+00,-1.260684770529999987e+01,1.155835390090000026e+00,-2.625377893450000055e+00,-2.632526457309999901e-01,0.000000000000000000e+00
1.715067139000000074e+00,-1.117943560600000108e+00,1.675892062269999983e+00,-1.308890875290000011e+01,1.288470864300000018e+00,-2.874146699909999825e+00,-2.893888652320000254e-01,0.000000000000000000e+00
1.720042757000000089e+00,-6.230551800899999382e-01,1.857550505800000140e+00,-1.387699974299999894e+01,1.427803874020000086e+00,-3.142427682879999740e+00,-3.027929067610000136e-01,0.000000000000000000e+00
1.725067597000000008e+00,-2.934450765939999872e-01,2.525838620060000039e+00,-1.430811386279999908e+01,1.585572242739999860e+00,-3.477592945100000055e+00,-3.044252991679999854e-01,0.000000000000000000e+00
1.730088850000000011e+00,4.407257054309999811e-01,3.127886814090000467e+00,-1.496815831869999869e+01,1.801455020899999981e+00,-3.820688724519999635e+00,-3.278170824050000154e-01,0.000000000000000000e+00
1.735069570000000061e+00,1.263580112029999869e+00,3.758144911300000057e+00,-1.537215763700000082e+01,2.033236503599999967e+00,-4.200195312500000000e+00,-3.917339742180000473e-01,0.000000000000000000e+00
1.740031424999999965e+00,1.855070233290000203e+00,4.072587877330000161e+00,-1.548514805640000169e+01,2.297111511229999792e+00,-4.682880401610000298e+00,-4.380266070369999709e-01,0.000000000000000000e+00
1.745060059999999913e+00,2.405637246409999541e+00,3.510624733190000235e+00,-1.561271878970000060e+01,2.553503990170000293e+00,-5.212631702419999513e+00,-4.944356381889999930e-01,0.000000000000000000e+00
1.750093869000000080e+00,3.186369982720000049e+00,2.908428362870000061e+00,-1.504253522199999971e+01,2.835362195970000165e+00,-5.803959846499999742e+00,-5.218734741210000472e-01,0.000000000000000000e+00
1.755064512999999993e+00,2.885028198060000104e+00,2.727779242510000035e+00,-1.424356627950000131e+01,3.172848939900000165e+00,-6.464674472810000516e+00,-5.968179702760000316e-01,0.000000000000000000e+00
1.760065406999999915e+00,2.580534963629999901e+00,3.091139968709999852e+00,-1.427620948900000108e+01,3.614346265790000068e+00,-7.123198032380000377e+00,-6.193296313289999855e-01,0.000000000000000000e+00
1.765273336999999998e+00,1.641142235929999860e+00,2.616818575409999958e+00,-1.406863641359999839e+01,4.124728202819999190e+00,-7.722679615019999666e+00,-6.101365089419999999e-01,0.000000000000000000e+00
1.770061461999999919e+00,-6.515873009610000377e-01,3.981899890669999831e+00,-1.393739020660000172e+01,4.753797054290000546e+00,-8.211603164670000510e+00,-5.598147511479999450e-01,0.000000000000000000e+00
1.775033225000000048e+00,-3.161099055599999819e+00,4.623599127080000315e+00,-1.435688870729999955e+01,5.463788032530000116e+00,-8.578674316409999889e+00,-5.143951177600000202e-01,0.000000000000000000e+00
1.780054272999999965e+00,-7.258657123539999922e+00,4.749717323569999650e+00,-1.535409006539999943e+01,6.122932434079999986e+00,-8.805294036869998564e+00,-4.761151671410000508e-01,0.000000000000000000e+00
1.785064557999999968e+00,-1.112736201220000076e+01,1.729858191870000006e+00,-1.516995865589999859e+01,6.512655258180000573e+00,-8.892950057980000267e+00,-3.140384852890000245e-01,0.000000000000000000e+00
1.790109369999999922e+00,-1.286161157089999918e+01,-1.885729283190000105e+00,-1.458389129030000042e+01,6.704532146450000063e+00,-8.807110786439999117e+00,-3.109989762310000350e-01,0.000000000000000000e+00
1.795067624999999945e+00,-1.473167712869999946e+01,-2.941860969129999948e+00,-1.466889363249999967e+01,6.286534786219999837e+00,-8.499011039730000050e+00,-1.528435200449999865e-01,0.000000000000000000e+00
1.800133446000000026e+00,-1.388100722509999940e+01,-4.810726503540000643e+00,-1.419191208009999983e+01,5.557763099669999818e+00,-8.145405769349999048e+00,2.994904480870000038e-02,0.000000000000000000e+00
1.805062680999999891e+00,-1.314658820390000038e+01,-6.154066819369998775e+00,-1.464129484700000106e+01,4.708518028259999433e+00,-7.683747291560000470e+00,3.073685057459999911e-02,0.000000000000000000e+00
1.810224454000000094e+00,-1.352821553140000077e+01,-8.355583761200000126e+00,-1.490700914570000002e+01,3.994741201399999664e+00,-7.258187294009999846e+00,4.337530955669999938e-02,0.000000000000000000e+00
1.815266577000000048e+00,-1.351670980259999943e+01,-7.565466818210000888e+00,-1.602098277980000063e+01,3.584629535679999979e+00,-6.882584095000000346e+00,-1.697332225739999964e-02,0.000000000000000000e+00
1.820091737000000043e+00,-1.528707229259999956e+01,-6.334012467630000032e+00,-1.419996211559999999e+01,3.567379236219999861e+00,-6.743402481080000399e+00,-3.341914713380000207e-02,0.000000000000000000e+00
1.825267886000000006e+00,-1.964482911069999815e+01,-2.322608396190000146e+00,-1.820369389880000099e+01,3.873594522480000357e+00,-6.464516162869998972e+00,2.133029885590000119e-02,0.000000000000000000e+00
1.830255637999999907e+00,-1.780697538520000123e+01,-4.370411351669999944e-01,-1.581953081760000046e+01,4.288151741030000075e+00,-6.227100849149999284e+00,3.265096247200000024e-01,0.000000000000000000e+00
1.835126234999999939e+00,-1.473674610249999972e+01,2.602877728340000196e+00,-1.610963253859999966e+01,4.940155506129999985e+00,-5.834878444670000164e+00,5.921507477759999638e-01,0.000000000000000000e+00
1.840253955999999969e+00,-1.656389606329999964e+01,1.444660317279999884e+00,-1.574049410579999986e+01,5.263525009160000323e+00,-5.269660472869999168e+00,8.184198141099999768e-01,0.000000000000000000e+00
1.845128455000000001e+00,-2.021828717009999821e+01,-2.559710786790000192e+00,-1.392290341609999871e+01,5.224827289580000311e+00,-4.387883186339999853e+00,1.154851436610000004e+00,0.000000000000000000e+00
1.850125561000000030e+00,-1.790345189210000143e+01,-4.348187025709999709e+00,-1.097573937209999961e+01,5.134960651400000131e+00,-3.077980279919999784e+00,1.666454195979999886e+00,0.000000000000000000e+00
1.855108036000000071e+00,-9.950221435589998720e+00,-8.911351850090000193e-01,-1.015578375569999992e+01,5.114637374880000031e+00,-1.471694469449999820e+00,2.132914304729999877e+00,0.000000000000000000e+00
1.860222862000000088e+00,4.619137179240000002e+00,1.422487940699999953e+00,-1.166249180219999992e+01,5.227318286900000111e+00,3.090929426250000125e-02,2.478863716130000228e+00,0.000000000000000000e+00
1.865080080999999890e+00,1.700422341700000217e+01,1.932686410800000143e+00,-1.170325986589999978e+01,5.317153930659999972e+00,1.254838705060000059e+00,3.134190082549999978e+00,0.000000000000000000e+00
1.870243751999999926e+00,8.001396813799999563e+00,4.706590348699999371e-01,-1.052639518360000004e+01,5.085957050319999340e+00,1.400995492939999920e+00,3.961167812350000261e+00,0.000000000000000000e+00
1.875299220000000044e+00,-5.337752189809999770e+00,-6.783489927059999758e+00,-1.702487223729999855e+01,4.159221649170000035e+00,8.300773501399999477e-01,4.528601169589999920e+00,0.000000000000000000e+00
1.880094409000000022e+00,-1.130599891589999828e+01,-6.193446643599999746e+00,-1.935616882069999889e+01,3.614580154419999580e+00,9.623816609379999276e-01,5.295270442959999713e+00,0.000000000000000000e+00
1.885252413999999987e+00,-4.952195121630000862e+00,-2.846248970070000439e+00,-1.756920941609999787e+01,3.206579208369999989e+00,1.155703067779999982e+00,5.368672370909999714e+00,0.000000000000000000e+00
1.890144194999999971e+00,3.272028450780000153e+00,1.862143678809999869e+00,-1.587043098380000039e+01,3.023506641390000027e+00,1.942127346990000003e+00,4.796596527100000174e+00,0.000000000000000000e+00
1.895072059000000086e+00,2.369901185509999841e+00,4.043056954680000814e+00,-1.235797582030000008e+01,2.778509855270000273e+00,3.533853292469999907e+00,4.756640911099999869e+00,0.000000000000000000e+00
1.900090135999999985e+00,-4.030681018839999963e-01,1.711708202670000123e+00,-9.188702226049999311e+00,2.359624624250000302e+00,4.728972911830000569e+00,4.845682620999999912e+00,0.000000000000000000e+00
1.905106640999999934e+00,3.307386764409999902e+00,5.078127440149999838e-01,-8.514942548510001430e+00,2.011471986770000164e+00,5.372125625609999844e+00,4.767852783199999500e+00,0.000000000000000000e+00
1.910148388999999947e+00,6.085528705199999777e+00,6.674198800600000814e-01,-7.867505645229999622e+00,1.867596864700000081e+00,5.136559009549999999e+00,4.696081638339999920e+00,0.000000000000000000e+00
1.915097346000000034e+00,9.266425517200000073e+00,2.255151209120000111e+00,-6.443215769680000982e+00,1.911276459690000040e+00,4.594653129580000162e+00,4.406961917880000357e+00,0.000000000000000000e+00
1.920041241999999926e+00,9.539154663099999709e+00,4.293062519860000315e+00,-7.393717920410000310e+00,1.907848477359999739e+00,4.058870315550000107e+00,4.070514202119999148e+00,0.000000000000000000e+00
1.925061775999999947e+00,9.887974530510001969e+00,3.554687746799999992e+00,-5.834012443200000675e+00,1.972873330119999880e+00,3.605766773219999610e+00,3.709942817690000005e+00,0.000000000000000000e+00
1.930070649999999999e+00,8.428350891250000032e+00,4.232729923969999142e+00,-6.044127019750000329e+00,1.966798663140000070e+00,3.325420856480000076e+00,3.468779325490000343e+00,0.000000000000000000e+00
1.935064501999999909e+00,7.256214991080000232e+00,5.493327951449999524e+00,-6.358410411310000399e+00,2.123344182970000382e+00,3.195816040039999972e+00,3.119720935820000207e+00,0.000000000000000000e+00
1.940047652999999928e+00,5.615611684330001019e+00,6.623038083820000033e+00,-6.171131351419999689e+00,2.213910579679999824e+00,3.215615987780000129e+00,2.683961391450000011e+00,0.000000000000000000e+00
1.945040850999999904e+00,4.711581946439999946e+00,6.035493046919999216e+00,-6.527788488330000582e+00,2.208260536190000067e+00,3.244167566299999805e+00,2.251983881000000132e+00,0.000000000000000000e+00
1.950065763000000008e+00,4.285488285209999582e+00,4.477928673390000114e+00,-7.256320205019999747e+00,2.080292701720000359e+00,3.456902503969999430e+00,1.893293738370000145e+00,0.000000000000000000e+00
1.955114253999999940e+00,3.681452716759999966e+00,3.714342886709999902e+00,-8.528881057489998696e+00,1.904696106909999909e+00,3.678451061250000098e+00,1.622587442400000191e+00,0.000000000000000000e+00
1.960183884000000099e+00,2.688358794009999553e+00,4.328214497260000293e+00,-9.297075507010001516e+00,1.761074662209999753e+00,3.909440994260000135e+00,1.409579753879999897e+00,0.000000000000000000e+00
1.965271835000000022e+00,1.475732916409999929e+00,5.209772875630000577e+00,-1.002416813079999969e+01,1.687464118000000068e+00,4.180680274960000276e+00,1.244449853899999958e+00,0.000000000000000000e+00
1.970115907000000055e+00,6.060709832699999744e-01,6.413623179970000088e+00,-1.031899045059999942e+01,1.641589641569999980e+00,4.469532012940000243e+00,1.157707571980000072e+00,0.000000000000000000e+00
1.975272836999999893e+00,1.763799916699999859e-01,7.865417148519999735e+00,-1.046879055139999970e+01,1.696831345559999926e+00,4.789713859559999953e+00,1.032473206520000186e+00,0.000000000000000000e+00
1.980005768999999916e+00,-4.582663305579999791e-01,8.832855821000000773e+00,-1.037840710070000050e+01,1.802496433259999753e+00,5.246259689330000420e+00,9.763129353520000331e-01,0.000000000000000000e+00
1.985234925999999955e+00,-6.195208684840000091e-01,9.575291559889999249e+00,-1.016763084529999972e+01,1.954368591309999736e+00,5.738755226139999444e+00,9.301228523250000269e-01,0.000000000000000000e+00
1.990456272000000082e+00,-4.455310233540000220e-01,1.018774073640000033e+01,-9.710355863889999384e+00,2.151298999789999833e+00,6.144956588750000392e+00,9.123923182490000228e-01,0.000000000000000000e+00
1.995236446000000052e+00,1.389150611499999910e-01,1.042304586830000090e+01,-9.337871043260001613e+00,2.368227720259999725e+00,6.452582836150000389e+00,9.463759660719999189e-01,0.000000000000000000e+00
2.000058864000000103e+00,8.185845472570000281e-01,1.041333228360000085e+01,-8.934322975840000680e+00,2.534836292270000069e+00,6.640382766719999275e+00,1.010658383370000024e+00,0.000000000000000000e+00
2.005029545999999829e+00,1.177146567939999944e+00,1.005061307010000071e+01,-8.911421408200000727e+00,2.669449806209999831e+00,6.698133468630000031e+00,1.089430570600000037e+00,0.000000000000000000e+00
2.010232230000000175e+00,1.111630139670000128e+00,9.687616793340000143e+00,-8.928384233439999207e+00,2.761129379269999795e+00,6.707394123080001158e+00,1.215463042260000126e+00,0.000000000000000000e+00
2.015274847000000147e+00,7.630553330629999964e-01,9.267301715510001259e+00,-9.122727824880000114e+00,2.778748989110000345e+00,6.612418651579999640e+00,1.335491299629999906e+00,0.000000000000000000e+00
2.020251193000000001e+00,6.899807810350000459e-02,8.831476349339999032e+00,-9.562714986910000547e+00,2.761372327799999749e+00,6.532520771030000617e+00,1.501692295070000016e+00,0.000000000000000000e+00
2.025106731000000160e+00,-7.023441131209999799e-01,8.723830213619999441e+00,-1.019191772980000010e+01,2.645810127259999867e+00,6.417918682100000716e+00,1.699066996570000043e+00,0.000000000000000000e+00
2.030244755000000012e+00,-1.327754770300000109e+00,8.858729097930000407e+00,-1.078789624859999918e+01,2.504113912579999823e+00,6.316121101380000269e+00,1.910615801809999903e+00,0.000000000000000000e+00
2.035288320999999900e+00,-1.823798458320000204e+00,9.129715199550000548e+00,-1.126188037270000031e+01,2.366168022160000106e+00,6.199143409730000442e+00,2.151913881300000053e+00,0.000000000000000000e+00
2.040061226999999811e+00,-2.495200905209999931e+00,9.608662499089998477e+00,-1.187804710849999879e+01,2.255401372909999758e+00,6.090230464939999422e+00,2.366687059399999793e+00,0.000000000000000000e+00
2.045114616000000218e+00,-3.248045225390000290e+00,1.014696448940000018e+01,-1.280001114700000109e+01,2.175514221190000264e+00,5.990706443790000613e+00,2.577347040180000270e+00,0.000000000000000000e+00
2.050115617999999973e+00,-4.255976359519999974e+00,1.071212818309999903e+01,-1.372691205739999987e+01,2.153682708740000340e+00,5.905682086939999742e+00,2.813292503359999586e+00,0.000000000000000000e+00
2.055104140000000079e+00,-5.119279534750000415e+00,1.113150510329999854e+01,-1.459761001910000111e+01,2.176801204679999824e+00,5.817263126369999426e+00,2.996117591860000040e+00,0.000000000000000000e+00
2.060220686000000079e+00,-6.210129482860000216e+00,1.134707794530000058e+01,-1.544203021460000080e+01,2.228641510009999660e+00,5.798506736760000280e+00,3.168397665020000531e+00,0.000000000000000000e+00
2.065086208999999950e+00,-6.858828368900000250e+00,1.151964283569999914e+01,-1.603782285539999819e+01,2.307676315309999726e+00,5.846118927000000909e+00,3.271604537960000059e+00,0.000000000000000000e+00
2.070078924000000153e+00,-7.623713839999999742e+00,1.147939733449999977e+01,-1.663249438320000095e+01,2.414944887159999887e+00,5.920012474059999974e+00,3.353502511979999934e+00,0.000000000000000000e+00
2.075229154000000076e+00,-8.451916475750000046e+00,1.128008589150000063e+01,-1.711206186040000077e+01,2.528701305390000265e+00,6.030696392059999411e+00,3.373896837229999779e+00,0.000000000000000000e+00
2.080022188000000050e+00,-9.330205038669999951e+00,1.083412842289999922e+01,-1.733883998700000006e+01,2.588746786120000198e+00,6.153300762180000660e+00,3.390794515610000115e+00,0.000000000000000000e+00
2.085262077999999963e+00,-9.605749826509999423e+00,1.052824577990000066e+01,-1.743054913339999956e+01,2.622993230820000132e+00,6.224162578580000549e+00,3.295551300050000076e+00,0.000000000000000000e+00
2.090114226999999936e+00,-9.824538707909999502e+00,1.034838722539999978e+01,-1.743667843000000062e+01,2.603926181790000349e+00,6.308468341830001158e+00,3.172477483749999827e+00,0.000000000000000000e+00
2.095164121999999907e+00,-9.943498264810001430e+00,9.921696767369999392e+00,-1.760523116210000083e+01,2.572883844379999729e+00,6.305476665499999633e+00,3.017956733700000171e+00,0.000000000000000000e+00
2.100226473000000205e+00,-1.027108303650000032e+01,9.459221879210000239e+00,-1.781333965950000220e+01,2.519636154170000086e+00,6.286917209630000336e+00,2.903990507130000065e+00,0.000000000000000000e+00
2.105158122999999826e+00,-1.069105967610000008e+01,9.054172175050000604e+00,-1.803825549940000172e+01,2.458218336109999846e+00,6.250443458559999499e+00,2.808882474900000314e+00,0.000000000000000000e+00
2.110070274999999995e+00,-1.121044712259999976e+01,8.633226398110000588e+00,-1.828640725340000017e+01,2.398996591570000003e+00,6.177266120909999714e+00,2.816415786740000371e+00,0.000000000000000000e+00
2.115270776000000019e+00,-1.148235150809999894e+01,8.203411670530000421e+00,-1.852973202559999777e+01,2.325918197629999629e+00,6.114106655119999623e+00,2.886098861690000295e+00,0.000000000000000000e+00
2.120254890000000003e+00,-1.180811257150000060e+01,8.112837081110001236e+00,-1.865302172069999997e+01,2.268759727479999988e+00,6.026194095610000190e+00,2.989635467530000312e+00,0.000000000000000000e+00
2.125262543999999920e+00,-1.237642333109999981e+01,8.522862820120000293e+00,-1.833022885940000180e+01,2.202227830890000071e+00,5.938444614409999822e+00,3.149181127549999903e+00,0.000000000000000000e+00
2.130253152999999955e+00,-1.308941845599999887e+01,9.071560532230000362e+00,-1.760263705390000055e+01,2.175118446349999957e+00,5.803614616390000869e+00,3.330013990400000345e+00,0.000000000000000000e+00
2.135134759000000049e+00,-1.383886670400000085e+01,9.357776936210001395e+00,-1.658250724019999822e+01,2.181622505190000449e+00,5.626058578489999462e+00,3.515419721600000269e+00,0.000000000000000000e+00
2.140095066000000212e+00,-1.472582606459999965e+01,9.122241502669998781e+00,-1.569058411970000044e+01,2.191671133040000274e+00,5.406762123110000040e+00,3.724802970889999898e+00,0.000000000000000000e+00
2.145119483999999854e+00,-1.558893225599999965e+01,8.458214699119999125e+00,-1.485361540920000145e+01,2.252140760420000110e+00,5.135158061980000355e+00,3.916204929350000086e+00,0.000000000000000000e+00
2.150116639999999801e+00,-1.640519252500000036e+01,7.886981914589999754e+00,-1.388218211410000080e+01,2.255298614500000021e+00,4.820373535159999889e+00,4.054793834690000764e+00,0.000000000000000000e+00
2.155278298999999897e+00,-1.732957765319999766e+01,7.489720964620000032e+00,-1.278018182640000155e+01,2.219470024110000050e+00,4.526371479030000700e+00,4.142992019649999413e+00,0.000000000000000000e+00
2.160067488000000147e+00,-1.829726533200000205e+01,7.058623211489999605e+00,-1.180568329849999820e+01,2.136980772020000252e+00,4.182720661160000297e+00,4.113821029659999517e+00,0.000000000000000000e+00
2.164874532999999879e+00,-1.928773182880000192e+01,6.777377581659999706e+00,-1.068624438480000016e+01,2.045336723330000162e+00,3.860439777369999881e+00,3.989821910859999488e+00,0.000000000000000000e+00
2.170117034000000000e+00,-2.009162127660000152e+01,6.745193221890000146e+00,-9.458006658200000416e+00,1.934715390210000052e+00,3.572108983989999764e+00,3.742560863490000500e+00,0.000000000000000000e+00
2.175184745000000142e+00,-2.071755771119999778e+01,6.991826388029999784e+00,-8.214758409450000798e+00,1.810862421990000026e+00,3.292971372599999835e+00,3.399369955059999615e+00,0.000000000000000000e+00
2.180122271000000111e+00,-2.133474268410000008e+01,7.547347224160000145e+00,-6.870450417629999862e+00,1.674627661709999993e+00,3.019303560259999575e+00,2.964126825329999715e+00,0.000000000000000000e+00
2.185089350000000152e+00,-2.217895128280000350e+01,7.854301880260000424e+00,-5.439383595290000706e+00,1.515252947810000084e+00,2.748579025270000198e+00,2.487135410310000072e+00,0.000000000000000000e+00
2.190186859999999847e+00,-2.300923656999999878e+01,7.555918653150000885e+00,-4.099402819019999811e+00,1.347243785859999932e+00,2.462940931319999915e+00,2.005940198899999860e+00,0.000000000000000000e+00
2.195107730999999784e+00,-2.368413957239999945e+01,7.003731929869999817e+00,-2.811388961350000049e+00,1.123445153240000050e+00,2.168552160259999972e+00,1.614137768750000035e+00,0.000000000000000000e+00
2.200191331000000083e+00,-2.416775895540000008e+01,6.758264300390000479e+00,-1.752072361760000030e+00,8.734483122830000168e-01,1.866381764409999811e+00,1.298076748850000017e+00,0.000000000000000000e+00
2.205097353000000204e+00,-2.460060676699999860e+01,6.833915461440000172e+00,-9.217087485799999591e-01,5.935006141659999734e-01,1.540835618970000098e+00,1.097174882889999870e+00,0.000000000000000000e+00
2.210203554000000015e+00,-2.490388010429999710e+01,6.763247934019999796e+00,-1.808633476289999986e-01,2.633160054679999917e-01,1.213308930399999985e+00,1.009383559230000005e+00,0.000000000000000000e+00
2.215238043999999906e+00,-2.476464699010000103e+01,6.854976369650000123e+00,3.682402784029999987e-01,-4.855493828649999621e-02,9.022069573400000042e-01,9.944925308230000427e-01,0.000000000000000000e+00
2.220086154000000089e+00,-2.404218027260000312e+01,7.554353888049999632e+00,8.447917323119999988e-01,-3.602338433269999807e-01,6.071023344989999737e-01,1.031594514850000088e+00,0.000000000000000000e+00
2.225205707999999838e+00,-2.280855851480000140e+01,8.411897184580000797e+00,1.064416114679999970e+00,-6.066453456879999928e-01,3.126829266550000264e-01,1.058018207549999978e+00,0.000000000000000000e+00
2.230093634000000158e+00,-2.132067441119999884e+01,8.806877330139998961e+00,1.263591364070000056e+00,-7.801935672759999774e-01,-1.707484945650000058e-02,1.069368839260000037e+00,0.000000000000000000e+00
2.235253495999999895e+00,-2.030750625319999969e+01,9.591544775550000068e+00,3.971897844349999707e-01,-9.123511314390000404e-01,-3.764209747310000020e-01,1.077537655829999830e+00,0.000000000000000000e+00
2.240092698999999854e+00,-1.914176151539999893e+01,9.949839158270000539e+00,-3.544278434859999827e-01,-9.878085851669999862e-01,-7.502726316450000210e-01,1.055259704589999847e+00,0.000000000000000000e+00
2.245089941999999894e+00,-1.824692046160000203e+01,1.006238183389999996e+01,-1.281468673810000070e+00,-1.060113906860000066e+00,-1.116201877590000002e+00,1.028237581249999977e+00,0.000000000000000000e+00
2.250116463999999983e+00,-1.768407731980000008e+01,9.669833883889999981e+00,-2.565339148060000074e+00,-1.131892323490000019e+00,-1.441894054410000070e+00,1.003284811970000190e+00,0.000000000000000000e+00
2.255092360999999990e+00,-1.662419300330000027e+01,8.907041585680000040e+00,-4.089118448630000735e+00,-1.230881333349999940e+00,-1.711625695229999966e+00,9.843671321870001156e-01,0.000000000000000000e+00
2.260075928000000012e+00,-7.172952770499999353e+00,5.403498042919999023e+00,-1.840625177640000132e+01,-1.595784664149999976e+00,-1.992835521699999779e+00,1.276082277300000012e+00,0.000000000000000000e+00
2.265092576999999885e+00,-8.297945811230000857e+00,4.903578097980000550e+00,-1.216511632990000003e+01,-1.721610546109999751e+00,-2.736135482790000406e+00,1.616817116740000060e+00,0.000000000000000000e+00
2.270185997000000011e+00,-1.349446231489999981e+00,-3.166009331729999765e+00,-7.126544655070000012e+00,-1.926337242130000016e+00,-2.583325386049999839e+00,1.772265553470000032e+00,0.000000000000000000e+00
2.275242926000000221e+00,7.355709384530000783e+00,-9.389269806579999766e+00,-1.513853709720000040e+01,-1.466220021250000061e+00,-2.170196056370000015e+00,2.671329736709999736e+00,0.000000000000000000e+00
2.280087637999999917e+00,1.289143270859999824e+01,-8.643323429229999633e+00,-2.044163532219999979e+01,-1.419312119479999801e+00,-1.906559944149999852e+00,2.996078729630000215e+00,0.000000000000000000e+00
2.285123864000000005e+00,1.364735161400000152e+01,-9.247551305380000031e+00,-1.591224534170000027e+01,-1.550087690350000047e+00,-1.174546480179999852e+00,3.258808135990000299e+00,0.000000000000000000e+00
2.290253116999999783e+00,1.405684309990000003e+01,-1.128174710270000070e+01,-1.522722426540000029e+01,-1.813618540759999842e+00,-1.122823595999999924e+00,3.165755033490000425e+00,0.000000000000000000e+00
2.295043736999999862e+00,9.978490083220000528e+00,-1.006432361559999933e+01,-1.185214811260000012e+01,-2.688435077670000339e+00,-1.889784574509999704e+00,2.289676189420000174e+00,0.000000000000000000e+00
2.300246829000000215e+00,3.503611931819999636e+00,-9.529716388149999773e+00,-7.891374012069999999e+00,-3.345647096630000039e+00,-2.960181236270000404e+00,1.428637504579999939e+00,0.000000000000000000e+00
2.305048263999999847e+00,-5.147971960749999631e-01,-8.990506050830001428e+00,-9.430857369989999128e+00,-3.631428480149999860e+00,-4.066743850709999997e+00,5.501776337620000179e-01,0.000000000000000000e+00
2.310234331999999835e+00,-3.579452477959999879e+00,-4.447201818949999996e+00,-1.162338027349999869e+01,-3.393459796909999771e+00,-4.834640979769999625e+00,-3.402304351329999976e-01,0.000000000000000000e+00
2.315038808999999809e+00,-9.104539257239999017e+00,4.476273015130000088e-01,-1.356274791559999926e+01,-2.842812538150000012e+00,-5.225314617159999564e+00,-1.143712282179999873e+00,0.000000000000000000e+00
2.320243617000000036e+00,-1.461387024900000142e+01,2.383926057600000092e+00,-1.547571971829999882e+01,-2.071780681609999952e+00,-4.983849525450000151e+00,-1.668987989429999930e+00,0.000000000000000000e+00
2.325255137000000083e+00,-1.524089506340000000e+01,2.769050579580000004e+00,-1.725072331220000166e+01,-1.461863398549999804e+00,-4.483202457430000010e+00,-1.696364164350000037e+00,0.000000000000000000e+00
2.330101454999999877e+00,-1.055831709309999944e+01,4.224330636680000417e+00,-1.373899646289999943e+01,-7.805812954899999934e-01,-3.655043125149999739e+00,-1.632881045340000004e+00,0.000000000000000000e+00
2.335117917999999904e+00,-1.231568332349999828e+01,5.843037461169999780e+00,-1.416823309840000000e+01,-7.861500382420000266e-01,-2.213342428209999824e+00,-8.965308070180000311e-01,0.000000000000000000e+00
2.340216573999999827e+00,-6.739138744159999916e+00,4.392929838279999721e+00,-1.581922920430000090e+01,-1.356667160990000065e+00,-1.483590483670000237e+00,-2.942829430099999644e-01,0.000000000000000000e+00
2.345110946999999779e+00,-8.211831708350000980e+00,2.603174373199999891e+00,-1.267254796569999975e+01,-1.923365354540000238e+00,-9.469629526139999864e-01,4.707748591900000057e-01,0.000000000000000000e+00
2.350122929999999943e+00,-3.010257044489999867e+00,5.194289475290000624e+00,-1.061586093500000061e+01,-2.133754968640000360e+00,-1.169373869900000029e+00,5.552968978879999629e-01,0.000000000000000000e+00
2.355250240999999800e+00,-3.044377633009999862e+00,4.218782354900000087e+00,-9.081898970890000200e+00,-1.834205389020000077e+00,-1.488685846329999896e+00,3.710211813449999507e-01,0.000000000000000000e+00
2.360198436000000122e+00,-4.887073245639999897e+00,-1.654311112240000048e-01,-1.214758067319999846e+01,-1.395575046539999864e+00,-1.844519853590000258e+00,3.248777613039999929e-02,0.000000000000000000e+00
2.365279161000000130e+00,-5.785381975539999999e+00,-3.199113728959999570e+00,-1.082130985789999933e+01,-1.047232747079999804e+00,-1.947237968440000078e+00,-1.700291782620000081e-01,0.000000000000000000e+00
2.370157015000000200e+00,-6.505998681319999477e+00,5.175954484920000098e-01,-1.104212936829999947e+01,-8.494885563850000931e-01,-1.844754695890000074e+00,-2.261153757569999978e-01,0.000000000000000000e+00
2.375275282000000043e+00,-8.378172609630000878e+00,3.766928229469999501e+00,-1.201376023180000097e+01,-8.870887756349999931e-01,-1.584217786789999804e+00,-1.489499360319999910e-01,0.000000000000000000e+00
2.380083679000000174e+00,-7.123855269860000838e+00,8.225045410189999018e+00,-1.234103871400000152e+01,-9.131567478180000474e-01,-1.323041915889999975e+00,-2.696609497069999972e-01,0.000000000000000000e+00
2.385119806000000064e+00,-8.426148997289999443e+00,7.731708350769999960e+00,-1.050909567379999920e+01,-8.199597001080000114e-01,-6.708357334139999351e-01,-2.288131117819999782e-01,0.000000000000000000e+00
2.390108770999999965e+00,-7.252056702360000884e+00,6.371881887299999825e+00,-9.113750737700000215e+00,-6.132130026820000746e-01,-1.097254008049999979e-01,-5.027922242880000780e-02,0.000000000000000000e+00
2.395099625999999926e+00,-4.817829321280000521e+00,4.524353447690000252e+00,-9.378831999199999103e+00,-3.756656646729999993e-01,1.355039924379999872e-01,1.235027685759999966e-01,0.000000000000000000e+00
2.400254086999999981e+00,-3.585193944230000263e+00,2.384717354100000186e+00,-8.997237404910000791e+00,-1.542215198280000032e-01,1.345397681000000123e-01,1.075825244190000002e-01,0.000000000000000000e+00
2.405110844999999831e+00,-2.831526324970000008e+00,1.138774897839999856e+00,-9.690454647110000153e+00,-9.796684980389999686e-02,-1.302076578140000107e-01,-5.056194216009999437e-02,0.000000000000000000e+00
2.410076448999999954e+00,-2.202352369740000260e+00,1.042180171350000073e+00,-9.671910690160000712e+00,-8.517863601450000044e-02,-3.411326110360000108e-01,-1.321541368960000018e-01,0.000000000000000000e+00
2.415244975999999877e+00,-1.711954724779999770e+00,1.097546157810000089e+00,-9.904131884589999046e+00,-1.620783954860000042e-01,-4.936123788359999542e-01,-1.644096821550000143e-01,1.000000000000000000e+00
2.420091493999999788e+00,-2.837465944150000308e+00,1.547543184120000026e+00,-9.963070395769999976e+00,-1.767269074920000127e-01,-4.743727743630000160e-01,-8.787485212089998776e-02,0.000000000000000000e+00
2.425274281000000087e+00,-3.448358538889999991e+00,2.087127469319999928e+00,-9.616075405700000189e+00,-1.977377682919999879e-01,-3.057788014410000033e-01,-5.748645588759999925e-02,0.000000000000000000e+00
2.430203573000000006e+00,-3.372597195470000031e+00,1.978320473120000145e+00,-9.533700489350000140e+00,-1.574270427229999825e-01,-2.105406969790000193e-01,-5.346425250169999782e-02,0.000000000000000000e+00
2.435129885999999910e+00,-2.898157436480000015e+00,5.590515675389999828e-01,-9.533838436510000847e+00,-1.259934455160000022e-01,-1.583125144239999893e-01,-8.963923156260000802e-02,1.000000000000000000e+00
2.440258619000000184e+00,-2.406627426490000055e+00,-4.009950584699999432e-01,-9.576664017280000607e+00,-1.061168164009999998e-01,-1.459450125689999989e-01,-7.026921957729999335e-02,1.000000000000000000e+00
2.445235541000000179e+00,-2.492642160639999993e+00,-2.445371985020000083e-01,-9.414492510639998812e+00,-1.211697459219999995e-01,-2.292744666340000292e-01,-6.692894548179999237e-02,1.000000000000000000e+00
2.450083310000000125e+00,-2.579846104580000077e+00,5.235998765379999975e-01,-9.489625785299999450e+00,-1.278733760119999951e-01,-3.160475790500000270e-01,-7.422463595869999153e-02,1.000000000000000000e+00
2.455265929999999930e+00,-2.926306549390000011e+00,1.109784073409999960e+00,-9.521889640050000381e+00,-1.191728413110000051e-01,-3.554162085059999754e-01,-8.174242824319999379e-02,0.000000000000000000e+00
2.460079803999999815e+00,-3.278932238820000400e+00,1.307994131029999840e+00,-9.582084873290000360e+00,-9.360261261460001148e-02,-3.126394450659999991e-01,-9.174615144730000060e-02,0.000000000000000000e+00
2.465252859000000019e+00,-3.308930778980000209e+00,1.137591825529999934e+00,-9.604454526010000492e+00,-5.346918106080000149e-02,-2.379862219099999898e-01,-7.049922645089999607e-02,0.000000000000000000e+00
2.470240620000000220e+00,-3.175320180920000013e+00,1.099725255410000102e+00,-9.667474169020000119e+00,-1.987508125599999828e-02,-1.694589108229999919e-01,-5.391432717439999939e-02,1.000000000000000000e+00
2.475236128000000146e+00,-2.987535801850000006e+00,8.751778835510000132e-01,-9.573703413909999682e+00,2.886724844570000281e-02,-1.355570405719999927e-01,-5.495839938519999496e-02,1.000000000000000000e+00
2.480135649000000164e+00,-2.969848461729999833e+00,8.523553724989999525e-01,-9.458099012659999971e+00,3.870501369240000183e-02,-1.488377600909999987e-01,-6.015248224140000433e-02,1.000000000000000000e+00
2.485048882000000070e+00,-2.842244410600000215e+00,1.037313149829999892e+00,-9.493996255469999923e+00,3.297587111590000175e-02,-1.879455447199999962e-01,-8.919942379000000976e-02,1.000000000000000000e+00
2.490172467999999917e+00,-3.662262278600000087e+00,1.473125364259999959e+00,-9.313556101689998812e+00,4.924455285069999355e-02,-1.282838732000000093e-01,-5.208478122949999900e-02,1.000000000000000000e+00
2.495091259000000061e+00,-2.928088172099999831e+00,1.730008706250000028e+00,-9.499892912289999103e+00,7.763155549760000773e-02,-1.383640766139999922e-01,-1.049630418420000044e-01,1.000000000000000000e+00
2.500045035999999943e+00,-3.444267470189999791e+00,1.266543053489999959e+00,-9.488918513810000732e+00,1.115408167239999998e-01,-5.460436269640000367e-02,-1.114137694239999976e-01,1.000000000000000000e+00
2.505032427999999811e+00,-3.426259227550000119e+00,6.212288414459999908e-01,-9.523842527679999392e+00,1.321811974050000060e-01,-1.075599715110000035e-02,-8.178938180210000575e-02,1.000000000000000000e+00
2.510070450000000175e+00,-3.303403832250000338e+00,2.121105178780000045e-01,-9.476061370329999178e+00,1.397018283610000078e-01,3.938416019080000219e-02,-6.438805907959999075e-02,1.000000000000000000e+00
2.515070013999999965e+00,-3.133351801499999922e+00,-4.107412942600000005e-02,-9.524441662619999249e+00,1.064561903480000099e-01,5.765267461540000277e-02,-4.860109090809999755e-02,1.000000000000000000e+00
2.520065231999999877e+00,-3.074194971389999864e+00,3.817021326160000005e-02,-9.537316926280000828e+00,6.783462315799999864e-02,4.122639819980000037e-02,-1.479422301049999888e-02,1.000000000000000000e+00
2.525192982000000086e+00,-2.862638671590000516e+00,7.502521573879999961e-02,-9.470847435070000486e+00,5.173439905050000037e-02,5.019100755449999729e-02,-4.265581257639999672e-03,1.000000000000000000e+00
2.530098193000000162e+00,-2.928412874009999722e+00,-8.171214159020000201e-02,-9.448771796860000904e+00,3.664684295650000312e-02,5.436206236480000537e-02,2.817287668590000294e-02,1.000000000000000000e+00
2.535250213999999946e+00,-2.761100789619999940e+00,-7.824654327229998638e-03,-9.523001400680000117e+00,2.935018017890000247e-02,7.654794305560000400e-02,3.317111730579999640e-02,1.000000000000000000e+00
2.540227467999999877e+00,-2.627598912619999894e+00,1.523337201090000093e-01,-9.510563359389998084e+00,2.693687099960000077e-03,7.330664992330000740e-02,4.524493217469999912e-02,1.000000000000000000e+00
2.545086410000000132e+00,-2.627178349119999812e+00,3.567839416260000229e-01,-9.529711711970000110e+00,-1.082356739790000036e-02,5.758846551180000356e-02,5.325836315750000216e-02,1.000000000000000000e+00
2.550097650000000105e+00,-2.507158761769999966e+00,4.483354132500000366e-01,-9.507215217999998913e+00,-3.462016582489999689e-02,3.616334125399999627e-02,3.317289054390000491e-02,1.000000000000000000e+00
2.555252510999999949e+00,-2.645247674300000185e+00,7.229896454610000855e-01,-9.416185286039999269e+00,-5.155315622690000849e-02,-6.341814994810000307e-03,4.257260262969999459e-02,1.000000000000000000e+00
2.560086890000000004e+00,-2.645736042340000260e+00,9.067433807690000735e-01,-9.497873389160000457e+00,-2.469964697960000052e-02,-2.140026353300000100e-02,3.897847980259999678e-02,1.000000000000000000e+00
2.565222025999999822e+00,-2.637081903499999935e+00,9.827454010839999921e-01,-9.508243976530000197e+00,-8.229239028879999692e-04,-4.638435319069999369e-02,3.585726767780000185e-02,1.000000000000000000e+00
2.570105524999999780e+00,-2.692437587759999751e+00,1.078921463769999978e+00,-9.553652559530000588e+00,3.310828655959999894e-02,-6.153805181380000294e-02,2.935017831620000475e-02,1.000000000000000000e+00
2.575260726999999861e+00,-2.471272040359999700e+00,9.199247877719999300e-01,-9.558649052639999866e+00,5.080860108139999970e-02,-7.019859552380000589e-02,1.734689250590000162e-02,1.000000000000000000e+00
2.580045682000000173e+00,-2.387597731850000127e+00,8.856400216590000207e-01,-9.634963646039999219e+00,6.331629306079999964e-02,-1.160456538200000109e-01,8.065784350039999911e-03,0.000000000000000000e+00
2.585011413999999785e+00,-2.440636663590000310e+00,8.447250968160000539e-01,-9.706261872580000727e+00,8.257981389760001012e-02,-1.394203156230000018e-01,5.266524385659999453e-03,1.000000000000000000e+00
2.590250349000000174e+00,-2.464626610989999911e+00,6.857214065569999795e-01,-9.658798695139999779e+00,1.032944172619999906e-01,-1.747327148910000072e-01,1.836141012610000012e-02,1.000000000000000000e+00
2.595074711000000089e+00,-2.512802028359999884e+00,4.887282139150000426e-01,-9.637263739679999830e+00,8.596027642489999232e-02,-1.912497431040000306e-01,1.725304685529999854e-02,0.000000000000000000e+00
2.600252703999999859e+00,-2.727806422780000073e+00,4.258892977619999631e-01,-9.699925655289998616e+00,7.751720398660000289e-02,-1.990284472700000196e-01,1.964385062459999762e-02,1.000000000000000000e+00
2.605211010000000105e+00,-2.706780001359999854e+00,1.553161973850000210e-01,-9.643191960680001174e+00,2.864046767349999814e-02,-2.222939580680000082e-01,-7.822893559929999102e-03,1.000000000000000000e+00
2.610201352999999891e+00,-2.758736398569999970e+00,-4.778191083580000248e-02,-9.607214638369999449e+00,3.452577628199999908e-03,-2.382342219350000179e-01,-7.305938750510000169e-03,0.000000000000000000e+00
2.615132684999999846e+00,-2.710674378450000255e+00,1.492772551479999987e-01,-9.508874675650000441e+00,-4.821725562210000399e-02,-2.372604012489999969e-01,-2.337276935579999868e-02,1.000000000000000000e+00
2.620257433999999996e+00,-2.849871836740000219e+00,4.458225536460000415e-01,-9.499163428970000211e+00,-7.881683856250000508e-02,-2.337808161970000020e-01,-8.693110197780001130e-03,0.000000000000000000e+00
2.625235683000000098e+00,-2.881662813280000179e+00,5.252527948440000038e-01,-9.277450184560001034e+00,-8.514730632310001102e-02,-2.529776692390000026e-01,-5.448312964289999706e-03,0.000000000000000000e+00
2.630231317999999874e+00,-3.016454437820000223e+00,8.494369277689999276e-01,-9.261327901799999651e+00,-8.008592575789999501e-02,-2.531374692919999836e-01,-5.829197354609999722e-03,1.000000000000000000e+00
2.635214658999999848e+00,-3.167622319890000426e+00,1.059306005130000061e+00,-9.252080180980000179e+00,-3.874298185109999876e-02,-2.504800558090000129e-01,7.881237193940000482e-03,1.000000000000000000e+00
2.640090398999999977e+00,-3.078889851210000028e+00,1.291280458249999930e+00,-9.238946558649999474e+00,-6.776240188629999855e-03,-2.621536850930000218e-01,-1.136097125710000023e-02,1.000000000000000000e+00
2.645079266000000207e+00,-3.089229166650000025e+00,1.506034385039999979e+00,-9.311364144600000614e+00,4.035686701540000532e-02,-2.647733688349999670e-01,-3.774643689389999696e-02,1.000000000000000000e+00
2.650084275000000211e+00,-2.989182984539999755e+00,1.528608474289999908e+00,-9.276054930810001764e+00,8.217862248420000626e-02,-2.672217488290000165e-01,-6.796687841419998821e-02,1.000000000000000000e+00
2.655130011999999873e+00,-2.855541406810000016e+00,1.420876121590000096e+00,-9.412136302909999586e+00,1.278795748949999866e-01,-2.929362952710000134e-01,-6.797301769260000182e-02,1.000000000000000000e+00
2.660040963000000147e+00,-2.807995519520000371e+00,1.371407011150000077e+00,-9.357937679730000013e+00,1.905021965500000025e-01,-2.911898493769999874e-01,-9.506433457139998322e-02,1.000000000000000000e+00
2.665107385000000217e+00,-2.788308530009999675e+00,1.200658522559999941e+00,-9.411913015539999705e+00,2.068905681370000194e-01,-3.060725927349999820e-01,-1.055974736810000036e-01,1.000000000000000000e+00
2.670245791999999785e+00,-2.771645564509999549e+00,1.302187928970000241e+00,-9.500225505250000424e+00,2.228005826470000061e-01,-3.513303697110000123e-01,-1.159012690190000111e-01,1.000000000000000000e+00
2.675250094999999995e+00,-2.769495693000000092e+00,1.370062172409999945e+00,-9.504575517150000152e+00,2.412783801560000052e-01,-3.752824068069999797e-01,-1.431601941589999982e-01,1.000000000000000000e+00
2.680122179000000049e+00,-2.856191687409999957e+00,1.364203947899999880e+00,-9.374110231370000434e+00,2.874657809730000180e-01,-4.162306189540000423e-01,-1.474099904299999986e-01,1.000000000000000000e+00
2.685058830000000007e+00,-2.923077358209999588e+00,1.136999193400000108e+00,-9.275614785830001097e+00,3.213131427760000380e-01,-4.280305206780000149e-01,-1.632264405490000125e-01,0.000000000000000000e+00
2.690128330999999928e+00,-2.866160123719999842e+00,8.948883269980000277e-01,-9.471837615149999223e+00,3.589403927329999910e-01,-4.183905720709999443e-01,-1.884302943939999975e-01,1.000000000000000000e+00
2.695102058999999883e+00,-2.763219681470000300e+00,5.870704781910000003e-01,-9.516993100180000553e+00,3.718118071559999849e-01,-4.815464019780000271e-01,-1.886620372529999867e-01,0.000000000000000000e+00
2.700263000000000080e+00,-2.732130423459999680e+00,2.862081476100000188e-01,-9.628210664650000083e+00,3.799843490119999556e-01,-4.916059374809999549e-01,-1.829766333099999975e-01,0.000000000000000000e+00
2.705213135999999796e+00,-2.784778602319999852e+00,1.845400999130000219e-01,-9.709813427580000322e+00,3.730970323089999874e-01,-5.302670001979999936e-01,-1.708016544579999962e-01,0.000000000000000000e+00
2.710235884999999900e+00,-2.739710795579999747e+00,3.747698263020000087e-01,-9.832215818410000807e+00,3.470558524130000211e-01,-5.589801073069999848e-01,-1.507877409460000040e-01,0.000000000000000000e+00
2.715248391999999900e+00,-2.521675947420000341e+00,6.250265532280000480e-01,-9.982170233039999729e+00,3.662551641460000118e-01,-6.106941103940000115e-01,-1.545289605859999915e-01,0.000000000000000000e+00
2.720207224000000146e+00,-2.488477442179999777e+00,6.037177712069999869e-01,-1.009616836809999896e+01,3.919518589970000244e-01,-6.587649583819999988e-01,-1.607511788609999881e-01,0.000000000000000000e+00
2.725242447999999928e+00,-2.527103817690000032e+00,3.403180695910000275e-01,-1.003808676600000105e+01,4.102775454519999587e-01,-7.081046700480000400e-01,-1.699172705410000039e-01,0.000000000000000000e+00
2.730241566000000120e+00,-2.528142805349999911e+00,2.185207502470000174e-01,-1.034311366899999918e+01,3.988040685650000028e-01,-7.833422422409999086e-01,-1.484591662879999885e-01,0.000000000000000000e+00
2.735283534000000127e+00,-2.360219749450000126e+00,4.273311306009999755e-01,-1.048580832170000043e+01,4.116716086860000567e-01,-8.624096512790000446e-01,-1.423503160479999974e-01,0.000000000000000000e+00
2.740242686999999844e+00,-2.275096995699999791e+00,5.903987823630000298e-01,-1.059318499279999948e+01,4.267831146720000302e-01,-9.642036557200001079e-01,-1.576537489890000032e-01,0.000000000000000000e+00
2.745088266999999860e+00,-2.441235652400000067e+00,4.576823566580000002e-01,-1.073568090820000087e+01,4.276471734049999696e-01,-1.050148963929999901e+00,-1.657211333509999995e-01,0.000000000000000000e+00
2.750137239999999927e+00,-2.463374272839999879e+00,6.005265374179999949e-01,-1.072356610749999994e+01,4.396794140339999601e-01,-1.160926699640000059e+00,-1.619488149880000116e-01,0.000000000000000000e+00
2.755046392000000122e+00,-2.536984867979999780e+00,8.366499999750000027e-01,-1.082987310359999888e+01,4.447717666630000011e-01,-1.247550487520000084e+00,-1.680481731890000052e-01,0.000000000000000000e+00
2.760076231999999852e+00,-2.534783266279999836e+00,1.085364648560000145e+00,-1.081395891060000025e+01,4.731864631180000558e-01,-1.340655446049999977e+00,-1.711705774069999797e-01,0.000000000000000000e+00
2.765095409999999809e+00,-2.494001758559999615e+00,1.263320438179999838e+00,-1.072607019929999872e+01,5.193777680400000207e-01,-1.454120278360000018e+00,-1.888272762300000074e-01,0.000000000000000000e+00
2.770015449000000185e+00,-2.808635278729999740e+00,1.338245330779999964e+00,-1.071426519519999943e+01,5.571647286420000622e-01,-1.546453833579999770e+00,-1.982941180469999787e-01,0.000000000000000000e+00
2.775038871000000018e+00,-2.822848513000000281e+00,1.374186704989999841e+00,-1.068580716239999973e+01,6.012051701549999683e-01,-1.669214725490000051e+00,-2.007428705689999759e-01,0.000000000000000000e+00
2.780120172000000167e+00,-2.918936605139999863e+00,1.409179400179999986e+00,-1.069339425659999954e+01,6.790154576299999301e-01,-1.802871465679999785e+00,-2.331654131410000053e-01,0.000000000000000000e+00
2.785274580999999916e+00,-2.959893761690000513e+00,1.464512580349999871e+00,-1.077055114599999897e+01,7.050951123240000173e-01,-1.886444926259999821e+00,-2.573220729830000275e-01,0.000000000000000000e+00
2.790227162999999955e+00,-2.939449524070000042e+00,1.483757379039999824e+00,-1.074231523160000101e+01,7.416069507600000499e-01,-1.999885678290000302e+00,-2.859209179880000118e-01,0.000000000000000000e+00
2.795076619000000040e+00,-2.744779477149999813e+00,1.486412569729999911e+00,-1.078048567999999996e+01,8.176347017290001018e-01,-2.135449886319999990e+00,-3.292231559750000147e-01,0.000000000000000000e+00
2.800232985000000063e+00,-2.791715708109999916e+00,1.326275929920000207e+00,-1.086644079299999888e+01,8.766319751739999333e-01,-2.246145486830000149e+00,-3.468373119829999407e-01,0.000000000000000000e+00
2.805128605999999802e+00,-2.746595294400000054e+00,1.130012549389999954e+00,-1.096221002839999947e+01,9.606627225880000065e-01,-2.387598991390000425e+00,-3.345241248609999718e-01,0.000000000000000000e+00
2.810088589999999886e+00,-2.362665681290000208e+00,7.771210486210000656e-01,-1.120361289269999894e+01,1.032670140270000037e+00,-2.518868446349999957e+00,-3.602165281770000060e-01,0.000000000000000000e+00
2.815030603999999936e+00,-2.396339402840000243e+00,6.218559603679999492e-01,-1.142928042770000019e+01,1.089162826539999962e+00,-2.705325365070000210e+00,-3.841910362240000265e-01,0.000000000000000000e+00
2.820256235000000000e+00,-2.398999708090000293e+00,4.866080434229999585e-01,-1.176932136079999935e+01,1.115648031229999892e+00,-2.896251678470000090e+00,-3.642955422399999921e-01,0.000000000000000000e+00
2.825232705999999983e+00,-1.972865568720000073e+00,3.039297827270000252e-02,-1.168760052450000053e+01,1.164397478099999939e+00,-3.115454196930000030e+00,-3.642732203010000114e-01,0.000000000000000000e+00
2.830153845999999973e+00,-1.931271575570000065e+00,-2.234292728149999963e-01,-1.185225917180000010e+01,1.211344003679999837e+00,-3.300327539440000013e+00,-3.489869534969999854e-01,0.000000000000000000e+00
2.835281151999999860e+00,-1.672437830160000027e+00,-1.792738864799999776e-01,-1.214271160589999887e+01,1.263965010639999997e+00,-3.524934768680000108e+00,-3.310770690439999719e-01,0.000000000000000000e+00
2.840170694000000218e+00,-1.354608290429999862e+00,8.235087788510001006e-02,-1.229898119499999964e+01,1.331871271129999812e+00,-3.787046194080000650e+00,-3.141939342020000359e-01,0.000000000000000000e+00
2.845213124999999899e+00,-1.265318187869999944e+00,2.463206478530000076e-01,-1.256023909880000033e+01,1.436638832089999873e+00,-4.075036048890000373e+00,-2.937839627270000253e-01,0.000000000000000000e+00
2.850236211999999991e+00,-7.142949554170000548e-01,5.225815298089999672e-01,-1.285787647599999950e+01,1.543916583059999903e+00,-4.392115592959999759e+00,-2.783589363099999714e-01,0.000000000000000000e+00
2.855125281999999931e+00,-1.438757340310000132e-01,1.005181908489999998e+00,-1.293742873609999933e+01,1.671754121780000046e+00,-4.720907211300000128e+00,-2.574870288369999760e-01,0.000000000000000000e+00
2.860058899999999849e+00,5.502323012680000458e-01,1.635694199659999848e+00,-1.293011402920000030e+01,1.821536064150000023e+00,-5.108910560610000040e+00,-2.439339160920000193e-01,0.000000000000000000e+00
2.865228767000000065e+00,7.651868651989999215e-01,2.269945604280000140e+00,-1.299938571839999923e+01,2.018699884409999701e+00,-5.548356533049999761e+00,-2.793484628199999764e-01,0.000000000000000000e+00
2.870119867000000102e+00,1.119293221650000003e+00,2.813150125800000012e+00,-1.304399993609999875e+01,2.256462097170000014e+00,-5.992681026460000560e+00,-3.120732307429999741e-01,0.000000000000000000e+00
2.875264371000000097e+00,1.612374260479999766e+00,4.128318824639999995e+00,-1.267331719650000110e+01,2.582122087480000161e+00,-6.552887916560000470e+00,-4.041186869139999915e-01,0.000000000000000000e+00
2.880034438000000030e+00,9.754257987850000200e-01,5.694466025340000570e+00,-1.371492117539999889e+01,3.128270864490000136e+00,-7.094044208530000617e+00,-5.422646403309999696e-01,0.000000000000000000e+00
2.885066284000000092e+00,-1.114129409139999888e-01,6.639019496799999587e+00,-1.434904676160000037e+01,3.805935621259999735e+00,-7.679820537569999495e+00,-7.450766563420000432e-01,0.000000000000000000e+00
2.890032785999999909e+00,-1.399360455349999866e+00,7.265560327050000211e+00,-1.445884569150000054e+01,4.727456092830000678e+00,-8.277966499330000616e+00,-8.907766342159999517e-01,0.000000000000000000e+00
2.895038570000000089e+00,-3.711884095380000304e+00,7.302749947760000637e+00,-1.516623174430000098e+01,5.790259361269999516e+00,-8.791292190549999219e+00,-1.125647664069999943e+00,0.000000000000000000e+00
2.900233120999999858e+00,-9.134621091769998813e+00,6.687880266089999637e+00,-1.741470975929999909e+01,6.729013919830000745e+00,-9.065721511839999636e+00,-1.235336780550000180e+00,0.000000000000000000e+00
2.905140410000000006e+00,-1.241638826179999988e+01,4.032425816679999775e-01,-1.706256454680000090e+01,7.407279968260001013e+00,-9.122635841370000165e+00,-1.204780697819999968e+00,0.000000000000000000e+00
2.910236564999999942e+00,-1.567643985900000025e+01,-2.471257135050000109e+00,-1.711676024739999846e+01,7.420739650730000747e+00,-9.143504142759999453e+00,-8.323464393619999235e-01,0.000000000000000000e+00
2.915201879000000051e+00,-1.697944202700000105e+01,-1.091238947420000160e+00,-1.779526273559999794e+01,6.865147113799999978e+00,-9.141233444210000059e+00,-4.723327755929999650e-01,0.000000000000000000e+00
2.920245475999999840e+00,-1.444408183760000064e+01,-5.170344536079999997e+00,-1.750733426700000095e+01,5.916733741759999887e+00,-9.017103195189999809e+00,-2.806524634360000325e-01,0.000000000000000000e+00
2.925112228999999786e+00,-1.866100628970000130e+01,-1.272109367760000076e+01,-1.952923055469999980e+01,4.724155426030000271e+00,-8.795273780820000553e+00,-5.750386789440000562e-02,0.000000000000000000e+00
2.930235993000000150e+00,-1.990488056140000239e+01,-1.711422108430000222e+01,-1.972404585529999821e+01,3.546400308609999996e+00,-8.246158599850000215e+00,1.236498430369999957e-01,0.000000000000000000e+00
