t,ax,ay,az,wx,wy,wz,zv
5.191300000000000255e-03,-2.781891940970000032e+00,2.996584894819999678e-01,-9.352643664969999548e+00,3.968967124820000150e-03,1.233493722979999915e-02,-8.478472940619999343e-03,1.000000000000000000e+00
1.016035600000000060e-02,-2.841245170429999689e+00,3.152097856889999883e-01,-9.339815163060000813e+00,3.620657604189999896e-03,-1.109199598429999947e-03,1.572886016220000072e-03,1.000000000000000000e+00
1.517369399999999972e-02,-2.821833490740000006e+00,2.780266495190000242e-01,-9.385390334800000289e+00,1.641137711700000126e-02,-8.138286881149998236e-03,-1.023460645229999980e-02,1.000000000000000000e+00
2.013436399999999835e-02,-2.854675729890000291e+00,2.982697568039999747e-01,-9.383124143430000785e+00,5.958658177409999375e-03,-1.592119457200000211e-03,-5.737172905359999228e-03,1.000000000000000000e+00
2.508426199999999953e-02,-2.879034802860000131e+00,2.423479996279999937e-01,-9.389573757959999156e+00,1.102113816889999966e-02,-8.080205880109998795e-03,5.830483045430000927e-03,1.000000000000000000e+00
3.019340699999999850e-02,-2.824908952659999528e+00,3.019980748780000113e-01,-9.359644483649999458e+00,1.792016625399999938e-02,1.520770369099999977e-03,1.315961591899999974e-03,1.000000000000000000e+00
3.508213500000000040e-02,-2.840953201750000101e+00,3.291052227140000008e-01,-9.387360173570000299e+00,1.223145052789999937e-02,-5.663829855619999763e-03,6.385460030290000463e-03,1.000000000000000000e+00
4.018316899999999775e-02,-2.826224419169999891e+00,2.672852012800000510e-01,-9.386710185229999226e+00,-7.892923429609999958e-03,-5.870279856029999438e-03,3.871177323159999688e-04,1.000000000000000000e+00
4.510275700000000026e-02,-2.828628557699999657e+00,2.351079105730000118e-01,-9.389198494910001358e+00,-1.887344755230000067e-03,8.723313920199999433e-03,1.447444781660000169e-03,1.000000000000000000e+00
5.021529599999999954e-02,-2.831754873029999953e+00,2.517453763149999912e-01,-9.406137354750001123e+00,1.690085232259999973e-02,1.368325902149999983e-03,-1.469614543019999962e-02,1.000000000000000000e+00
5.521803000000000128e-02,-2.860792751470000006e+00,2.864341931850000189e-01,-9.380368707249999716e+00,-7.922902703289999918e-03,-7.880917750300000385e-03,-1.205297000710000080e-02,1.000000000000000000e+00
6.028545099999999685e-02,-2.866328173759999931e+00,2.493976806780000000e-01,-9.393625663699999961e+00,-3.451050724830000051e-03,-2.850090339779999885e-02,4.124294500799999263e-04,1.000000000000000000e+00
6.515907499999999686e-02,-2.816165089709999680e+00,2.341100769090000144e-01,-9.371016941529999755e+00,8.378382772210000995e-03,-8.235836401580000007e-03,-9.745347313580000198e-03,1.000000000000000000e+00
7.017271199999999820e-02,-2.855386508510000088e+00,2.365620366380000172e-01,-9.370476843310001414e+00,1.003555208439999881e-02,3.981433808800000432e-03,-9.644974023099999946e-03,1.000000000000000000e+00
7.521623400000000681e-02,-2.846320573999999937e+00,2.494297563170000120e-01,-9.380009226280000334e+00,-4.222397692500000181e-03,-2.375730499630000075e-02,4.838892258699999810e-03,1.000000000000000000e+00
8.024094800000000638e-02,-2.830070865469999752e+00,2.530218077259999698e-01,-9.392111167490000412e+00,-1.958799548449999825e-04,-5.376021843399999070e-03,-7.253723684699999938e-03,1.000000000000000000e+00
8.513067000000000550e-02,-2.887223662279999825e+00,2.686270260770000085e-01,-9.379987598969998785e+00,3.539801575239999703e-03,-4.805584903810000696e-03,4.448526538909999481e-03,1.000000000000000000e+00
9.008529699999999474e-02,-2.848143113249999914e+00,3.078918273580000253e-01,-9.375691363080001395e+00,1.473856507799999917e-03,-6.778934039180000738e-03,-3.955017309640000288e-04,1.000000000000000000e+00
9.510809400000000413e-02,-2.860641944819999782e+00,2.866462832989999931e-01,-9.359811072390000319e+00,-3.687342978080000592e-04,-3.229737281800000321e-03,-2.679586410519999799e-03,1.000000000000000000e+00
1.001951170000000002e-01,-2.836628908809999849e+00,2.474043514359999807e-01,-9.350560428959999726e+00,7.248593959960000603e-03,-1.421673316510000014e-02,-7.145794574169999323e-03,1.000000000000000000e+00
1.052173879999999950e-01,-2.847240903719999938e+00,2.517648664669999703e-01,-9.400416639019999465e+00,-2.227355958889999828e-03,5.312531720849999811e-04,-1.111613400279999955e-02,1.000000000000000000e+00
1.101050769999999956e-01,-2.900065608190000255e+00,2.351607367390000092e-01,-9.404397817610000487e+00,6.563820410520000530e-03,3.524743719029999924e-03,1.135868951679999943e-04,1.000000000000000000e+00
1.151337379999999994e-01,-2.835493767300000023e+00,2.710032171560000092e-01,-9.368879929500000259e+00,1.116690039630000020e-02,1.637211302300000098e-03,-4.926354158669999641e-04,1.000000000000000000e+00
1.202373949999999969e-01,-2.867686894900000283e+00,2.648860677159999844e-01,-9.411364734010000177e+00,2.490724436939999956e-03,-2.753360429780000052e-03,-1.285704970360000178e-02,1.000000000000000000e+00
1.252170900000000031e-01,-2.860991488909999880e+00,2.840957403000000103e-01,-9.372245606539999940e+00,8.943728171289999293e-04,1.762422034519999956e-03,-5.850681103770000342e-03,1.000000000000000000e+00
1.301470570000000104e-01,-2.885340040490000035e+00,2.798705055540000042e-01,-9.319130686950000353e+00,-6.918196100739999396e-03,-4.965956788510000018e-03,3.239580430090000223e-03,1.000000000000000000e+00
1.352346050000000077e-01,-2.863317009250000211e+00,3.451747158420000461e-01,-9.326015185770000215e+00,-3.794580232349999572e-03,-9.940172545610000479e-03,8.950509130950001432e-03,1.000000000000000000e+00
1.400859670000000057e-01,-2.861365290659999783e+00,2.781206844779999798e-01,-9.386904246489999437e+00,1.125015597790000009e-02,1.550932042300000140e-02,2.049430739129999915e-03,1.000000000000000000e+00
1.451009719999999947e-01,-2.872536088490000417e+00,2.911019475340000384e-01,-9.392229240910001664e+00,-1.496567297730000065e-02,-1.215995522219999979e-03,8.871449157600000759e-03,1.000000000000000000e+00
1.502361500000000127e-01,-2.837407491970000084e+00,3.186412579749999807e-01,-9.370967841689999744e+00,3.656085114929999869e-03,-1.652747392649999911e-02,-1.960552763189999867e-03,1.000000000000000000e+00
1.551920390000000038e-01,-2.865640191499999823e+00,3.012467633209999773e-01,-9.322873380610001703e+00,8.495600195599999592e-04,1.705604419109999978e-02,-2.741939388220000079e-03,1.000000000000000000e+00
1.601988470000000053e-01,-2.839480206590000222e+00,2.709401618569999837e-01,-9.377159682069999391e+00,5.724615417420000213e-03,-1.738853007559999775e-02,-2.547763986510000189e-03,1.000000000000000000e+00
1.650590839999999948e-01,-2.853615991709999911e+00,2.697142367909999838e-01,-9.386344859050000267e+00,2.942193299530000260e-03,-4.890107549729999677e-03,-1.270276843569999965e-03,1.000000000000000000e+00
1.700252309999999989e-01,-2.853225823339999856e+00,2.474261614090000061e-01,-9.351509107989999237e+00,-1.628856360910000203e-02,-8.324564434589998979e-03,-1.545381965119999946e-03,1.000000000000000000e+00
1.751739850000000043e-01,-2.860217874190000398e+00,2.781241368110000112e-01,-9.383534477799999607e+00,3.175357822329999847e-03,2.878401614730000113e-02,-5.363804288210000798e-03,1.000000000000000000e+00
1.800901069999999993e-01,-2.874056429929999545e+00,2.509068796639999932e-01,-9.361114556200000436e+00,1.446925289929999921e-02,1.190494094039999846e-02,5.608648527410000154e-03,1.000000000000000000e+00
1.850497759999999992e-01,-2.841276150090000119e+00,2.932775562739999842e-01,-9.408277289389998188e+00,5.774209275839999912e-04,-1.418034825469999954e-02,5.638642702249999604e-03,1.000000000000000000e+00
1.901223760000000096e-01,-2.905575019260000058e+00,2.985036751579999703e-01,-9.372430315460000827e+00,1.099854428320000237e-02,-2.099249977619999791e-03,1.597490347920000123e-02,1.000000000000000000e+00
1.950090140000000083e-01,-2.824754346619999801e+00,2.627137651779999916e-01,-9.365202702299999515e+00,-7.346475962549999655e-03,6.482154130939999682e-03,9.220657870170000450e-03,1.000000000000000000e+00
1.999849589999999899e-01,-2.779759020600000241e+00,2.925513608909999785e-01,-9.337883902739999797e+00,2.650233916939999726e-03,-2.154615242030000124e-03,-1.280127791690000060e-03,1.000000000000000000e+00
2.050899790000000056e-01,-2.883805670529999698e+00,2.734644196380000003e-01,-9.377185401030001088e+00,-3.266162704679999654e-03,-9.084207005799999762e-03,7.926288526510000178e-04,1.000000000000000000e+00
2.100422829999999963e-01,-2.870416904379999856e+00,3.222882727079999787e-01,-9.364821594020000362e+00,-2.583062276239999743e-03,9.823744185269999568e-03,3.169381059709999726e-03,1.000000000000000000e+00
2.150703790000000060e-01,-2.838104242059999560e+00,2.804636674079999947e-01,-9.377163189199999138e+00,-5.036319606010000033e-03,-9.817568585280000287e-03,1.520288176829999926e-03,1.000000000000000000e+00
2.201908660000000129e-01,-2.849004990780000135e+00,2.531169751960000158e-01,-9.383587084769999365e+00,-7.062025833869999079e-04,-6.493804045020000471e-03,-3.956148400900000306e-03,1.000000000000000000e+00
2.251417199999999896e-01,-2.885655682309999914e+00,2.761364518589999872e-01,-9.339311305189999857e+00,1.157299499029999920e-03,3.289347281679999829e-03,4.016018472610000285e-03,1.000000000000000000e+00
2.300959399999999988e-01,-2.820070572720000168e+00,3.067025079760000161e-01,-9.366768051919999394e+00,1.942669972779999948e-02,1.062237471339999920e-02,-4.155199043449999720e-03,1.000000000000000000e+00
2.349198469999999872e-01,-2.850390599919999879e+00,3.008443930649999931e-01,-9.369393724239998278e+00,-1.060615107419999974e-02,5.694892257449999697e-03,-1.278238929810000118e-02,1.000000000000000000e+00
2.400816339999999882e-01,-2.873958814769999925e+00,2.554737126559999960e-01,-9.382655941399999477e+00,-2.265413058919999931e-03,4.751917440439999934e-04,-1.244771061470000082e-03,1.000000000000000000e+00
2.450121319999999936e-01,-2.849471146990000037e+00,2.604922532039999905e-01,-9.358418156719999104e+00,1.286537759010000087e-02,-2.235374180599999840e-03,-9.437380358580001183e-03,1.000000000000000000e+00
2.501516839999999853e-01,-2.905686662940000442e+00,2.495456012489999931e-01,-9.386928796410000331e+00,-8.506645448510000151e-03,1.048459578310000084e-02,1.029257662589999969e-02,1.000000000000000000e+00
2.551290549999999935e-01,-2.850048362350000364e+00,2.662610093309999981e-01,-9.376530736519999465e+00,7.599906530229999686e-03,3.329541767020000129e-03,5.467012990270000809e-03,1.000000000000000000e+00
2.599610359999999787e-01,-2.820630836949999942e+00,2.731685784959999586e-01,-9.390579135610000350e+00,-9.683130308990000115e-03,-1.882798597219999953e-02,9.321616962549999792e-04,1.000000000000000000e+00
2.650329240000000031e-01,-2.828317007539999928e+00,2.711545352599999958e-01,-9.349899334699999898e+00,7.054555462670000733e-04,-3.713821992280000317e-03,-1.475403434599999999e-03,1.000000000000000000e+00
2.701581530000000120e-01,-2.841786729959999924e+00,2.411311711850000206e-01,-9.385316685039999385e+00,-2.669095061719999572e-03,4.167072474960000113e-03,2.477210946379999738e-04,1.000000000000000000e+00
2.751616510000000071e-01,-2.824318585549999927e+00,2.862988763670000214e-01,-9.388084396189999126e+00,1.055610552429999890e-02,-1.385436579589999911e-02,-5.957782268519999647e-03,1.000000000000000000e+00
2.800927579999999972e-01,-2.885425380680000096e+00,2.721707996309999933e-01,-9.381312710099999563e+00,2.548432908949999683e-03,-1.034478563820000023e-02,6.685438100250000286e-03,1.000000000000000000e+00
2.850399590000000094e-01,-2.832072852940000107e+00,2.962958446489999953e-01,-9.334339946520000098e+00,-9.169287048279999713e-03,5.881251767279999619e-03,2.151632681489999959e-03,1.000000000000000000e+00
2.901608250000000111e-01,-2.850129318629999631e+00,2.816174405530000313e-01,-9.385243035280000257e+00,7.648610044270000990e-03,1.443282002579999957e-03,1.751336269080000074e-03,1.000000000000000000e+00
2.950671100000000213e-01,-2.826880544990000299e+00,2.891314329119999971e-01,-9.340075275300000257e+00,-1.317533291879999929e-02,5.854911170899999850e-03,-8.547347038980000061e-03,1.000000000000000000e+00
3.001013459999999911e-01,-2.868355295680000250e+00,2.662060094750000050e-01,-9.385863797529999886e+00,8.896931074559999084e-03,6.657727994020000428e-03,-7.712812628600000490e-03,1.000000000000000000e+00
3.051362220000000125e-01,-2.851561397260000241e+00,2.922694021439999901e-01,-9.382374786369998887e+00,5.347873084250000589e-04,-8.643155917530001217e-03,3.689501900229999899e-03,1.000000000000000000e+00
3.100767440000000152e-01,-2.850928360059999722e+00,2.506225828300000513e-01,-9.394478481140000170e+00,-9.792460128659998680e-03,-1.368947047740000020e-02,2.209235914050000117e-03,1.000000000000000000e+00
3.151974459999999922e-01,-2.832089511810000015e+00,2.351985297329999836e-01,-9.389624026849999083e+00,6.037696264679999654e-03,-1.212454284540000031e-03,-8.387163281439999341e-03,1.000000000000000000e+00
3.200825039999999899e-01,-2.856787315220000067e+00,2.744083494239999976e-01,-9.394660851970000337e+00,-1.179407257590000049e-02,1.891821855680000074e-03,-6.686033681039999649e-03,1.000000000000000000e+00
3.250928020000000140e-01,-2.911512592620000284e+00,2.495249785860000069e-01,-9.389314230249999227e+00,1.064875395970000019e-04,-1.338527724149999980e-02,1.601178571579999974e-02,1.000000000000000000e+00
3.300514279999999800e-01,-2.803262938040000041e+00,2.650739915040000172e-01,-9.365360523210000565e+00,-1.189825870099999947e-02,-5.262580234559999888e-04,7.582434918730000372e-04,1.000000000000000000e+00
3.351844820000000058e-01,-2.831659888220000365e+00,2.723175328909999693e-01,-9.366823581500000273e+00,1.015113200989999943e-02,1.258655358110000178e-02,-1.703742705290000117e-02,1.000000000000000000e+00
3.402397569999999760e-01,-2.854066365820000062e+00,2.972145851949999917e-01,-9.363151614979999593e+00,-4.199438728390000007e-03,1.034529041499999968e-02,-7.339842617510000666e-03,1.000000000000000000e+00
3.451189559999999767e-01,-2.927879205529999584e+00,2.866910174900000330e-01,-9.360585563889999960e+00,8.507401682439999849e-03,2.334210788829999775e-03,1.733850128949999958e-02,1.000000000000000000e+00
3.500774919999999901e-01,-2.814000020629999543e+00,2.720492556099999848e-01,-9.393380749029999421e+00,8.110636845229999767e-03,1.560038514440000024e-02,-4.010930191730000156e-03,1.000000000000000000e+00
3.551265710000000020e-01,-2.838106872410000037e+00,2.649502007270000403e-01,-9.384131859169999146e+00,-1.983079826459999834e-03,-1.011958904560000122e-02,-7.016453426329999701e-03,1.000000000000000000e+00
3.602511030000000170e-01,-2.884588637599999839e+00,2.411472820690000185e-01,-9.400795409199998787e+00,5.403976887460000891e-03,1.378117501739999952e-02,-4.842087160800000178e-03,1.000000000000000000e+00
3.650922209999999946e-01,-2.851509667080000199e+00,2.995760901619999861e-01,-9.364413597739998707e+00,6.385772023350000381e-03,5.963434465229998718e-03,4.465679172430000142e-03,1.000000000000000000e+00
3.702330209999999955e-01,-2.857625519609999554e+00,2.792561730479999893e-01,-9.383978714439999536e+00,7.174019236119999650e-03,-1.024685986339999959e-02,6.935705896470001006e-03,1.000000000000000000e+00
3.750852550000000063e-01,-2.809705246050000049e+00,2.747248497610000340e-01,-9.349908102529999709e+00,6.128578446809999566e-03,3.570831613619999869e-03,-5.255057476460000404e-03,1.000000000000000000e+00
3.801607359999999991e-01,-2.909885868199999948e+00,2.674241165599999803e-01,-9.391225032299999498e+00,3.744924906639999791e-03,6.650667637589999757e-03,6.062439177189998980e-03,1.000000000000000000e+00
3.852160250000000175e-01,-2.846880545969999954e+00,2.796333723300000185e-01,-9.353250398700000190e+00,-2.222985960540000208e-02,3.226632019500000250e-03,-1.276075840000000065e-02,1.000000000000000000e+00
3.902529519999999863e-01,-2.878924035959999461e+00,2.446693369819999964e-01,-9.385569783019999335e+00,9.709939360620001639e-03,8.153109811249999866e-03,1.187442615629999941e-02,1.000000000000000000e+00
3.951001490000000116e-01,-2.829785911050000102e+00,2.553511639889999851e-01,-9.393618064920000066e+00,1.252966467289999986e-04,-1.597962691449999985e-03,4.820208530869999307e-03,1.000000000000000000e+00
4.000081959999999826e-01,-2.866274982269999771e+00,2.546216258710000124e-01,-9.353338076980000082e+00,1.358081307260000127e-02,2.476991852749999955e-03,5.602564197030000803e-04,1.000000000000000000e+00
4.050719039999999826e-01,-2.843858860059999660e+00,2.650604013699999761e-01,-9.376607308889999715e+00,5.495105404410000408e-03,-1.105028577150000101e-02,-5.925388075409999608e-03,1.000000000000000000e+00
4.102066589999999735e-01,-2.840389722649999893e+00,2.854697138010000024e-01,-9.349676631860001308e+00,-3.043352626260000492e-03,-7.892141118649999634e-03,-7.873276248569999886e-03,1.000000000000000000e+00
4.151396159999999891e-01,-2.860728746320000404e+00,2.721273258149999874e-01,-9.377185401030001088e+00,-9.885627776379999482e-03,3.998351283370000023e-03,3.450233489269999981e-03,1.000000000000000000e+00
4.202480690000000019e-01,-2.861400069709999716e+00,2.948992209250000385e-01,-9.370452877910000922e+00,-7.317186333239999660e-03,9.034335613250000369e-03,-1.158013357779999909e-03,1.000000000000000000e+00
4.251639810000000241e-01,-2.846012823230000155e+00,2.719324608300000001e-01,-9.403184350169999206e+00,4.572085570539999831e-03,-3.422371111810000067e-03,-1.646285294559999808e-03,1.000000000000000000e+00
4.301051699999999811e-01,-2.846554382759999502e+00,2.374694703390000106e-01,-9.399375605530000399e+00,-8.992579765620001969e-03,-1.022698637100000023e-02,-1.526033389380000022e-03,1.000000000000000000e+00
4.352206579999999825e-01,-2.837950512799999547e+00,2.745597771259999931e-01,-9.373450890680000924e+00,1.059978175910000070e-02,-3.069976111870000111e-03,-4.841208457949999593e-03,1.000000000000000000e+00
4.401086790000000026e-01,-2.841953610959999654e+00,2.601140675409999714e-01,-9.392496367410000602e+00,-2.512644743550000292e-03,2.077209996060000105e-03,-5.041025578979999554e-03,1.000000000000000000e+00
4.451037600000000150e-01,-2.849099391060000208e+00,2.660089342660000300e-01,-9.398505836960001858e+00,-1.001724135129999915e-02,4.893273115159999659e-03,-1.557675655930000104e-03,1.000000000000000000e+00
4.501878120000000205e-01,-2.893531530249999761e+00,2.794591117419999993e-01,-9.367948786130000371e+00,-2.100142184640000059e-03,1.291767694060000186e-02,1.009458862249999929e-02,1.000000000000000000e+00
4.552000669999999860e-01,-2.821654042520000516e+00,2.576369368379999858e-01,-9.408828493530000614e+00,2.040549647059999774e-03,-1.718903146679999841e-02,-6.598126143220000260e-03,1.000000000000000000e+00
4.602068500000000006e-01,-2.843195427720000001e+00,2.565255415300000119e-01,-9.385940369900000135e+00,-1.047457754610000083e-02,-1.792068220670000114e-02,4.797802772369999871e-03,1.000000000000000000e+00
4.651525380000000043e-01,-2.829240844379999675e+00,2.455685873759999860e-01,-9.415644018769999235e+00,5.440191365779998775e-03,5.862531252210000099e-03,8.336067199709999362e-03,1.000000000000000000e+00
4.701590549999999924e-01,-2.829017557020000240e+00,2.649675354550000139e-01,-9.382885073980000712e+00,6.104222498830000170e-03,-3.170319832860000477e-04,-2.358166966590000125e-04,1.000000000000000000e+00
4.751783889999999788e-01,-2.808833431650000101e+00,2.781528331820000144e-01,-9.353228186860000903e+00,-2.768007339909999732e-03,-1.547296904029999906e-02,3.014128189530000234e-03,1.000000000000000000e+00
4.802894140000000256e-01,-2.827212553429999886e+00,2.626577424089999724e-01,-9.373429263369999376e+00,4.496232606470000268e-03,-2.452639862900000099e-03,-4.653659649189999595e-03,1.000000000000000000e+00
4.851542939999999859e-01,-2.855116167139999828e+00,2.984613703860000133e-01,-9.367180139849999421e+00,4.884506575759999837e-03,1.059934683139999827e-02,-7.550332695249999809e-03,1.000000000000000000e+00
4.900527230000000234e-01,-2.843447064390000278e+00,2.722878136059999621e-01,-9.353677684199999121e+00,-4.571331664919999795e-03,1.238544192170000155e-02,1.097712898630000093e-03,1.000000000000000000e+00
4.950653059999999828e-01,-2.856300408480000108e+00,2.578776867909999826e-01,-9.386939317810000460e+00,5.814581643789999699e-03,-8.198776282370000279e-03,-5.218696780499999799e-03,1.000000000000000000e+00
5.001059629999999867e-01,-2.875595768320000190e+00,2.697453077829999879e-01,-9.384994028959999568e+00,1.994599774479999948e-02,7.035847753289999409e-03,4.505372140560000814e-03,1.000000000000000000e+00
5.052521460000000131e-01,-2.867350210290000589e+00,2.629856591890000206e-01,-9.346419675889999112e+00,3.390569239850000065e-03,4.311226308350000515e-03,3.922690637409999292e-03,1.000000000000000000e+00
5.101695200000000430e-01,-2.852513875680000144e+00,2.388937857879999960e-01,-9.374195571569998719e+00,3.086684271690000488e-03,-1.471212320029999764e-02,4.688750952479999595e-03,1.000000000000000000e+00
5.151573080000000360e-01,-2.830988272570000408e+00,2.766701020780000242e-01,-9.404482573280001034e+00,-2.045997604729999850e-02,8.596506901089999778e-03,-2.203092677519999983e-03,1.000000000000000000e+00
5.200786880000000112e-01,-2.815098337260000250e+00,2.757880402800000352e-01,-9.366476960019999964e+00,3.508808556940000174e-03,1.338901696730000063e-03,-1.409882307049999985e-02,1.000000000000000000e+00
5.252232839999999570e-01,-2.869870084150000000e+00,2.709070633049999732e-01,-9.380754491689998531e+00,-6.361103616650000056e-03,-3.889936488119999803e-03,1.870269421490000162e-03,1.000000000000000000e+00
5.301713150000000319e-01,-2.885222551590000517e+00,2.803973789720000109e-01,-9.395497302789999949e+00,-7.346460479310000296e-04,1.315894164139999947e-02,1.108540594580000038e-02,1.000000000000000000e+00
5.350771130000000486e-01,-2.764480202919999741e+00,3.233044640130000036e-01,-9.362803824460000257e+00,5.469315219669999839e-03,5.327629856769999957e-03,-1.341068930920000235e-02,1.000000000000000000e+00
5.401909400000000083e-01,-2.861707235959999540e+00,2.553660692970000090e-01,-9.392389984430000283e+00,-1.264969073239999992e-02,-6.917423568669999780e-03,-4.797642584890000547e-03,1.000000000000000000e+00
5.450807989999999492e-01,-2.857835362969999959e+00,2.459240497509999901e-01,-9.397338546749999466e+00,-1.184679381550000042e-02,9.111030958589999909e-03,-1.471419446170000103e-02,1.000000000000000000e+00
5.501310750000000249e-01,-2.870578232419999765e+00,2.828893967170000301e-01,-9.377937096180000154e+00,-4.671828355640000353e-03,-7.319165393710000238e-03,-7.431654259559999573e-03,1.000000000000000000e+00
5.551994489999999560e-01,-2.869228279120000114e+00,2.723199440440000063e-01,-9.362348481910000686e+00,1.759857987049999982e-03,-6.158431991929999745e-03,-9.026994230229999552e-04,1.000000000000000000e+00
5.601963639999999467e-01,-2.823460215159999898e+00,2.863563056430000198e-01,-9.374274482020000576e+00,-8.901625871660000938e-03,1.761831110340000102e-03,1.301006414000000031e-03,1.000000000000000000e+00
5.651841979999999710e-01,-2.875524456650000005e+00,2.496890283069999883e-01,-9.364664942160001004e+00,4.344372078779999875e-03,-1.125879585740000022e-02,1.268200203779999875e-02,1.000000000000000000e+00
5.702746570000000181e-01,-2.807530532359999942e+00,2.614077058150000021e-01,-9.388368473830000838e+00,8.163292659450000410e-04,9.013335220520000621e-03,-1.481135375800000063e-02,1.000000000000000000e+00
5.752581140000000426e-01,-2.879829168110000115e+00,2.770518496699999611e-01,-9.364805227410000654e+00,3.080886788669999661e-03,5.822318606079999494e-03,-2.231358783320000136e-03,1.000000000000000000e+00
5.801961469999999954e-01,-2.858097228770000164e+00,2.757032298070000165e-01,-9.387181309869999879e+00,6.101997569199999480e-04,9.415228851139999938e-03,-5.654286593200000093e-03,1.000000000000000000e+00
5.852365809999999779e-01,-2.889850211390000201e+00,2.470698039860000084e-01,-9.404365668900000585e+00,8.304293267430000805e-03,3.171740332620000269e-03,-1.688923570329999750e-03,1.000000000000000000e+00
5.901535820000000099e-01,-2.858758615290000638e+00,2.424811062229999814e-01,-9.372959892289999928e+00,3.392641665409999946e-04,8.750435896219998372e-03,1.072352984920000099e-03,1.000000000000000000e+00
5.951656020000000158e-01,-2.877063795049999761e+00,2.638378921039999936e-01,-9.386880865619998460e+00,-8.085184730590000424e-03,1.189732458439999967e-02,3.562036901710000265e-03,1.000000000000000000e+00
6.000901830000000547e-01,-2.835177248699999986e+00,2.806437914809999934e-01,-9.359078081939998128e+00,9.746667928990000469e-04,3.992134705190000625e-03,-2.926673041659999964e-03,1.000000000000000000e+00
6.052512330000000551e-01,-2.851901588999999682e+00,2.613412164499999690e-01,-9.395560431159999837e+00,-1.226355787369999865e-03,3.582549048590000056e-03,-7.199203595520000873e-03,1.000000000000000000e+00
6.101963550000000236e-01,-2.883021242149999885e+00,2.590153673180000116e-01,-9.379540439730000401e+00,1.621557399629999785e-02,-1.264259964229999880e-02,1.660046726470000220e-02,1.000000000000000000e+00
6.151223559999999813e-01,-2.763945657649999887e+00,2.528086581650000331e-01,-9.398190195139999759e+00,5.779422819609998999e-03,-1.132905948910000078e-02,-6.359302438799999645e-03,1.000000000000000000e+00
6.202655630000000198e-01,-2.881367629720000156e+00,2.675880201509999723e-01,-9.364348131289998989e+00,4.651983035730000173e-04,7.485410198569999486e-03,2.173173706979999857e-04,1.000000000000000000e+00
6.250758429999999644e-01,-2.867309586020000189e+00,2.663276813589999792e-01,-9.376023371519998761e+00,9.850461967290001161e-03,-1.011985540389999903e-02,-4.671636037529999785e-03,1.000000000000000000e+00
6.301693329999999982e-01,-2.816595005559999976e+00,2.817436424820000118e-01,-9.361996015209999911e+00,2.070931717749999873e-03,-1.212567277250000027e-02,-1.147862151270000013e-02,1.000000000000000000e+00
6.351961050000000109e-01,-2.900269021809999792e+00,2.650477976169999805e-01,-9.375588487230000823e+00,1.244798488910000070e-02,1.065472234040000001e-02,1.385151408610000093e-02,1.000000000000000000e+00
6.402016759999999973e-01,-2.811834074770000136e+00,2.686500598919999705e-01,-9.373125896510000388e+00,1.305169053380000020e-02,-7.881882600489999516e-03,-7.707942742850000875e-03,1.000000000000000000e+00
6.449534879999999637e-01,-2.869831213450000362e+00,2.699585121420000067e-01,-9.349942004800000817e+00,5.971516482529999961e-03,-5.921696312729999613e-03,1.193852163849999821e-02,1.000000000000000000e+00
6.502204449999999802e-01,-2.823964657549999924e+00,2.614615366279999797e-01,-9.371243151499999868e+00,-1.626063836740000062e-03,-3.793133655559999696e-03,6.268690805880000258e-03,1.000000000000000000e+00
6.552532909999999600e-01,-2.826536261600000266e+00,2.925745225710000286e-01,-9.362223978750000342e+00,4.714942071590000165e-03,3.331561340019999814e-03,-1.368185132739999955e-02,1.000000000000000000e+00
6.602317970000000091e-01,-2.860399368239999962e+00,2.494643161729999947e-01,-9.384203755359999732e+00,8.735002018510001215e-03,-1.712173107080000025e-03,-2.112657763059999725e-03,1.000000000000000000e+00
6.650903689999999591e-01,-2.850206475519999838e+00,2.699688691400000118e-01,-9.362121102889998880e+00,4.689669236539999869e-03,3.454584861170000021e-03,-8.960977196689999535e-03,1.000000000000000000e+00
6.702524800000000393e-01,-2.856265629430000175e+00,2.662347606450000126e-01,-9.368929613860000671e+00,4.093269817530000368e-03,1.906100427729999838e-03,2.490702550859999996e-03,1.000000000000000000e+00
6.752093289999999692e-01,-2.857109094520000170e+00,2.768856262580000061e-01,-9.380556338769999059e+00,-7.096798159180000426e-03,-3.463777247819999137e-04,7.733068894589999361e-03,1.000000000000000000e+00
6.802343570000000117e-01,-2.816018959240000452e+00,2.278760230909999962e-01,-9.401018696559999555e+00,3.463745117190000170e-03,9.417920373380000943e-04,1.353648025539999850e-03,1.000000000000000000e+00
6.851805949999999479e-01,-2.852484649590000032e+00,2.611933141459999996e-01,-9.411171841789998993e+00,5.942622665319999449e-03,3.158150007949999793e-03,-8.143886225299999714e-04,1.000000000000000000e+00
6.901000680000000109e-01,-2.814457993530000035e+00,2.484883107479999853e-01,-9.362515070649999771e+00,-4.605032969270000422e-03,-6.578559987249999949e-03,-1.630552299320000079e-02,1.000000000000000000e+00
6.952104510000000070e-01,-2.867962204709999519e+00,2.696707812420000017e-01,-9.386675698439999493e+00,2.043582499029999999e-03,5.530697293579999937e-03,-1.937346532940000237e-03,1.000000000000000000e+00
7.002238440000000397e-01,-2.878521592639999849e+00,2.495583876649999922e-01,-9.385717667060001546e+00,5.318406037990000383e-03,5.456398241220000028e-03,3.619738854469999913e-03,1.000000000000000000e+00
7.052249120000000371e-01,-2.851371719909999936e+00,2.504977143420000218e-01,-9.398771209899999590e+00,-3.479035571219999800e-03,4.267928190530000457e-03,1.484601199630000007e-02,1.000000000000000000e+00
7.101473959999999863e-01,-2.803694022929999807e+00,2.267555494269999916e-01,-9.404943176530000670e+00,-4.640880972149999395e-03,5.807869136329999599e-03,-1.247264631090000062e-02,1.000000000000000000e+00
7.151549579999999517e-01,-2.857987338660000098e+00,2.830006020070000017e-01,-9.362604502499999981e+00,2.029899507760000218e-03,1.238278578970000189e-02,-8.535727858539999408e-03,1.000000000000000000e+00
7.202248439999999752e-01,-2.831050524150000136e+00,2.803629469800000273e-01,-9.389072822699999321e+00,5.151399876920000238e-03,5.787553265689999484e-03,-1.412200555210000111e-02,1.000000000000000000e+00
7.251174439999999999e-01,-2.895395570549999853e+00,2.400624277079999869e-01,-9.385504901090000018e+00,6.803754949939998806e-04,-9.137287270280000217e-04,-2.480118535460000030e-03,1.000000000000000000e+00
7.300793829999999707e-01,-2.858596702729999883e+00,2.520768002270000196e-01,-9.360155940300000310e+00,-5.981429480020000224e-03,3.929347731170000114e-03,4.565423354510000226e-03,1.000000000000000000e+00
7.351409370000000498e-01,-2.838268200449999945e+00,2.720815321779999629e-01,-9.395363447280001168e+00,1.029117032889999978e-02,8.821129798889999762e-03,-1.144826970990000040e-02,1.000000000000000000e+00
7.401797009999999677e-01,-2.879602373620000044e+00,3.008777656120000255e-01,-9.361339597129999746e+00,-4.767997190359999846e-03,-2.683859551329999694e-03,-3.706431016330000287e-06,1.000000000000000000e+00
7.449832410000000182e-01,-2.853524221769999869e+00,2.710916443579999835e-01,-9.364864264119999504e+00,3.205338725820000117e-05,3.432722063739999854e-03,9.451266378160001194e-04,1.000000000000000000e+00
7.500891640000000304e-01,-2.855077588690000390e+00,2.114014197610000201e-01,-9.389526996209999865e+00,3.892870154230000505e-04,1.472825882959999909e-03,3.379938658329999755e-03,1.000000000000000000e+00
7.550733109999999693e-01,-2.867081622479999758e+00,2.565863500730000135e-01,-9.393278457699999251e+00,1.727878698150000234e-03,-4.642895422880000296e-03,9.251937270160000282e-03,1.000000000000000000e+00
7.602415639999999808e-01,-2.856184380889999819e+00,2.651578338619999808e-01,-9.361379929139999945e+00,9.702171664689999324e-04,4.122282378379999758e-03,1.395484618839999864e-02,1.000000000000000000e+00
7.651071360000000210e-01,-2.829828581140000132e+00,2.600716531720000391e-01,-9.398390686149999951e+00,5.978517234330000749e-03,3.171444404870000090e-04,6.344810593870000258e-03,1.000000000000000000e+00
7.701095169999999657e-01,-2.825337699470000352e+00,2.709677987829999801e-01,-9.370262908289999970e+00,8.151000365609999132e-03,2.415783237669999960e-04,3.894665278490000004e-03,1.000000000000000000e+00
7.751035299999999850e-01,-2.841259783479999967e+00,2.864331520050000246e-01,-9.370347079450001004e+00,2.628284506500000190e-03,2.838892629369999671e-03,9.080322459340000110e-03,1.000000000000000000e+00
7.800837579999999605e-01,-2.843134637440000390e+00,2.960965409510000201e-01,-9.362600410840000720e+00,1.217134110630000050e-02,9.372017811980000879e-04,3.721039276570000179e-03,1.000000000000000000e+00
7.852558609999999994e-01,-2.832662635529999751e+00,2.924564308829999959e-01,-9.370922248989998593e+00,-1.683371374380000004e-03,-9.659796953199999842e-03,-7.019388489430000537e-03,1.000000000000000000e+00
7.902617410000000175e-01,-2.852925671349999970e+00,2.508106892810000321e-01,-9.364074575049999183e+00,2.472952939569999977e-03,1.461811596530000019e-03,3.219259437170000210e-03,1.000000000000000000e+00
7.952433169999999496e-01,-2.814563499729999752e+00,2.647703323820000398e-01,-9.397757648939998987e+00,-6.345855072139999775e-03,-8.039442822340000724e-03,-2.983944024889999876e-03,1.000000000000000000e+00
8.002187769999999922e-01,-2.893185201029999654e+00,2.687727729559999945e-01,-9.368849534369999787e+00,1.367447711529999957e-02,-9.614901617169999484e-03,4.740409087390000734e-03,1.000000000000000000e+00
8.052246419999999905e-01,-2.856469043050000156e+00,2.625786675569999895e-01,-9.388517526910000299e+00,-1.646000542680000006e-03,1.497341133650000045e-02,4.648607224229999932e-03,1.000000000000000000e+00
8.102710300000000032e-01,-2.845141008830000207e+00,2.378007846530000025e-01,-9.364538685430000342e+00,-1.941090566109999723e-03,-1.837499556129999941e-03,-1.706525217739999882e-04,1.000000000000000000e+00
8.151466250000000136e-01,-2.853124701060000046e+00,2.710148162620000245e-01,-9.368791666699999965e+00,1.516427495519999911e-03,-1.672874786890000184e-03,6.668905261900000096e-03,1.000000000000000000e+00
8.199775969999999470e-01,-2.847100910720000488e+00,2.483988971649999933e-01,-9.374338779430001267e+00,1.863050647080000122e-02,-3.654941916469999809e-03,5.972776096310000726e-03,1.000000000000000000e+00
8.251945099999999922e-01,-2.836186425739999795e+00,2.923555643240000057e-01,-9.380604854089998668e+00,8.186348713929999729e-03,2.699878299610000178e-03,-5.452940240499999343e-04,1.000000000000000000e+00
8.302382820000000496e-01,-2.839511186250000208e+00,2.556641571939999857e-01,-9.363377824960000595e+00,3.602680284529999853e-03,-1.147115137429999959e-02,-9.916028007860001187e-03,1.000000000000000000e+00
8.350525420000000087e-01,-2.897828350659999774e+00,2.605864342940000244e-01,-9.353243968950000209e+00,8.846351411189998844e-04,-5.518165417019999918e-04,-4.798031877730000029e-04,1.000000000000000000e+00
8.401068189999999491e-01,-2.825020888600000113e+00,2.410430179769999792e-01,-9.389330012340000309e+00,9.253514930609999661e-03,5.394292995330000028e-03,2.961379941549999954e-04,1.000000000000000000e+00
8.450889910000000116e-01,-2.856098163909999599e+00,2.721571181649999893e-01,-9.370272260650001073e+00,-5.136284045879999961e-03,1.540920697149999845e-02,1.354162208739999838e-02,1.000000000000000000e+00
8.501700989999999569e-01,-2.807124581900000138e+00,2.245145290349999934e-01,-9.381591527039999434e+00,-9.003060869870000912e-03,8.672818541530000203e-03,-2.863431349400000301e-03,1.000000000000000000e+00
8.552834910000000068e-01,-2.866412344910000076e+00,2.639135328900000244e-01,-9.370703637800000152e+00,-1.385905547069999971e-03,1.055504567920000081e-02,3.369890153409999933e-03,1.000000000000000000e+00
8.602312890000000101e-01,-2.835820807300000190e+00,2.553958616470000109e-01,-9.381019864629999816e+00,1.171178277579999934e-02,9.979823604229999881e-03,8.563520386819999455e-03,1.000000000000000000e+00
8.652275520000000109e-01,-2.817896735809999775e+00,2.615349306570000087e-01,-9.370684933099999725e+00,6.442720070480000179e-03,-3.001592587680000125e-03,-9.959595277910000474e-03,1.000000000000000000e+00
8.702461870000000044e-01,-2.888609563679999770e+00,2.816565669869999788e-01,-9.384945513639999959e+00,8.889589458699999683e-03,-7.827639579770000189e-03,4.055781755599999726e-03,1.000000000000000000e+00
8.752453369999999566e-01,-2.833680872659999572e+00,2.697384396510000282e-01,-9.382817269439998498e+00,-4.694691393520000408e-03,2.047765254969999976e-02,-3.927212674170000445e-03,1.000000000000000000e+00
8.802093899999999804e-01,-2.838254171920000513e+00,2.682786144980000009e-01,-9.407153838319999295e+00,-1.109577715400000218e-05,1.386319473389999862e-02,-1.085043768400000041e-03,1.000000000000000000e+00
8.852301299999999484e-01,-2.852385573129999852e+00,2.492613774800000459e-01,-9.400234268189999298e+00,7.116997148839999694e-04,5.073752254250000343e-03,1.552676968279999986e-02,1.000000000000000000e+00
8.902785709999999630e-01,-2.835154452340000297e+00,2.662474191970000126e-01,-9.383319958270000427e+00,1.840875134800000002e-03,-8.664647117260001336e-03,-3.327287733550000209e-03,1.000000000000000000e+00
8.952533649999999676e-01,-2.898096938470000161e+00,2.674596079989999819e-01,-9.374239995230000844e+00,1.611218415200000101e-02,-3.186009358610000265e-03,1.786585710940000182e-02,1.000000000000000000e+00
9.000781359999999731e-01,-2.799890246740000421e+00,3.053196022499999884e-01,-9.376032723869998975e+00,1.454554847440000164e-03,1.757824560630000168e-03,1.552810333670000091e-02,1.000000000000000000e+00
9.052609879999999887e-01,-2.811791989190000507e+00,2.983661846499999770e-01,-9.366789679229999166e+00,-7.024012506010000011e-03,4.224456846709999554e-03,4.571901634339999541e-03,1.000000000000000000e+00
9.102623050000000493e-01,-2.857589863770000349e+00,2.422667328189999914e-01,-9.395763260249999860e+00,-6.605892442169999761e-03,6.220072507859998948e-03,9.143423289059999376e-03,1.000000000000000000e+00
9.151512779999999569e-01,-2.849246690579999797e+00,2.469849387139999852e-01,-9.402782783630000196e+00,-9.207352064549999271e-03,8.493982255460000991e-03,6.439621094609999929e-03,1.000000000000000000e+00
9.202468379999999559e-01,-2.845161174829999862e+00,2.815441926539999917e-01,-9.392486430539998210e+00,-3.896223846820000281e-03,-4.450277425349999892e-03,5.001516081389999896e-03,1.000000000000000000e+00
9.252105550000000456e-01,-2.844866283540000484e+00,2.867392588120000196e-01,-9.342388228420000829e+00,1.602063141760000017e-02,-2.950625261290000176e-03,2.916457131510000276e-03,1.000000000000000000e+00
9.301491760000000220e-01,-2.819174208399999770e+00,2.756836848559999775e-01,-9.370613621429999540e+00,2.913284115489999434e-03,4.060603678230000242e-03,2.852894831449999911e-03,1.000000000000000000e+00
9.352570650000000541e-01,-2.866712789170000164e+00,2.702692403260000265e-01,-9.330862625800000032e+00,1.417014934120000048e-02,3.493054537099999669e-03,1.970515586440000451e-04,1.000000000000000000e+00
9.402254249999999480e-01,-2.867033107159999705e+00,2.578971952099999854e-01,-9.385676750529999168e+00,5.165383685380000103e-03,-1.978193875399999937e-03,-1.865410013119999733e-03,1.000000000000000000e+00
9.451301060000000254e-01,-2.854365641029999789e+00,2.719944018839999811e-01,-9.400483859039999501e+00,3.782468382269999711e-03,1.257498981430000108e-03,-3.580792341379999966e-03,1.000000000000000000e+00
9.502516450000000336e-01,-2.845118212469999630e+00,2.829971314079999800e-01,-9.357059143329999884e+00,8.369687944649999503e-03,-5.850858986379999828e-03,1.121388049799999917e-03,1.000000000000000000e+00
9.552330449999999473e-01,-2.840024980990000447e+00,2.922454550129999773e-01,-9.381442473959999973e+00,-1.940339338029999951e-03,-6.538820452990000637e-04,1.120009273289999940e-02,1.000000000000000000e+00
9.602414719999999848e-01,-2.820462786909999853e+00,2.803915885520000262e-01,-9.387741281839998564e+00,8.009248413150000384e-03,1.585566625000000077e-02,-2.221070230010000097e-03,1.000000000000000000e+00
9.653829299999999725e-01,-2.859795849379999755e+00,2.545157908769999922e-01,-9.360174645000000737e+00,-2.523856237530000112e-03,9.627447463569999142e-03,5.456623155620000248e-03,1.000000000000000000e+00
9.702470600000000500e-01,-2.795653924340000263e+00,2.686771670950000024e-01,-9.365579134389998117e+00,7.883927319199999324e-04,1.043803617360000019e-02,-1.030919142070000141e-02,1.000000000000000000e+00
9.752295420000000048e-01,-2.869156675189999728e+00,2.887664355249999759e-01,-9.387541375350000550e+00,4.848373588170000123e-03,1.556305214760000217e-04,2.993645146489999458e-03,1.000000000000000000e+00
9.802291229999999800e-01,-2.841931983649999882e+00,2.780078169549999867e-01,-9.392335623890000207e+00,-9.182292851619999231e-04,1.181769091639999977e-02,4.151533823459999627e-03,1.000000000000000000e+00
9.851778709999999828e-01,-2.827439347919999957e+00,2.470702606439999782e-01,-9.389991691120000539e+00,-1.319243852050000151e-02,3.623272059489999596e-03,2.548179589210000043e-03,1.000000000000000000e+00
9.902291359999999543e-01,-2.833808006169999949e+00,2.721851752159999971e-01,-9.377975674630000924e+00,-3.171544987710000259e-03,-2.311832457779999794e-02,-4.624852444980000264e-04,1.000000000000000000e+00
9.951983690000000271e-01,-2.813083782570000135e+00,2.365001321169999948e-01,-9.375525358870000048e+00,1.625139452520000041e-02,-5.070975981650000138e-03,-1.067175902430000066e-02,1.000000000000000000e+00
1.000080974000000067e+00,-2.852128091239999996e+00,2.661463699759999968e-01,-9.379751452129999834e+00,3.129511605950000051e-05,7.550647482280000398e-03,6.585537921640000243e-03,1.000000000000000000e+00
1.005213091999999975e+00,-2.840057714209999862e+00,2.817449576559999946e-01,-9.374346378220000275e+00,2.218138426540000076e-03,1.401666319000000006e-03,5.012997891750000171e-03,1.000000000000000000e+00
1.010248468999999982e+00,-2.864558533739999913e+00,2.676259044759999872e-01,-9.358590006160000030e+00,8.254182524979999241e-03,4.659725353119999365e-03,1.339974626899999993e-02,1.000000000000000000e+00
1.015186479000000030e+00,-2.832011770400000295e+00,2.600511035740000199e-01,-9.405334806200000841e+00,1.024979073549999939e-02,7.352785207330000093e-03,9.944325312969999262e-03,1.000000000000000000e+00
1.020217359000000101e+00,-2.830591089949999972e+00,2.532054389300000263e-01,-9.379672541669998864e+00,5.256928037850000165e-03,-1.774558331820000107e-04,-4.017929546539999834e-03,1.000000000000000000e+00
1.025242645999999924e+00,-2.843674443409999419e+00,2.614708159129999765e-01,-9.380189843550001072e+00,2.754904795440000186e-03,9.890812449159999686e-03,-3.310883883390000181e-03,1.000000000000000000e+00
1.030144753000000080e+00,-2.858688764929999682e+00,2.459355757919999830e-01,-9.395124377829999318e+00,-1.467434689400000034e-02,8.004853501919999628e-03,-3.029256593439999968e-03,1.000000000000000000e+00
1.035156552999999979e+00,-2.855528839589999812e+00,2.660789307629999878e-01,-9.392503966199999610e+00,5.476669874040000080e-03,4.803608171639999966e-03,9.843109175559999757e-03,1.000000000000000000e+00
1.040170626000000098e+00,-2.841538600419999838e+00,2.675709046199999941e-01,-9.372380046580000013e+00,1.958939805629999684e-02,-6.237558089199999635e-03,-2.679740078749999910e-03,1.000000000000000000e+00
1.045214980999999987e+00,-2.857652407609999834e+00,2.422037505860000217e-01,-9.417516242379999625e+00,2.475205110390000054e-04,-4.054995253679999356e-03,-7.258965633810001046e-03,1.000000000000000000e+00
1.050220289000000085e+00,-2.873192506570000138e+00,2.733442455899999790e-01,-9.386000575649999789e+00,-3.641535295170000120e-05,1.012154156340000109e-03,4.316579084840000552e-03,1.000000000000000000e+00
1.055199122999999961e+00,-2.847370959840000104e+00,2.734783750979999928e-01,-9.370493794439999746e+00,-7.984449621289999661e-05,-1.666686963289999972e-03,2.749768085779999947e-03,1.000000000000000000e+00
1.060224980000000095e+00,-2.859136800950000445e+00,2.698073584349999776e-01,-9.386851639519999679e+00,-6.508897989990000167e-03,4.899439401920000110e-03,1.638186164199999977e-03,1.000000000000000000e+00
1.065211718999999890e+00,-2.818964072780000052e+00,2.695424786869999867e-01,-9.401124495030000361e+00,1.563469413670000275e-04,5.183215253060000603e-03,1.534752082079999982e-04,1.000000000000000000e+00
1.070165231000000050e+00,-2.858886917850000042e+00,2.481685042089999960e-01,-9.404050027080000262e+00,4.731007851659999215e-03,-4.704882856459999783e-03,1.030346751209999974e-02,1.000000000000000000e+00
1.075157659000000043e+00,-2.824064026270000305e+00,2.256774718670000179e-01,-9.394160501230000904e+00,1.384775713089999964e-02,5.675422027709999505e-03,-5.222759209570000021e-04,1.000000000000000000e+00
1.080190795999999898e+00,-2.866225590170000004e+00,2.483554233500000208e-01,-9.394828609750000226e+00,2.341277897360000224e-03,6.966541521250000334e-03,-1.867139944810000066e-03,1.000000000000000000e+00
1.085140041000000055e+00,-2.884234709589999834e+00,2.698956395070000180e-01,-9.376151381810000629e+00,9.043739177290000680e-03,-1.611095666890000055e-02,1.044444367289999905e-02,1.000000000000000000e+00
1.090253220999999995e+00,-2.827330626849999806e+00,2.565348390809999990e-01,-9.399343456830001386e+00,1.712022535500000095e-02,1.338616199789999933e-02,4.583023488519999931e-03,1.000000000000000000e+00
1.095124396999999972e+00,-2.831613418729999498e+00,2.591988158599999870e-01,-9.364874200990000119e+00,1.109853666279999977e-02,-3.189158160239999643e-04,2.803242765369999643e-03,1.000000000000000000e+00
1.100195295000000018e+00,-2.837326243420000171e+00,2.398847147870000196e-01,-9.394758467129999957e+00,6.606915500020000762e-03,7.038466632370000281e-03,7.396470289680000948e-03,1.000000000000000000e+00
1.105241893999999947e+00,-2.839916844440000254e+00,2.867359526100000111e-01,-9.350316098809999588e+00,9.505880298089998187e-04,-6.463762838389999852e-04,2.166613005099999809e-03,1.000000000000000000e+00
1.110158237999999908e+00,-2.823492071600000042e+00,2.735586007270000009e-01,-9.358740228280000295e+00,-4.255256615579999964e-03,-7.141157984729999339e-03,-8.507398888470000045e-03,1.000000000000000000e+00
1.115145985000000062e+00,-2.858596994990000084e+00,2.590795916609999749e-01,-9.383611050169999857e+00,-6.174559704960000568e-03,4.901971667999999692e-03,-2.657556906340000167e-03,1.000000000000000000e+00
1.120182728000000072e+00,-2.852301986499999664e+00,2.795302772819999726e-01,-9.356364731319999350e+00,-8.469189517200000072e-03,2.353842137380000258e-03,7.993543986230000099e-04,1.000000000000000000e+00
1.125237483000000038e+00,-2.872728980720000269e+00,2.556138335129999883e-01,-9.386149628730001027e+00,1.992359291760000244e-03,7.615982554850001321e-03,-3.868264146150000252e-03,1.000000000000000000e+00
1.130130513999999975e+00,-2.890563035830000072e+00,2.471695928319999902e-01,-9.400365201090000511e+00,6.094831973309999644e-03,-6.218984257430000377e-03,-1.434299629179999866e-04,1.000000000000000000e+00
1.135138103000000065e+00,-2.829605001520000052e+00,2.470582779450000155e-01,-9.384496600830001256e+00,-4.553147591649999402e-03,7.972119376060000581e-03,7.906520739200000036e-03,1.000000000000000000e+00
1.140304425000000066e+00,-2.833717697540000025e+00,2.830454275290000266e-01,-9.363480116289998989e+00,-7.893605157729998920e-03,-1.131888013329999942e-02,6.876557599749999385e-04,1.000000000000000000e+00
1.145185104999999925e+00,-2.877036614779999724e+00,2.865216157400000130e-01,-9.382034594630001223e+00,-5.513411480930000864e-03,-1.585301011799999894e-03,5.796726327389999968e-03,1.000000000000000000e+00
1.150235110999999977e+00,-2.842391710120000248e+00,2.533257956409999956e-01,-9.364270389879999712e+00,5.947735626249999775e-03,-3.190868301320000117e-03,-2.962569706140000389e-04,1.000000000000000000e+00
1.155135408999999891e+00,-2.860532054700000160e+00,2.651934531649999816e-01,-9.371239059849999720e+00,-4.377165343609999530e-03,-3.627096302809999957e-03,-1.932735089209999943e-03,1.000000000000000000e+00
1.160220389000000019e+00,-2.849345767039999977e+00,2.697362476940000087e-01,-9.385164124830000176e+00,-1.806977950040000377e-02,1.015696907419999994e-03,4.166111350060000204e-03,1.000000000000000000e+00
1.165179374000000045e+00,-2.844299881829999599e+00,2.544737966319999822e-01,-9.369050025369999091e+00,-2.857728861269999681e-03,-6.517532747239999837e-04,-9.512940887360000911e-04,1.000000000000000000e+00
1.170145028999999948e+00,-2.866766857440000038e+00,2.816704676480000225e-01,-9.393856549849999737e+00,-6.025091279300000442e-03,-8.651900570840000181e-04,-2.355609787630000111e-03,1.000000000000000000e+00
1.175213668000000045e+00,-2.837583140790000069e+00,2.743833063149999640e-01,-9.394953112919999683e+00,7.024581078439999515e-03,-1.074580103159999966e-02,1.430748496199999841e-03,1.000000000000000000e+00
1.180188312000000073e+00,-2.844877097190000370e+00,2.365851800519999937e-01,-9.377088954919999608e+00,6.380990613249999839e-03,-3.838515840469999938e-04,-6.600999273360000190e-03,1.000000000000000000e+00
1.185089287000000047e+00,-2.915657729599999914e+00,2.699575257619999946e-01,-9.368994495789999988e+00,2.840809756890000023e-04,1.004476845260000167e-02,2.174526266750000103e-02,1.000000000000000000e+00
1.190207234000000058e+00,-2.794862773959999824e+00,2.528775404170000018e-01,-9.406682713680000418e+00,-9.901953861120001490e-03,6.029363721609999442e-03,2.946670167150000196e-03,1.000000000000000000e+00
1.195227704999999974e+00,-2.819918597030000029e+00,2.660777982510000306e-01,-9.398084396679999841e+00,8.404721505940000378e-03,2.274593105540000017e-03,-9.056182578210000139e-03,1.000000000000000000e+00
1.200103082999999904e+00,-2.881679472149999643e+00,2.988225866479999882e-01,-9.334446914029999931e+00,-5.377947352830000569e-03,4.258211702109999941e-03,-8.016212377700000606e-04,1.000000000000000000e+00
1.205166514999999938e+00,-2.837480557200000142e+00,2.435420317189999906e-01,-9.382962230869999587e+00,2.969373017550000059e-03,-8.129946887489998900e-03,5.745968315749999666e-03,1.000000000000000000e+00
1.210201744999999995e+00,-2.871722434020000048e+00,2.676649578449999956e-01,-9.369436394339999197e+00,1.126544363800000004e-02,-2.263025939460000177e-02,-1.142105436880000088e-03,1.000000000000000000e+00
1.215082409999999946e+00,-2.906009611290000016e+00,2.864677666609999895e-01,-9.399159332430000902e+00,-1.684219390150000148e-02,6.006858311590000665e-03,5.293140653520000266e-03,1.000000000000000000e+00
1.220217654999999901e+00,-2.865725239430000126e+00,2.960622550890000260e-01,-9.369649160310000724e+00,-1.760047301650000118e-02,1.164353685450000061e-03,1.632306352260000024e-02,1.000000000000000000e+00
1.225158025999999900e+00,-2.814046782379999723e+00,2.409123773350000108e-01,-9.406026295589999364e+00,1.758317230269999972e-04,5.227895453570000767e-04,1.819092407819999924e-02,1.000000000000000000e+00
1.230181291000000066e+00,-2.787991426890000124e+00,2.601726293280000046e-01,-9.388809787850000532e+00,1.416890043770000114e-02,-9.151221252979999110e-03,-4.636300727729998974e-03,1.000000000000000000e+00
1.235090835999999914e+00,-2.877086006879999491e+00,2.745747920320000257e-01,-9.381238475820000033e+00,9.928643703459999470e-03,8.399316109720000867e-03,8.943002671000000597e-03,1.000000000000000000e+00
1.240257519999999891e+00,-2.810285968550000124e+00,2.912339764160000177e-01,-9.367925405259999394e+00,4.711244720970000563e-03,-6.782572716470000249e-03,3.868830855940000053e-03,1.000000000000000000e+00
1.245127977000000108e+00,-2.824525214040000343e+00,2.553008220410000195e-01,-9.403017176910001496e+00,8.001875132319999015e-03,1.009759958830000037e-03,-1.610944396820000041e-03,1.000000000000000000e+00
1.250174949999999896e+00,-2.868782581179999625e+00,2.304461293070000083e-01,-9.400795409199998787e+00,-7.439685286950000137e-04,-9.934904985129999755e-03,6.318690720949999640e-04,1.000000000000000000e+00
1.255211357999999944e+00,-2.801871775940000475e+00,2.575670316729999909e-01,-9.410576213980000659e+00,-5.612864159050000995e-03,7.154911756520000200e-03,-9.679285809399999427e-03,1.000000000000000000e+00
1.260176042000000107e+00,-2.911694378930000049e+00,2.756449237479999814e-01,-9.408899220680000397e+00,1.281616277989999959e-04,1.194575242700000005e-02,4.433230962600000387e-03,1.000000000000000000e+00
1.265051592000000058e+00,-2.854941687350000201e+00,2.782401278730000094e-01,-9.370496132530000466e+00,1.074468158189999939e-02,3.885264275599999671e-03,6.156323011959999834e-03,1.000000000000000000e+00
1.270082449000000002e+00,-2.854164273239999883e+00,2.698646598459999990e-01,-9.375272260890000098e+00,8.711785078050000158e-03,-5.107961595060000679e-03,8.627055212860000252e-03,1.000000000000000000e+00
1.275217005000000015e+00,-2.824935256140000295e+00,2.494793493459999956e-01,-9.396448904430000582e+00,-4.496219567950000481e-03,-2.750644460320000005e-03,-6.443144753580000092e-03,1.000000000000000000e+00
1.280204158000000092e+00,-2.878789595929999834e+00,2.843333484480000117e-01,-9.364967724499999591e+00,6.980130914600000090e-03,-3.891210071740000315e-04,-6.534969434139999839e-03,1.000000000000000000e+00
1.285066433999999980e+00,-2.847203494309999972e+00,2.555071582680000231e-01,-9.379160500499999387e+00,1.457616966220000136e-02,-1.074042171240000010e-02,-4.170713946219999860e-04,1.000000000000000000e+00
1.290242230000000045e+00,-2.842817826579999707e+00,2.759154112530000091e-01,-9.357810253960000324e+00,4.555231891569999983e-03,4.185997880999999844e-03,3.053515218199999437e-03,1.000000000000000000e+00
1.295045269000000054e+00,-2.863023579260000062e+00,2.780257362040000069e-01,-9.393300085010000799e+00,-2.551084151489999702e-03,-1.130116917189999924e-02,1.130390726030000050e-02,1.000000000000000000e+00
1.300158273999999947e+00,-2.835874875569999620e+00,2.253576470620000105e-01,-9.440052483839998843e+00,1.030118763449999926e-02,-3.222720930349999829e-03,-4.549297504129999788e-03,1.000000000000000000e+00
1.305082574000000051e+00,-2.900630548600000136e+00,2.663885081679999711e-01,-9.370091058859999933e+00,1.254281378349999870e-03,-2.339956350620000028e-02,1.488372869789999879e-02,1.000000000000000000e+00
1.310237300999999910e+00,-2.811281117059999612e+00,2.601325165139999895e-01,-9.396915352899998908e+00,2.520157955590000224e-03,-7.171328179540000956e-04,-3.507432993500000148e-04,1.000000000000000000e+00
1.315131696999999988e+00,-2.859034509620000275e+00,2.889139359699999798e-01,-9.373032957530000431e+00,4.009190946820000157e-03,8.880225010220000464e-03,4.763682838529999762e-03,1.000000000000000000e+00
1.320204098000000048e+00,-2.859141477130000109e+00,2.627529829440000131e-01,-9.369463282350000810e+00,5.998670123520000001e-03,-1.072152238339999994e-02,1.338267326349999904e-02,1.000000000000000000e+00
1.325137062000000032e+00,-2.830318118230000124e+00,2.840822414979999877e-01,-9.379135950580000269e+00,-6.520810071380000149e-03,4.716523922979999096e-03,6.856891792270000847e-03,1.000000000000000000e+00
1.330227558000000032e+00,-2.858665091790000279e+00,2.747043732289999873e-01,-9.379138873189999615e+00,-1.026734057809999996e-02,-6.213252432640000052e-03,-4.814902320500000048e-03,1.000000000000000000e+00
1.335119724999999979e+00,-2.852093896700000020e+00,2.960209732300000396e-01,-9.369963048569999842e+00,8.764125406739998667e-03,-1.519921701399999962e-03,4.753267858180000409e-03,1.000000000000000000e+00
1.340217041999999914e+00,-2.858685550050000135e+00,2.963557946750000061e-01,-9.345129636080001134e+00,1.804000930859999752e-04,1.078364532439999961e-02,6.396444514390000908e-04,1.000000000000000000e+00
1.345120290999999968e+00,-2.828385688859999636e+00,2.374281884810000021e-01,-9.404247595479999333e+00,9.530038572850001166e-03,-2.657995792110000224e-03,2.954201772810000003e-05,1.000000000000000000e+00
1.350085704000000053e+00,-2.850240670049999814e+00,2.830442767520000014e-01,-9.360145418910001069e+00,1.539549557489999722e-04,7.733221165840000778e-03,5.510177928950000040e-03,1.000000000000000000e+00
1.355216965999999967e+00,-2.816365580720000317e+00,3.020752135020000062e-01,-9.362502211169999811e+00,-2.033815253529999961e-03,-3.969174809750000352e-03,-9.178295731540001695e-03,1.000000000000000000e+00
1.360247266000000010e+00,-2.872491080309999667e+00,2.709840009989999965e-01,-9.376928211399999213e+00,9.995452128349999622e-04,-1.706083677709999830e-02,1.057516038420000179e-02,1.000000000000000000e+00
1.365022761000000084e+00,-2.809380836399999914e+00,2.601921012139999934e-01,-9.387546636050000615e+00,-8.708195760850001230e-03,2.759183524179999875e-03,-2.564352704209999986e-03,1.000000000000000000e+00
1.370076209000000045e+00,-2.849935257369999864e+00,2.699620923389999816e-01,-9.360044881140000328e+00,4.828174598520000235e-03,-7.315275259319999925e-03,2.652337308970000029e-03,1.000000000000000000e+00
1.375236636999999984e+00,-2.860137210169999999e+00,2.651900190989999739e-01,-9.370151264610001363e+00,6.018977612260000519e-03,-7.755302824079999928e-03,2.646259497850000138e-03,1.000000000000000000e+00
1.380090695999999895e+00,-2.870272527469999613e+00,2.862991868950000018e-01,-9.403784069620000352e+00,1.364516187459999946e-02,-1.855820650230000047e-03,9.154809638860001222e-03,1.000000000000000000e+00
1.385208452999999951e+00,-2.812194140249999919e+00,2.817667310970000116e-01,-9.370837493310000710e+00,3.151294775310000025e-03,1.255129370839999994e-02,-5.397764500229999991e-03,1.000000000000000000e+00
1.390249242000000107e+00,-2.876118623149999998e+00,2.684564370160000268e-01,-9.407017060199999392e+00,-3.428793046619999819e-03,-4.720345605159999292e-03,2.790894359350000096e-04,1.000000000000000000e+00
1.395154226000000053e+00,-2.869337584709999778e+00,2.111779314689999909e-01,-9.430330131239999858e+00,8.795280940829999783e-03,3.964808769520000026e-03,1.646860037000000114e-04,1.000000000000000000e+00
1.400122040000000068e+00,-2.807265743939999947e+00,2.565508769009999801e-01,-9.392535530379999997e+00,-5.366445984690000181e-04,1.719447597859999691e-02,-9.817555546760000501e-03,1.000000000000000000e+00
1.405048121000000094e+00,-2.844641242609999843e+00,2.543224602620000052e-01,-9.379116661360001217e+00,1.928736804980000098e-03,-6.428583525120000301e-03,-5.625721067189999418e-03,1.000000000000000000e+00
1.410242255000000000e+00,-2.842877740070000492e+00,2.531687053830000145e-01,-9.375493794689999660e+00,7.214311044659999818e-03,-6.419880315659999212e-03,-2.947534900159999843e-03,1.000000000000000000e+00
1.415104751000000105e+00,-2.848856522220000187e+00,2.567962299639999779e-01,-9.375067678230001533e+00,6.428824272010000111e-03,6.615613587199999784e-03,-5.120106972749999610e-03,1.000000000000000000e+00
1.420094874999999979e+00,-2.875224012399999918e+00,2.697064553440000068e-01,-9.392077265219999305e+00,-8.090632967650000437e-03,-2.860949607570000171e-03,9.893268346790001430e-03,1.000000000000000000e+00
1.425224475999999907e+00,-2.834917720980000055e+00,2.685206065599999858e-01,-9.388698728699999663e+00,3.322900738570000023e-04,-1.970058307049999888e-02,8.012484759089999464e-03,1.000000000000000000e+00
1.430232106000000059e+00,-2.850756802879999885e+00,2.748040707439999841e-01,-9.357207611889998944e+00,1.339318137620000224e-02,-2.576131606469999821e-03,5.151588004079999707e-03,1.000000000000000000e+00
1.434982500999999910e+00,-2.855050408419999908e+00,2.912042205979999965e-01,-9.383752504460000310e+00,5.863616243000000644e-03,2.432974288239999651e-03,7.627974729980000097e-03,1.000000000000000000e+00
1.440252019999999966e+00,-2.858176723750000203e+00,2.709255305439999817e-01,-9.389631041110000353e+00,-4.447699524460000005e-03,-9.321391582489998995e-03,1.274383813140000064e-02,1.000000000000000000e+00
1.445099907999999989e+00,-2.807979445169999977e+00,2.591334955390000028e-01,-9.379857835110000153e+00,1.014844235029999965e-02,-8.921486325559998404e-03,-1.025839708749999926e-02,1.000000000000000000e+00
1.450253078000000029e+00,-2.839202266430000066e+00,2.672303658199999821e-01,-9.393915002039999962e+00,3.206009976570000329e-03,-1.260951161379999901e-02,-2.043432788920000048e-03,1.000000000000000000e+00
1.455225969000000008e+00,-2.910998213359999642e+00,2.641979758540000112e-01,-9.359726901230001062e+00,6.036978680640000226e-03,-6.226508412509999422e-04,8.638577535749999634e-03,1.000000000000000000e+00
1.460238754999999999e+00,-2.835419533020000049e+00,2.555644962120000030e-01,-9.380953229139999294e+00,4.708399530500000096e-03,-1.234576478599999985e-02,-1.624071272089999988e-03,1.000000000000000000e+00
1.465108961000000098e+00,-2.832275389769999929e+00,2.723223186639999738e-01,-9.364660850499999967e+00,-6.327347829940000064e-03,3.091107821090000301e-03,-8.448654785749999674e-03,1.000000000000000000e+00
1.470173345999999936e+00,-2.868578583040000130e+00,2.661442876160000082e-01,-9.386434875419999102e+00,1.722119399349999937e-03,-6.802839227019999782e-03,9.255740791559999986e-03,1.000000000000000000e+00
1.475201479999999954e+00,-2.815242714170000049e+00,2.327226411380000082e-01,-9.402704457689999629e+00,-1.156398444440000098e-03,-1.280836388470000045e-02,-3.582098288460000383e-03,1.000000000000000000e+00
1.480188341999999935e+00,-2.870945312169999930e+00,2.841716733469999978e-01,-9.371768636680000597e+00,7.776637794450001317e-04,5.054590292269999841e-05,6.957098376010000147e-03,1.000000000000000000e+00
1.485103062999999946e+00,-2.833090213289999770e+00,2.459321051929999891e-01,-9.385121454730001034e+00,-3.703451249749999726e-03,-8.840349502860000985e-03,7.012945134189999853e-03,1.000000000000000000e+00
1.490278803999999901e+00,-2.833644632300000410e+00,2.553421038989999725e-01,-9.402703288650000601e+00,3.000389551740000374e-04,-1.037820521740000050e-02,6.930581294000000237e-04,1.000000000000000000e+00
1.495250009999999907e+00,-2.837682801779999764e+00,2.889482766309999784e-01,-9.361628350940000232e+00,1.124549889939999945e-04,4.472577013079999907e-03,4.087644629180000287e-03,1.000000000000000000e+00
1.500157270000000098e+00,-2.842899367379999820e+00,2.304587147940000136e-01,-9.392899687519999929e+00,-1.547232456509999889e-02,-1.199350226670000113e-03,1.074972562489999884e-03,1.000000000000000000e+00
1.505034369999999955e+00,-2.823624465809999595e+00,2.733029271990000120e-01,-9.377399920569999381e+00,-2.892959397289999578e-03,-1.003257744010000070e-02,3.861142788079999829e-03,1.000000000000000000e+00
1.510272950999999919e+00,-2.811109267630000019e+00,2.637370438120000271e-01,-9.387748296099999834e+00,-3.864355385300000112e-03,1.952999969940000247e-03,-5.317721981560000026e-03,1.000000000000000000e+00
1.515169964000000036e+00,-2.818154802220000033e+00,2.851522453489999664e-01,-9.375594332449999513e+00,4.717041272670000236e-03,9.929200634359999431e-03,3.321242053060000261e-03,1.000000000000000000e+00
1.520108323000000095e+00,-2.833233421150000098e+00,2.482499354149999837e-01,-9.400088137719999182e+00,-5.674485117199999651e-03,5.744907073680000954e-03,-6.313238758590000374e-03,1.000000000000000000e+00
1.525233229999999995e+00,-2.884819523740000058e+00,2.305057688060000165e-01,-9.395884256289999570e+00,-5.536682438110000336e-04,9.652923326939999264e-04,1.673252787439999997e-03,1.000000000000000000e+00
1.530076038000000027e+00,-2.844729797679999894e+00,2.685756064170000124e-01,-9.379366252200000531e+00,1.005034614350000001e-02,-3.387336153540000065e-03,8.468085899950000134e-03,1.000000000000000000e+00
1.534949931000000101e+00,-2.829521122630000107e+00,2.935140501769999966e-01,-9.388751335669999420e+00,-6.082392297690000088e-03,-1.064663752910000039e-02,1.600076444450000213e-03,1.000000000000000000e+00
1.540233753000000094e+00,-2.865048655350000306e+00,2.771207684540000216e-01,-9.364383202610000012e+00,-1.012147683650000025e-02,1.465033041309999826e-03,6.034905556590000782e-03,1.000000000000000000e+00
1.545070839000000085e+00,-2.869874175809999706e+00,2.687797506869999964e-01,-9.380041959510000638e+00,5.998472217469999826e-03,1.409664517269999980e-03,-4.241948481649999991e-03,1.000000000000000000e+00
1.550032990000000055e+00,-2.872236521020000044e+00,2.578089872029999952e-01,-9.396478130529999362e+00,6.940133171160000692e-04,-8.922060020269999975e-03,4.263585433360000086e-03,1.000000000000000000e+00
1.555181458999999933e+00,-2.849874174829999607e+00,2.412506328460000127e-01,-9.386737657759999465e+00,9.831513278190000607e-03,-9.307865984739999198e-04,2.465001307430000053e-05,1.000000000000000000e+00
1.560098846999999900e+00,-2.825310226940000113e+00,2.579327779800000275e-01,-9.377706794560001669e+00,1.493224967270000147e-02,-4.367880057539999875e-03,-9.877954609689999430e-03,1.000000000000000000e+00
1.565033923000000105e+00,-2.868321101150000274e+00,2.520218734349999878e-01,-9.378505251460000025e+00,-3.545342478899999889e-03,-9.462783113120000131e-03,-4.001053050160000360e-03,1.000000000000000000e+00
1.570247693000000000e+00,-2.834556486449999912e+00,2.985864215379999687e-01,-9.351844623550000790e+00,1.009801309560000131e-02,1.242979336530000006e-02,-7.596433628350000161e-03,1.000000000000000000e+00
1.575042327000000020e+00,-2.857732194850000074e+00,2.791668507969999879e-01,-9.391445397060000033e+00,-6.949158851059999802e-03,1.492742821570000079e-02,7.118992041800000295e-03,1.000000000000000000e+00
1.580076582000000007e+00,-2.833986577609999724e+00,2.720701157350000066e-01,-9.393324050409999515e+00,-7.856580428779999514e-03,-2.002463443200000037e-03,1.734402030709999987e-03,1.000000000000000000e+00
1.585031040999999918e+00,-2.827790061049999970e+00,2.601554041990000177e-01,-9.387826037510000887e+00,-2.920224331320000425e-03,-1.028522383420000033e-02,2.861318178469999477e-03,1.000000000000000000e+00
1.589979365999999894e+00,-2.869129494919999690e+00,2.533877184280000083e-01,-9.361569898750000007e+00,3.564396873119999535e-03,7.008805871010000133e-03,4.915903788060000182e-03,1.000000000000000000e+00
1.595234103999999986e+00,-2.829509139929999861e+00,2.769694503499999794e-01,-9.383363797410000373e+00,-2.508873585610000168e-03,5.152000114319999977e-03,-1.062740385529999804e-02,1.000000000000000000e+00
1.600085890999999982e+00,-2.890007447769999960e+00,3.019261786860000241e-01,-9.379237657390000038e+00,1.972098369150000318e-03,-1.459304708989999982e-03,1.281739585100000016e-02,1.000000000000000000e+00
1.605079276000000110e+00,-2.802659419190000278e+00,3.056533642489999703e-01,-9.361337259039999026e+00,-1.452589035029999871e-02,7.918817922469999562e-03,-8.828239515419999961e-03,1.000000000000000000e+00
1.610256145999999999e+00,-2.848318177559999942e+00,2.722558475660000199e-01,-9.376309787240000304e+00,6.217333488170000318e-03,-1.054326351730000035e-02,-1.237027905879999924e-02,1.000000000000000000e+00
1.615200423000000107e+00,-2.854493359059999680e+00,2.290320977910000055e-01,-9.406952762789998701e+00,-1.458550803359999915e-03,1.359536079689999989e-03,6.968684960159999414e-03,1.000000000000000000e+00
1.620077876999999944e+00,-2.803147787229999910e+00,2.470961440040000123e-01,-9.387551312230000278e+00,2.171373926099999952e-03,-8.232201449569999038e-03,-7.626022212209999235e-03,1.000000000000000000e+00
1.625182646999999925e+00,-2.847645977390000027e+00,2.313407217929999982e-01,-9.408618065649999807e+00,-7.475941907609999146e-03,1.085033873099999855e-03,1.617010869089999942e-02,1.000000000000000000e+00
1.630092850000000038e+00,-2.825098045490000320e+00,2.686329626269999826e-01,-9.376700832390000073e+00,3.489055670800000203e-03,4.207803867759999468e-04,8.079465478659999741e-03,1.000000000000000000e+00
1.635137422999999979e+00,-2.827297601359999746e+00,3.007380466139999986e-01,-9.378104853969999155e+00,4.495834466069999202e-03,5.561470054089999622e-03,7.622712291779999488e-04,1.000000000000000000e+00
1.640250476999999929e+00,-2.843356463500000153e+00,2.627266246599999633e-01,-9.373007238570000510e+00,-7.132137659940000415e-03,1.913608284670000048e-03,7.167593576010001079e-04,1.000000000000000000e+00
1.645087930999999948e+00,-2.853788425659999906e+00,2.984904868830000058e-01,-9.355457553349999955e+00,3.476508427409999978e-04,7.535251788790000519e-04,7.529708091169999909e-03,1.000000000000000000e+00
1.650229740999999972e+00,-2.815030824979999569e+00,2.614677289060000076e-01,-9.368609880389998423e+00,1.059198402799999862e-03,1.900760829449999953e-02,-2.491136547180000009e-04,1.000000000000000000e+00
1.655205816999999913e+00,-2.840805317709999667e+00,2.623913282910000366e-01,-9.398843106090000177e+00,-1.047763042150000020e-03,-1.476044766599999766e-03,5.686183925720000691e-03,1.000000000000000000e+00
1.660237085999999973e+00,-2.840143638929999881e+00,2.996651932180000033e-01,-9.367064989039999290e+00,4.743182100359999258e-03,9.274773765360000899e-04,-6.665550172330000217e-03,1.000000000000000000e+00
1.665065248999999969e+00,-2.900780770720000401e+00,2.698068287120000130e-01,-9.387854679089999266e+00,-2.434212248770000094e-03,1.912834122780000064e-04,3.693236038089999819e-03,1.000000000000000000e+00
1.670223736000000070e+00,-2.887467407900000005e+00,2.772670085249999694e-01,-9.355353508449999467e+00,1.345375739039999900e-02,4.900886677210000014e-03,1.271745655690000032e-03,1.000000000000000000e+00
1.675213121000000083e+00,-2.847535502749999559e+00,2.688416734740000091e-01,-9.346019862919998644e+00,5.624591372909999720e-03,8.332298602910001139e-04,4.055755678560000153e-03,1.000000000000000000e+00
1.680120835000000090e+00,-2.825027902860000051e+00,2.409996354929999918e-01,-9.396327908399999984e+00,-9.767231531439999562e-04,2.668225904930000055e-03,2.384220249949999763e-03,1.000000000000000000e+00
1.685087398999999930e+00,-2.853292751100000135e+00,2.780990206360000050e-01,-9.379267468010000997e+00,-8.530026301739998887e-03,6.996156647800000176e-03,3.862384241069999856e-03,1.000000000000000000e+00
1.690233048000000071e+00,-2.857932978120000467e+00,2.839571720790000087e-01,-9.390014487469999338e+00,-2.687591477299999788e-04,-8.150908164680000650e-03,7.129819598050000061e-03,1.000000000000000000e+00
1.695080887000000036e+00,-2.848130253770000397e+00,2.721445326779999840e-01,-9.378169151369998957e+00,3.795587923380000072e-03,-1.606304198500000096e-03,8.368929848069998553e-03,1.000000000000000000e+00
1.700170533999999956e+00,-2.813640831930000363e+00,2.947627715960000061e-01,-9.379290848880000198e+00,-3.136835293840000002e-04,2.913672942670000399e-04,-1.206267997620000081e-02,1.000000000000000000e+00
1.705121550000000097e+00,-2.861802805290000418e+00,2.638195344629999939e-01,-9.382562417899999119e+00,1.107340585440000011e-02,-4.496615380049999965e-03,-9.418115019799999654e-03,1.000000000000000000e+00
1.710259447000000099e+00,-2.870592553209999842e+00,2.815189668809999768e-01,-9.390449956279999455e+00,1.272121095099999896e-03,9.931347332890000379e-03,8.214665576819999218e-03,1.000000000000000000e+00
1.715107823000000087e+00,-2.846321450780000095e+00,2.925286741349999997e-01,-9.367029917720000043e+00,1.785881631079999990e-02,2.210331382230000096e-03,-1.045642886309999841e-03,1.000000000000000000e+00
1.720212191999999973e+00,-2.848559877360000048e+00,2.746044930509999871e-01,-9.369767233730000200e+00,-3.277828916909999741e-03,1.431229896840000015e-02,-7.749069482089999353e-04,1.000000000000000000e+00
1.725256686999999900e+00,-2.846322912089999768e+00,2.576829131380000137e-01,-9.401792603549999683e+00,-5.173039389769999849e-04,1.406439812849999979e-03,-2.764534205199999702e-03,1.000000000000000000e+00
1.730142897999999985e+00,-2.842197064329999634e+00,2.482110099100000022e-01,-9.391368824689999784e+00,4.458607640120000257e-03,-5.486737005409999916e-03,-2.104854211209999980e-04,1.000000000000000000e+00
1.735194115000000092e+00,-2.847753237149999617e+00,2.779558493050000023e-01,-9.392615025359999592e+00,1.706269942220000127e-02,1.044214982539999961e-02,2.371515147389999766e-03,1.000000000000000000e+00
1.740253102000000052e+00,-2.859734182329999985e+00,2.780154705380000202e-01,-9.387704456960001664e+00,8.448809385300000288e-04,1.682899892330000022e-02,8.630082011219999613e-03,1.000000000000000000e+00
1.745213204999999990e+00,-2.801317649190000481e+00,2.803722262649999686e-01,-9.382316334180000439e+00,-7.007929962130000001e-04,2.195427007970000149e-02,-5.107488483189999602e-03,1.000000000000000000e+00
1.750133119000000015e+00,-2.866284626879999742e+00,2.492913524929999958e-01,-9.404463284060000205e+00,-2.061489596959999865e-02,5.209391005339999992e-03,9.108588099479999686e-03,1.000000000000000000e+00
1.755002267999999921e+00,-2.845120258299999705e+00,2.733821481820000177e-01,-9.382267818869999942e+00,4.694608971480000031e-03,4.574125632640000348e-03,-3.097301814710000205e-03,1.000000000000000000e+00
1.760266035999999978e+00,-2.873141360909999609e+00,2.612725716599999526e-01,-9.407225734510001658e+00,-3.165483474729999854e-03,-5.218700971450000031e-03,-1.151954871599999812e-03,1.000000000000000000e+00
1.765188559999999907e+00,-2.817492831179999602e+00,2.825421176499999798e-01,-9.399522320530000030e+00,4.534055013210000311e-03,1.116119604560000117e-02,1.890097279099999927e-03,1.000000000000000000e+00
1.770240919999999996e+00,-2.856532171409999599e+00,2.360383780900000006e-01,-9.420148928969998892e+00,1.025568600739999899e-02,4.870837554339999508e-03,1.588526554410000027e-02,1.000000000000000000e+00
1.775239424000000010e+00,-2.809898722790000303e+00,2.385683166930000210e-01,-9.405644602799998921e+00,5.430772900579999840e-03,1.348190708090000025e-03,2.482938580209999909e-03,1.000000000000000000e+00
1.780097864999999890e+00,-2.840652757500000014e+00,2.544188333080000253e-01,-9.367138638789999305e+00,6.938625592739999792e-03,8.869195356970000291e-03,-2.984116319570000002e-03,1.000000000000000000e+00
1.785236942000000049e+00,-2.801415264350000101e+00,2.634848591489999947e-01,-9.396251920550000136e+00,3.120658453550000187e-03,6.001815199850000235e-04,-3.622267395259999513e-04,1.000000000000000000e+00
1.790176291000000086e+00,-2.853874350379999925e+00,2.660973249360000237e-01,-9.385576212760000203e+00,6.495017092669999777e-03,1.403923379259999988e-03,8.912306278939999618e-03,1.000000000000000000e+00
1.795176078999999980e+00,-2.850792750979999735e+00,2.604260195670000111e-01,-9.356693232630000523e+00,-1.293001230810000152e-02,-9.375351481139999887e-03,1.295020245019999974e-02,1.000000000000000000e+00
1.800207815000000044e+00,-2.819600617120000319e+00,2.841212400670000138e-01,-9.369821594269998499e+00,1.354501955210000129e-02,2.388614788649999834e-02,-1.785574015230000046e-03,1.000000000000000000e+00
1.805104663000000054e+00,-2.872314554700000411e+00,3.008045359789999762e-01,-9.373039971789998148e+00,3.029987681659999758e-03,-3.072115359830000260e-03,1.941980328409999984e-03,1.000000000000000000e+00
1.810160264000000074e+00,-2.823070923580000002e+00,2.492798629850000169e-01,-9.397864616450000597e+00,7.257652934639999796e-03,2.434955211360000180e-03,3.895467612889999716e-03,1.000000000000000000e+00
1.815086436999999941e+00,-2.830289184390000212e+00,2.506835740360000009e-01,-9.379527580250000440e+00,2.462488226590000065e-02,-4.098580218849999859e-03,1.635515131060000021e-03,1.000000000000000000e+00
1.819946862999999970e+00,-2.828489733759999680e+00,2.459413114129999911e-01,-9.378263843919999232e+00,2.911180257800000289e-03,-1.055687759070000203e-02,-2.188950777050000136e-03,1.000000000000000000e+00
1.825148729999999997e+00,-2.835506042260000026e+00,2.516940479870000136e-01,-9.403184350169999206e+00,-1.335055450910000016e-03,2.409387379880000046e-04,-5.474216304719999732e-03,1.000000000000000000e+00
1.830078072999999916e+00,-2.850006861299999805e+00,2.634493859770000168e-01,-9.417694521559999643e+00,-1.698747649790000036e-02,-1.179072353989999919e-02,5.413803737609999573e-04,1.000000000000000000e+00
1.835066466000000007e+00,-2.789607045390000373e+00,2.850273037950000199e-01,-9.384243502849999530e+00,8.669104427100000941e-04,3.438944695519999869e-03,-6.933152675629999581e-03,1.000000000000000000e+00
1.840279234999999902e+00,-2.867575835739999857e+00,2.424411395380000056e-01,-9.378835506330000626e+00,3.996520303189999949e-03,3.074457636099999554e-03,-1.229387824420000120e-03,1.000000000000000000e+00
1.845224562999999929e+00,-2.867020539940000390e+00,2.601624001949999765e-01,-9.396586267070000886e+00,1.042305026199999950e-02,5.447063595060000658e-03,-5.677652079610000062e-04,1.000000000000000000e+00
1.850172251999999906e+00,-2.832511244360000013e+00,3.019983671390000235e-01,-9.364099124970000076e+00,1.769634149970000098e-02,-8.355212397869999849e-03,-6.741339806469999994e-03,1.000000000000000000e+00
1.855053384000000083e+00,-2.859030417970000126e+00,2.769384889559999841e-01,-9.371239059849999720e+00,1.067513693120000252e-02,2.569915493949999699e-03,3.441032487900000034e-03,1.000000000000000000e+00
1.860218023999999915e+00,-2.812813148940000119e+00,2.602586271110000071e-01,-9.373567210539999195e+00,-6.937168538569999862e-03,-1.466590096239999948e-03,-8.861948736010000910e-03,1.000000000000000000e+00
1.865164193000000026e+00,-2.855636976140000005e+00,2.354097247980000140e-01,-9.356815397700000148e+00,9.445200674239999719e-03,-1.740709505979999919e-02,2.928881905969999908e-03,1.000000000000000000e+00
1.870236927000000104e+00,-2.840630253399999638e+00,2.362607704030000033e-01,-9.393941890049999799e+00,1.230843644589999994e-02,-7.585217244919999213e-03,9.463267400860000608e-03,1.000000000000000000e+00
1.875239145999999968e+00,-2.808097518590000341e+00,2.839974127580000007e-01,-9.379678386889999331e+00,6.256778724490000276e-03,-2.978061791510000500e-03,-5.667287856339999798e-03,1.000000000000000000e+00
1.880085738000000006e+00,-2.827975939009999440e+00,2.468577869370000011e-01,-9.404864266080000590e+00,7.057554554190000051e-03,1.693720230829999767e-03,-3.683109534899999676e-03,1.000000000000000000e+00
1.885238265999999996e+00,-2.836368796569999962e+00,2.255778839500000021e-01,-9.395931018039998861e+00,1.671248488129999793e-02,2.668279455969999568e-03,-4.902455955740000169e-03,1.000000000000000000e+00
1.890254069999999897e+00,-2.805586704810000054e+00,2.491709409840000000e-01,-9.406493913110001159e+00,1.381059922279999873e-02,-9.470701217649998491e-03,-6.997038610279999842e-03,1.000000000000000000e+00
1.895197091000000000e+00,-2.853322561719999761e+00,2.910735251570000237e-01,-9.384644484869999914e+00,-3.341247327630000267e-03,-4.514925181870000324e-03,3.422407899049999952e-03,1.000000000000000000e+00
1.900119359999999924e+00,-2.839862776159999935e+00,2.531378718530000183e-01,-9.372284769510001112e+00,2.042828593400000149e-03,-6.168812513350000609e-03,4.244341980670000500e-03,1.000000000000000000e+00
1.905067703999999917e+00,-2.879379086250000164e+00,2.399662738569999787e-01,-9.397379463280000067e+00,3.914435859769999949e-03,8.840946480629999910e-03,6.769862491640000167e-03,1.000000000000000000e+00
1.910244818000000011e+00,-2.843256802520000459e+00,2.569132256739999898e-01,-9.351789678490000313e+00,-2.242711838329999700e-03,2.902934094889999747e-03,5.111963953819999296e-03,1.000000000000000000e+00
1.915069018999999928e+00,-2.818066539420000183e+00,2.473106818030000043e-01,-9.371331998829999677e+00,1.837856508790000273e-02,4.518060944970000645e-03,-2.108452282849999915e-02,1.000000000000000000e+00
1.920161761999999994e+00,-2.901510546299999938e+00,2.650467929700000003e-01,-9.374482571819999777e+00,4.626157227899999752e-03,-1.086876075710000063e-02,6.383726838979999346e-03,1.000000000000000000e+00
1.925190659000000082e+00,-2.839470854240000453e+00,2.338902601460000064e-01,-9.394976493789998884e+00,-1.840835437179999968e-03,-1.122865546489999929e-02,9.866502135989999728e-03,1.000000000000000000e+00
1.930202189000000068e+00,-2.822192387179999873e+00,2.505081809370000023e-01,-9.399806398169999966e+00,-5.878162104639999934e-03,-7.086796686050000037e-03,3.448696341370000203e-03,1.000000000000000000e+00
1.935092322000000031e+00,-2.824709338429999939e+00,2.720483605610000133e-01,-9.381129170219999480e+00,-3.594775334930000216e-04,1.016271952540000016e-02,2.788894344119999952e-03,1.000000000000000000e+00
1.940224838000000007e+00,-2.812931222360000039e+00,2.400292378249999914e-01,-9.371270039510001482e+00,1.052157720549999837e-03,-1.365346368400000314e-03,-5.346833728249999855e-03,1.000000000000000000e+00
1.945108720999999985e+00,-2.863681458649999900e+00,2.390349295580000144e-01,-9.363092578270000743e+00,-1.342773670329999855e-03,-1.185165625070000103e-02,-5.294531583790000606e-03,1.000000000000000000e+00
1.950055998000000068e+00,-2.822383525829999851e+00,1.827554449859999930e-01,-9.390092228880000391e+00,-1.521908584979999798e-02,-8.984216488900000075e-03,-6.057776510720000104e-03,1.000000000000000000e+00
1.955205051999999943e+00,-2.838478043809999907e+00,1.969592538399999870e-01,-9.394059378950000649e+00,1.362262177279999860e-03,2.394697861749999802e-03,6.376263219859999200e-03,1.000000000000000000e+00
1.960060407999999921e+00,-2.805882765149999791e+00,2.660697976079999805e-01,-9.385785471600000207e+00,-6.979613099249999675e-03,6.750781089069999609e-03,-5.159061402079999879e-03,1.000000000000000000e+00
1.965044205000000099e+00,-2.841799881710000086e+00,2.767952262950000297e-01,-9.395730527030000445e+00,-4.397866316139999870e-03,-1.628956198690000023e-02,-1.355736143890000009e-02,1.000000000000000000e+00
1.970085126000000075e+00,-2.893218518780000359e+00,2.603607175129999951e-01,-9.376133846149999229e+00,8.883935399350000039e-03,6.825073622169999625e-03,-2.558109816159999644e-03,1.000000000000000000e+00
1.975222682000000063e+00,-2.943324611940000057e+00,2.263770532380000033e-01,-9.348621569849999702e+00,-7.871752604840000223e-03,-4.187650978570000432e-03,-4.686365835370000232e-03,1.000000000000000000e+00
1.980294253000000060e+00,-2.765273983650000211e+00,2.969786575480000135e-01,-9.376090007010001059e+00,-2.679714467380000294e-03,-1.885698060509999894e-03,-2.262577228250000141e-02,1.000000000000000000e+00
1.985088347000000031e+00,-2.850869031090000227e+00,2.532180426839999998e-01,-9.347158511559999994e+00,-5.759403575210000036e-03,-3.212709352370000243e-02,3.370115999130000005e-03,1.000000000000000000e+00
1.990212974999999940e+00,-2.791531291449999674e+00,2.792046620560000303e-01,-9.374341117520000211e+00,-1.631727255880000005e-02,-2.496633678670000028e-04,-8.648083545270000144e-03,1.000000000000000000e+00
1.995091135000000016e+00,-2.907894402120000166e+00,2.747582953730000055e-01,-9.364140626019999303e+00,-8.916446007790001030e-03,-9.626390412450001530e-03,6.918957922609998701e-03,1.000000000000000000e+00
2.000243912999999818e+00,-2.841851904150000330e+00,2.923476550119999962e-01,-9.377322179160000104e+00,7.981061935419999503e-03,7.021233439449999815e-03,8.461864665150000547e-03,1.000000000000000000e+00
2.005182082999999782e+00,-2.878550818739999961e+00,3.261843302980000359e-01,-9.337837140990000506e+00,-4.882316570729999979e-03,-1.019016467029999935e-02,1.597048249099999959e-03,1.000000000000000000e+00
2.010185857999999826e+00,-2.820920175279999942e+00,2.709737353330000098e-01,-9.380247711210000006e+00,-1.175274513659999888e-02,-3.472025739030000502e-03,-1.625356823210000190e-02,1.000000000000000000e+00
2.015120499000000009e+00,-2.923013645320000187e+00,2.567562267469999937e-01,-9.389757882360001418e+00,-7.045433390890000307e-03,5.902196280660000410e-04,-1.703791902400000067e-03,1.000000000000000000e+00
2.020102443999999942e+00,-2.844885280500000224e+00,2.886834699490000156e-01,-9.386942824940000207e+00,-1.301218196749999965e-02,1.226506102830000021e-02,3.170862793920000040e-03,1.000000000000000000e+00
2.025224725000000170e+00,-2.783255338280000046e+00,2.741219702309999895e-01,-9.412440254289998975e+00,-4.817616194489999885e-03,1.120622269809999974e-02,-1.377131789920000085e-02,1.000000000000000000e+00
2.030188750000000208e+00,-2.879126865059999929e+00,2.839836399610000117e-01,-9.379783016310000221e+00,1.499215047810000152e-02,-6.862189620729999828e-04,9.143657982349999436e-03,1.000000000000000000e+00
2.035123001000000098e+00,-2.811276148629999749e+00,2.994592953820000014e-01,-9.378674762810000232e+00,-1.279019284990000078e-03,-8.047964423890000690e-03,-3.017556387929999553e-03,1.000000000000000000e+00
2.040234111999999822e+00,-2.856370843370000134e+00,2.603503787819999582e-01,-9.372869291400000691e+00,-6.086338777099999965e-03,8.478501811619999773e-03,-5.311132408680000958e-03,1.000000000000000000e+00
2.045087785999999852e+00,-2.837266329929999831e+00,2.923350512590000005e-01,-9.380760921429999399e+00,3.819276578719999361e-03,1.470023579900000057e-02,-8.550912141799999616e-03,1.000000000000000000e+00
2.050182447000000074e+00,-2.863065957099999892e+00,2.600133836460000181e-01,-9.417778692709999788e+00,8.094783872370000383e-03,-7.565417326989998942e-03,-1.481740549210000014e-02,1.000000000000000000e+00
2.055087207000000138e+00,-2.860167020780000069e+00,2.851087532669999702e-01,-9.393653136230000200e+00,1.249679713510000066e-03,6.262902170420000039e-03,-9.510314092040001235e-03,1.000000000000000000e+00
2.060253179000000046e+00,-2.860720270749999905e+00,2.614078154130000109e-01,-9.381681543410000046e+00,6.362863816320000164e-03,-1.967126736420000098e-03,-1.659779925829999803e-03,1.000000000000000000e+00
2.065154226000000204e+00,-2.850211443959999702e+00,2.628266144359999723e-01,-9.359887060229999278e+00,3.157862927760000330e-03,4.938504658639999989e-03,-4.943466745319999821e-03,1.000000000000000000e+00
2.070120682000000212e+00,-2.857508615229999993e+00,2.566772249609999834e-01,-9.375871395829999955e+00,8.040071465079999882e-03,1.679887250070000171e-02,4.573217127470000781e-03,1.000000000000000000e+00
2.075177108000000104e+00,-2.834227692890000316e+00,2.471010211080000296e-01,-9.387413365060000459e+00,6.462529767300000290e-03,-5.218342877919999664e-03,-3.368471516300000201e-03,1.000000000000000000e+00
2.080210880000000095e+00,-2.857607107170000216e+00,2.755911842670000222e-01,-9.390262324750001000e+00,-5.954448599370000018e-03,1.545160450039999994e-02,5.112524610010000213e-03,1.000000000000000000e+00
2.085127538000000058e+00,-2.814218924079999962e+00,2.404460932640000159e-01,-9.461846382490000096e+00,1.480076555160000050e-02,8.148794062440000222e-03,-4.038318991659999718e-03,1.000000000000000000e+00
2.090106990999999859e+00,-2.811450043889999861e+00,2.619931410199999866e-01,-9.440888934660000231e+00,1.467331964520000170e-02,-5.661606322970000153e-03,-8.294988423589999549e-03,1.000000000000000000e+00
2.095188508000000116e+00,-2.806992187699999697e+00,2.837350537610000001e-01,-9.407304644969999075e+00,1.017351727929999977e-02,-9.652585722509999730e-03,-2.069712243970000046e-02,1.000000000000000000e+00
2.100200518999999932e+00,-2.870240378770000156e+00,2.496847539909999858e-01,-9.364697675380000419e+00,1.682419516150000099e-02,-1.103313360360000037e-02,-1.144401729109999905e-02,1.000000000000000000e+00
2.105136941000000039e+00,-2.848298303810000043e+00,2.567712233869999805e-01,-9.364013200249999613e+00,2.445059083399999875e-02,2.942033810539999850e-03,-5.387375131250000254e-03,1.000000000000000000e+00
2.110269451999999823e+00,-2.806733536759999925e+00,2.149672955490000148e-01,-9.382883320419999507e+00,1.678861677649999898e-02,2.471708925440000218e-03,-1.906234771009999648e-02,1.000000000000000000e+00
2.115259405000000204e+00,-2.875748036280000086e+00,2.332950159330000051e-01,-9.336960358149999806e+00,8.986217901110000322e-03,7.694498635829999898e-03,-1.014561578629999926e-02,1.000000000000000000e+00
2.120107485000000125e+00,-2.855570925170000329e+00,2.022577073079999954e-01,-9.343174994880000028e+00,2.391313575209999889e-02,4.023537039760000621e-03,-3.240225836630000310e-03,1.000000000000000000e+00
2.125167482999999802e+00,-2.909780361999999787e+00,2.272718101199999730e-01,-9.363128234110000392e+00,1.033077482129999940e-02,3.821935737510000382e-03,1.589513849470000064e-03,1.000000000000000000e+00
2.130072753999999957e+00,-2.833574197409999940e+00,2.593986310149999919e-01,-9.343194868630000371e+00,7.960250601169999510e-03,9.409299120309999251e-03,-9.570039808749999932e-03,1.000000000000000000e+00
2.135229897999999960e+00,-2.759576356529999774e+00,1.991200668690000231e-01,-9.386818321779999863e+00,5.445074290040000098e-03,1.043427921829999903e-02,2.598486375060000096e-03,1.000000000000000000e+00
2.140176127999999789e+00,-2.929970040329999748e+00,2.555785978029999628e-01,-9.398574226019999145e+00,1.793707720940000000e-02,-7.261006161569999104e-03,8.143883198500000489e-03,1.000000000000000000e+00
2.145151842999999836e+00,-2.809650008729999815e+00,2.257763656640000005e-01,-9.368791082180001339e+00,4.724174272270001071e-03,-5.385418422520000213e-03,-1.497106859460000132e-03,1.000000000000000000e+00
2.150113988999999837e+00,-2.806823553129999649e+00,2.554019077949999939e-01,-9.384316568089998256e+00,1.194946654140000009e-02,6.769709289069998680e-04,-1.601636782290000172e-02,1.000000000000000000e+00
2.155176917999999997e+00,-2.953470158380000044e+00,2.749499637539999930e-01,-9.357111165780001016e+00,1.796917803590000057e-02,-1.964234188200000147e-02,4.168548621239999766e-03,1.000000000000000000e+00
2.160271363000000111e+00,-2.827356638069999928e+00,2.852911971620000209e-01,-9.373321711339999140e+00,1.468693092469999968e-02,-1.488325535319999894e-03,-8.161770179869999586e-03,1.000000000000000000e+00
2.165064832000000106e+00,-2.884822738610000048e+00,2.926333218199999586e-01,-9.358433938810000186e+00,1.080982014539999883e-02,-1.303716003890000030e-02,-2.092331182209999918e-03,1.000000000000000000e+00
2.170063920000000035e+00,-2.846744644630000209e+00,2.493041571759999908e-01,-9.407709134110000093e+00,2.300274558369999698e-03,9.821047075089999606e-03,-3.661520313469999663e-03,1.000000000000000000e+00
2.175228882999999946e+00,-2.818329866530000061e+00,2.756622584760000105e-01,-9.383034711580000575e+00,1.177721004929999787e-02,-9.813169017430000210e-03,-1.641647145149999903e-02,1.000000000000000000e+00
2.180230104000000058e+00,-2.882394342420000033e+00,2.375695331800000420e-01,-9.386356549480000311e+00,8.134159259499999794e-03,-9.914008900520000778e-03,3.783737774939999882e-03,1.000000000000000000e+00
2.185088621999999869e+00,-2.819301634169999904e+00,2.341942297949999863e-01,-9.362577029969999742e+00,-1.643375260760000052e-03,8.363761007790000354e-03,-6.347960792479999739e-03,1.000000000000000000e+00
2.190193106999999806e+00,-2.804797892520000335e+00,2.543846022449999800e-01,-9.367398751039999638e+00,6.872039521110001213e-04,1.074243430050000024e-02,-2.554230391979999890e-02,1.000000000000000000e+00
2.195143197000000157e+00,-2.950354364449999878e+00,2.189238511549999877e-01,-9.358781729339998634e+00,9.917384013530001347e-03,5.887390114369999740e-03,8.453078567979999125e-03,1.000000000000000000e+00
2.200096951999999995e+00,-2.802627562749999690e+00,1.995455074729999834e-01,-9.375781963979999745e+00,8.223376236859999619e-03,-5.744556896390000042e-03,-4.383995197710000187e-03,1.000000000000000000e+00
2.205054743999999900e+00,-2.858215009929999884e+00,2.330324925389999913e-01,-9.366815982709999489e+00,8.550967089830000673e-03,5.605866201220000011e-03,-3.841420169919999850e-03,1.000000000000000000e+00
2.210157135999999856e+00,-2.800568584390000115e+00,2.449769050939999970e-01,-9.352028163419999984e+00,6.159945856780000249e-03,1.401506550610000061e-02,-2.158730849620000072e-02,1.000000000000000000e+00
2.215172074999999907e+00,-2.841778838920000272e+00,2.337826715850000181e-01,-9.409167516230001027e+00,5.456278566270000678e-03,-1.898930058809999901e-03,-1.910731010140000186e-02,1.000000000000000000e+00
2.220112735999999920e+00,-2.866671872630000006e+00,2.399790602739999834e-01,-9.396168333920000393e+00,4.414421273399999875e-04,8.655303157870001401e-03,-2.338588424029999779e-02,1.000000000000000000e+00
2.225114150000000013e+00,-2.937363365449999986e+00,1.512319054800000118e-01,-9.356406232379999466e+00,-5.867969710379999405e-03,4.147173836829999918e-03,-8.159834891560000664e-03,1.000000000000000000e+00
2.230186677999999922e+00,-2.782830390859999614e+00,2.638266217909999711e-01,-9.349078081449999189e+00,1.998230256140000327e-02,6.576532498000000129e-03,-5.510883405800000648e-03,1.000000000000000000e+00
2.235118917999999955e+00,-2.862569405749999962e+00,2.986107157289999980e-01,-9.350442940060000652e+00,3.451227676120000119e-03,6.559644825760000200e-03,-5.235733930020000475e-03,1.000000000000000000e+00
2.240155303999999958e+00,-2.827110846620000117e+00,1.722136475040000059e-01,-9.372064404760001466e+00,1.106791291389999828e-02,9.351423010229998473e-03,-4.587985575199999763e-03,1.000000000000000000e+00
2.245183393000000027e+00,-2.793391240109999618e+00,2.088683393530000043e-01,-9.394027230239998971e+00,1.445961277929999796e-02,8.180579170580000101e-03,-1.720057614150000136e-02,1.000000000000000000e+00
2.250162309999999888e+00,-2.867118447360000211e+00,2.293694582530000081e-01,-9.370855613489998959e+00,-4.549151752140000865e-03,1.088170707229999846e-02,-3.613910637800000440e-03,1.000000000000000000e+00
2.255146907999999950e+00,-2.865586415479999705e+00,3.175590887620000080e-01,-9.362343805730001023e+00,1.195026654749999952e-02,7.172219920899999780e-04,-4.712041001770000091e-03,1.000000000000000000e+00
2.260205891000000022e+00,-2.855924853170000333e+00,2.697719765939999848e-01,-9.376990755250000475e+00,3.765184897929999865e-03,8.350436575709999781e-03,1.051335129890000044e-03,1.000000000000000000e+00
2.265057713000000028e+00,-2.799621074409999633e+00,2.223506289990000162e-01,-9.354310136880000570e+00,-4.753835033630000352e-03,-9.835185483099999001e-03,-1.614952646200000161e-02,1.000000000000000000e+00
2.270171114000000046e+00,-2.846037080879999959e+00,1.627188383250000037e-01,-9.366270039269998904e+00,8.649813244119999942e-04,1.019301917399999952e-02,-1.652268460020000097e-03,1.000000000000000000e+00
2.275164501999999977e+00,-2.833170292790000655e+00,1.950612016659999948e-01,-9.349154653810000326e+00,-1.276451349260000062e-02,2.322946116330000185e-02,-5.014841444789999887e-03,1.000000000000000000e+00
2.280089159000000087e+00,-2.801008437109999694e+00,2.209733127640000072e-01,-9.369103216869998363e+00,-7.939767092470000759e-03,-1.286228070969999996e-03,-1.300101913510000144e-02,1.000000000000000000e+00
2.285007580999999899e+00,-2.786061627870000112e+00,2.393525806720000204e-01,-9.303844270489998181e+00,-7.661009440200000024e-04,1.950356364250000266e-02,-2.469959482550000002e-02,1.000000000000000000e+00
2.290188906000000024e+00,-2.866490086330000242e+00,2.024755147769999875e-01,-9.321459422160000230e+00,-4.151750355960000249e-03,-4.031625576319999832e-05,-1.646500267089999817e-02,1.000000000000000000e+00
2.295170418000000101e+00,-2.835626161509999577e+00,2.070216703069999720e-01,-9.332015887489999884e+00,9.222113527360001686e-03,8.582860231399999304e-03,-6.862579379229999561e-03,1.000000000000000000e+00
2.300253108999999796e+00,-2.829524922020000055e+00,1.972105069210000061e-01,-9.373204222440000066e+00,-5.879684817050000178e-03,1.453544571999999986e-02,-9.050338529049999775e-03,1.000000000000000000e+00
2.305124848000000171e+00,-2.803198056109999836e+00,1.980054018919999992e-01,-9.407415704129999057e+00,-1.606570184229999879e-02,7.473996840420000197e-03,-1.067303307349999966e-02,1.000000000000000000e+00
2.310172126999999964e+00,-2.860980675249999550e+00,2.390511135080000127e-01,-9.349597136880001713e+00,-1.898133382200000233e-02,2.100726775829999879e-02,2.334193326530000119e-03,1.000000000000000000e+00
2.315243437999999987e+00,-2.769251655109999710e+00,2.067752212650000032e-01,-9.359521734050000319e+00,-1.066572405400000034e-02,6.057190708819998846e-03,-2.072536014020000261e-02,1.000000000000000000e+00
2.320212839999999943e+00,-2.882967758399999525e+00,2.047004425510000059e-01,-9.329332932010000690e+00,-7.953858934339998882e-03,1.913469098510000091e-02,8.119937032460000648e-03,1.000000000000000000e+00
2.325216689999999975e+00,-2.829343135709999846e+00,1.606330267599999917e-01,-9.353801018320000438e+00,-1.611844636499999922e-04,3.495714860040000180e-03,4.955028183760000482e-03,1.000000000000000000e+00
2.330090674000000028e+00,-2.799575773959999569e+00,1.746591044269999726e-01,-9.366920612130000379e+00,-8.059846237299999813e-03,-1.085962448269999978e-02,5.621728021649999817e-03,1.000000000000000000e+00
2.335110224000000123e+00,-2.781058412759999765e+00,2.209182215759999957e-01,-9.386466439600001266e+00,-2.435781992970000032e-02,1.064517349000000147e-02,-8.901737630370000834e-03,1.000000000000000000e+00
2.340165745999999825e+00,-2.853355002679999863e+00,2.343787377819999962e-01,-9.354714626030000701e+00,-1.657051406799999946e-02,-5.518892779950000486e-03,-1.048732316120000105e-03,1.000000000000000000e+00
2.345109513999999784e+00,-2.824924442489999965e+00,2.413242095389999953e-01,-9.376275884969999197e+00,-4.049388691780000590e-03,1.186096388849999968e-02,-7.053982466459999406e-03,1.000000000000000000e+00
2.350126506000000060e+00,-2.878757739490000134e+00,2.377092156459999772e-01,-9.368805695219998952e+00,-1.321534067389999907e-02,2.426914637910000064e-03,3.023458831009999750e-02,1.000000000000000000e+00
2.355092640000000070e+00,-2.754071913889999834e+00,2.113842128979999957e-01,-9.393235203080001483e+00,-1.783464290200000024e-02,-1.247759559190000055e-03,-3.625970333809999668e-03,1.000000000000000000e+00
2.360228697000000153e+00,-2.852038659390000230e+00,2.346055322760000061e-01,-9.325138402929999515e+00,-8.132707327600000383e-03,5.616863258180000533e-03,7.870351895689998989e-03,1.000000000000000000e+00
2.365139351999999917e+00,-2.747932680479999945e+00,2.073013640309999961e-01,-9.294427038330001167e+00,-9.932045824829999897e-03,-6.499621085820000109e-03,-3.392275422809999837e-03,1.000000000000000000e+00
2.370122827999999959e+00,-2.780531466270000251e+00,1.831234197810000242e-01,-9.330657458619999289e+00,-1.934513449670000051e-02,-4.974395036700000189e-03,1.269767992200000056e-02,1.000000000000000000e+00
2.375245577999999913e+00,-2.759612012359999866e+00,1.046268061720000003e-01,-9.351253671919998567e+00,-3.882014751430000465e-02,-7.111352868380000324e-03,-8.175570517779999491e-03,1.000000000000000000e+00
2.380174837999999848e+00,-2.802169882109999843e+00,1.615832584239999814e-01,-9.362705624780000235e+00,-1.973968185480000012e-02,-1.035685371609999968e-02,-2.017365070060000033e-03,1.000000000000000000e+00
2.385046448000000208e+00,-2.719985519890000258e+00,3.745093122020000109e-01,-9.475589661160000787e+00,-1.606824249029999846e-02,-1.624666969289999914e-03,-9.937842376530000438e-03,1.000000000000000000e+00
2.390210821999999791e+00,-2.872053273409999719e+00,2.929390450340000340e-01,-9.462312246439999797e+00,-3.701645880940000050e-02,-2.297585643829999982e-02,4.733936395500000158e-03,1.000000000000000000e+00
2.395255566999999974e+00,-2.823609560500000004e+00,2.573549232930000263e-01,-9.314082755910000344e+00,-2.579025179150000111e-02,-2.968571381640000128e-03,-5.993074737489999769e-03,1.000000000000000000e+00
2.400098652000000055e+00,-2.904904864919999774e+00,2.133615408529999924e-01,-9.348211235479999104e+00,-2.227523364130000114e-02,-3.236742690210000183e-03,-1.960288733240000275e-02,1.000000000000000000e+00
2.405115024000000101e+00,-2.940019140660000030e+00,2.678542698720000059e-01,-9.362521500389998863e+00,-2.136396057899999854e-02,-1.280375663190000055e-02,-1.417301595209999928e-03,1.000000000000000000e+00
2.410204758999999974e+00,-2.910795676520000264e+00,4.130063257159999890e-01,-9.359847897259999883e+00,-1.776049099859999814e-02,-9.405982680619999828e-03,-5.944091826680000367e-04,1.000000000000000000e+00
2.415120326999999900e+00,-2.870050701420000294e+00,4.579759327769999944e-01,-9.387525593260001244e+00,-1.862407475709999816e-02,-1.080979034299999961e-02,-2.204328402880000037e-02,1.000000000000000000e+00
2.420210260999999807e+00,-2.826018667469999635e+00,4.686163865940000117e-01,-9.369143548880000338e+00,-3.428047522900000421e-02,-5.662547424440000053e-03,-3.410383313890000267e-02,1.000000000000000000e+00
2.425124283000000158e+00,-2.918246284790000367e+00,3.770856654959999776e-01,-9.373672424480000487e+00,-5.707329139110000130e-03,-5.109893158079999512e-03,-1.271684095260000071e-02,1.000000000000000000e+00
2.430105020000000060e+00,-2.868392705080000216e+00,2.306869523260000054e-01,-9.387916638410001013e+00,-1.305085513739999772e-02,5.002851597960000091e-03,-2.041234448550000025e-02,1.000000000000000000e+00
2.435034039000000039e+00,-2.836896035309999675e+00,1.463629568700000050e-01,-9.354071651950000899e+00,6.464120466259999642e-03,6.720570381730000186e-04,-2.041058242319999938e-02,1.000000000000000000e+00
2.440256036000000073e+00,-2.817448699779999899e+00,1.840282414000000144e-01,-9.395234852470000675e+00,9.035437367860001470e-03,1.514864386989999822e-03,-2.458109706639999975e-02,1.000000000000000000e+00
2.445180703000000122e+00,-2.909476118349999751e+00,1.432083652970000121e-01,-9.463591764860000310e+00,-6.138646043840000413e-03,2.066405257210000151e-03,-1.215768791740000007e-02,1.000000000000000000e+00
2.450223042999999823e+00,-2.876973778679999594e+00,2.111871194230000026e-01,-9.434814583180001435e+00,-9.861711412669999302e-03,3.483488457280000620e-03,-6.555524654689999335e-03,1.000000000000000000e+00
2.455102419000000147e+00,-2.780528835920000219e+00,2.587713294289999966e-01,-9.413912080410000272e+00,-1.272561401129999881e-02,1.178584247829999980e-02,-2.530119009320000098e-02,1.000000000000000000e+00
2.460180498000000160e+00,-2.836729738830000347e+00,2.897845995910000028e-01,-9.400079369889999370e+00,-8.339862339199999655e-03,-2.137511270119999644e-03,-1.084962300960000056e-02,1.000000000000000000e+00
2.465210875999999995e+00,-2.889212498000000018e+00,3.091217710120000017e-01,-9.392306982319999165e+00,-1.144538260999999890e-02,-1.660790108139999915e-02,-3.630214836449999639e-03,1.000000000000000000e+00
2.470056410999999841e+00,-2.823875225699999714e+00,2.445411074920000039e-01,-9.417944696919999359e+00,-1.356940064580000084e-02,-1.500638900319999861e-03,-1.138118468230000027e-02,1.000000000000000000e+00
2.475199293999999828e+00,-2.799155794979999445e+00,2.742665480669999600e-01,-9.420454633920000376e+00,-4.468599334359999939e-03,-8.866066113110001104e-03,-3.331995382909999637e-02,1.000000000000000000e+00
2.480101255000000116e+00,-2.821612249200000200e+00,3.335041152600000114e-01,-9.429323584549999637e+00,-1.072511356320000019e-02,-1.945431344209999636e-02,-2.137371711430000043e-02,1.000000000000000000e+00
2.485068335999999878e+00,-2.837823087030000302e+00,2.590820393459999926e-01,-9.390375721999999925e+00,8.833267726000000250e-03,-9.653277695180000409e-03,-2.612266689540000339e-02,1.000000000000000000e+00
2.490308036000000058e+00,-2.832843252790000488e+00,2.073263706080000213e-01,-9.314295521880000095e+00,-7.449051365260000133e-03,-1.023794244970000107e-02,-2.213840000329999821e-02,1.000000000000000000e+00
2.495126367000000123e+00,-2.785358448040000212e+00,1.542167482440000015e-01,-9.383350353400000898e+00,-9.404836222530001122e-03,-3.633732674639999875e-03,-1.727885194120000120e-02,1.000000000000000000e+00
2.500104609000000089e+00,-2.823621543199999806e+00,1.724390902899999856e-01,-9.360516590310000495e+00,-1.213465631010000184e-02,-8.298510685559999656e-03,-1.895934529600000126e-02,1.000000000000000000e+00
2.505044439999999817e+00,-2.798149248290000113e+00,2.360807376610000174e-01,-9.416682129639999843e+00,-2.510450035329999871e-02,-6.897132843729999324e-03,-1.915164105590000040e-02,1.000000000000000000e+00
2.510154217000000187e+00,-2.853902991950000079e+00,2.802794334150000011e-01,-9.404393725960000339e+00,-1.663824543359999908e-02,-1.631400734189999979e-02,-2.737174276260000323e-03,1.000000000000000000e+00
2.515185046000000035e+00,-2.828333666409999836e+00,2.555187756399999732e-01,-9.399227721489999965e+00,-1.375360507519999935e-02,-5.518926307560000424e-03,-2.395721711219999869e-02,1.000000000000000000e+00
2.519998327999999788e+00,-2.844433152820000199e+00,3.090838866869999868e-01,-9.380337727589999730e+00,-2.199935540559999625e-02,-2.317105419930000007e-02,-1.941695250570000045e-02,1.000000000000000000e+00
2.525170483000000132e+00,-2.843566306860000115e+00,3.424688544169999793e-01,-9.373261505589999487e+00,6.064687389879999842e-03,-1.048688683660000016e-02,-1.808848418299999899e-02,1.000000000000000000e+00
2.530135320999999937e+00,-2.866553799210000086e+00,3.138755048779999779e-01,-9.395712406849998644e+00,6.351113552230000471e-04,-1.405000686650000052e-02,-2.604616619649999937e-02,1.000000000000000000e+00
2.535202401999999910e+00,-2.858629435950000186e+00,3.091916944429999869e-01,-9.381745840820000737e+00,-6.853421218689999435e-04,-6.083293817939999619e-03,-3.135158121590000263e-02,1.000000000000000000e+00
2.540219340000000159e+00,-2.865940635749999910e+00,3.113593208059999839e-01,-9.401198729310001667e+00,6.737348157909999954e-03,-2.415349474179999748e-03,-2.683972194790000196e-02,1.000000000000000000e+00
2.545169545999999894e+00,-2.862242073490000482e+00,3.018404183650000294e-01,-9.405617714789999084e+00,1.085654459890000000e-02,4.541954025630000683e-03,-2.917718887329999802e-02,1.000000000000000000e+00
2.549982544000000129e+00,-2.872614706690000297e+00,2.541483640699999658e-01,-9.416197561000000604e+00,5.500165279950000249e-03,7.690999191250000441e-04,-2.297530695799999967e-02,1.000000000000000000e+00
2.555045790999999955e+00,-2.831045847979999586e+00,2.789400380370000154e-01,-9.431156645199999744e+00,1.437990739939999998e-02,-2.180136926470000250e-02,-2.985228784380000028e-02,1.000000000000000000e+00
2.560225317000000000e+00,-2.826028019819999848e+00,3.272407805490000210e-01,-9.345742799539999979e+00,2.121367305519999968e-02,-1.340225525200000080e-02,-3.693823143839999879e-02,1.000000000000000000e+00
2.565159342999999925e+00,-2.902903461970000265e+00,2.327502963300000227e-01,-9.415963752239999707e+00,8.638280443850000073e-03,-4.512124694880000064e-03,-1.669033803050000084e-02,1.000000000000000000e+00
2.570018274000000158e+00,-2.821671578170000139e+00,3.164065211930000010e-01,-9.366712522340000291e+00,1.266155671329999809e-02,-1.374427322300000170e-02,-3.343733027580000211e-02,1.000000000000000000e+00
2.575187110999999973e+00,-2.864732721259999781e+00,2.260329525079999846e-01,-9.371494495920000389e+00,1.630198396739999944e-02,4.935022443529999900e-03,-3.751778975130000415e-02,1.000000000000000000e+00
2.580201033999999893e+00,-2.909973546479999840e+00,2.223882941290000193e-01,-9.384309553830000539e+00,1.917764358220000118e-02,-1.515062153339999905e-02,-2.346604503690000176e-02,1.000000000000000000e+00
2.585150700999999884e+00,-2.816138786229999802e+00,2.485377576469999794e-01,-9.372366018050000136e+00,1.355925295500000002e-02,7.198456674810001059e-03,-3.993682190780000613e-02,1.000000000000000000e+00
2.590103853000000012e+00,-2.889988158550000019e+00,2.462577752169999856e-01,-9.364911025870000572e+00,1.548005174850000144e-02,9.637715294959998957e-03,-2.364751882850000056e-02,1.000000000000000000e+00
2.595195848999999999e+00,-2.885739561199999859e+00,2.473496621070000179e-01,-9.393520449760000446e+00,1.096717454489999979e-02,9.640767239030000393e-03,-3.090579807759999756e-02,1.000000000000000000e+00
2.600086101000000038e+00,-2.823774395670000104e+00,2.723763138740000200e-01,-9.356546517630000892e+00,1.082130521539999800e-02,1.396145112810000082e-02,-3.106563538309999734e-02,1.000000000000000000e+00
2.605057255999999821e+00,-2.859153752090000111e+00,2.674288840669999945e-01,-9.391388113910000612e+00,2.115104720000000188e-02,1.395695656539999892e-02,-2.913781069219999881e-02,1.000000000000000000e+00
2.610143694000000014e+00,-2.844648549140000426e+00,3.198723706730000060e-01,-9.377544882000000470e+00,1.760739460590000222e-02,-7.051778957250000052e-04,-3.293625637890000568e-02,1.000000000000000000e+00
2.614999189000000168e+00,-2.874458873250000046e+00,2.863750286099999709e-01,-9.405533543639998939e+00,6.992149632419999636e-03,-4.860127810390000441e-04,-2.856271713969999945e-02,1.000000000000000000e+00
2.620090250000000065e+00,-2.824607047099999768e+00,2.055960214180000134e-01,-9.394177452370000125e+00,3.696760907769999771e-02,-1.693718833849999989e-03,-5.024716630580000620e-02,1.000000000000000000e+00
2.625160108000000214e+00,-2.892547487649999916e+00,2.366299507750000142e-01,-9.377959308019999440e+00,1.346350740640000002e-02,1.846185699109999939e-02,-3.274622187020000130e-02,1.000000000000000000e+00
2.630205092999999827e+00,-2.889841735820000146e+00,2.307362530940000045e-01,-9.379740930739998817e+00,3.061523847280000002e-02,1.839455403390000132e-02,-2.643655426800000166e-02,1.000000000000000000e+00
2.635092381000000206e+00,-2.816659887490000180e+00,2.710781638220000067e-01,-9.387453112550000256e+00,1.905503869060000063e-02,2.602721378209999631e-02,-5.283663794400000197e-02,1.000000000000000000e+00
2.640246047000000207e+00,-2.911601147679999890e+00,2.369223213180000065e-01,-9.359020798789998707e+00,1.494962815200000066e-02,9.487521834670000279e-03,-4.389121755959999455e-02,1.000000000000000000e+00
2.645168292000000143e+00,-2.899317712429999805e+00,2.439961686939999819e-01,-9.361775065930000750e+00,4.496001079680000262e-02,4.932012408969999734e-03,-3.566677123309999753e-02,1.000000000000000000e+00
2.650033625999999920e+00,-2.817029889850000135e+00,2.533716623430000148e-01,-9.355103333089999751e+00,2.410755492750000367e-02,9.174623526629998096e-03,-4.124678671359999910e-02,1.000000000000000000e+00
2.655070530999999789e+00,-2.873358803049999910e+00,2.560564261809999964e-01,-9.336077145580000902e+00,3.789266198869999797e-02,5.219992250199999295e-03,-3.819091990589999763e-02,1.000000000000000000e+00
2.660234457000000052e+00,-2.814827995889999990e+00,2.817496703640000044e-01,-9.383321711830001632e+00,3.848474100230000333e-02,1.359426230190000084e-02,-5.567162111400000141e-02,1.000000000000000000e+00
2.665184346000000204e+00,-2.883309411439999970e+00,2.318444517980000064e-01,-9.368764194169999726e+00,4.076753184200000019e-02,5.197182763370000085e-04,-3.619868680830000407e-02,1.000000000000000000e+00
2.670146015999999900e+00,-2.852920995179999863e+00,1.959341485760000001e-01,-9.394767234950000656e+00,3.777378424999999762e-02,2.097355388100000106e-02,-3.193645179270000051e-02,1.000000000000000000e+00
2.675137982999999942e+00,-2.830670292670000254e+00,2.260495383159999983e-01,-9.351198726860001642e+00,3.503378108140000474e-02,7.870571687820000426e-03,-3.932210803030000701e-02,1.000000000000000000e+00
2.680256201000000171e+00,-2.845551343189999915e+00,2.731535087909999771e-01,-9.404152318419999546e+00,2.407900244000000037e-02,1.823563128709999870e-02,-3.697588294740000031e-02,1.000000000000000000e+00
2.685081246999999838e+00,-2.878041700170000272e+00,2.272767237570000043e-01,-9.358719770020000439e+00,3.231799602509999314e-02,3.708082018420000032e-03,-3.485324233769999946e-02,1.000000000000000000e+00
2.689993665999999894e+00,-2.861988390990000575e+00,1.906677524800000079e-01,-9.336407400439998838e+00,3.118340857330000049e-02,2.831404656169999798e-02,-5.093087628480000295e-02,1.000000000000000000e+00
2.695187032999999843e+00,-2.902192683349999580e+00,1.537569487120000189e-01,-9.337561831180000382e+00,2.468292973939999885e-02,1.670319028199999944e-02,-4.255429655310000170e-02,1.000000000000000000e+00
2.700249025000000191e+00,-2.914799066940000127e+00,1.755368005769999962e-01,-9.307032837399999536e+00,1.559456530960000135e-02,2.009617909790000281e-02,-4.277862235899999865e-02,1.000000000000000000e+00
2.705034479000000047e+00,-2.915273114200000126e+00,2.183177750199999656e-01,-9.299833865810001043e+00,4.619906097649999904e-02,2.942921826620000132e-03,-2.837569266559999970e-02,1.000000000000000000e+00
2.710192412000000051e+00,-2.856976700309999728e+00,2.166985032559999858e-01,-9.328725613770000535e+00,2.890079841020000082e-02,1.710974052549999944e-02,-1.812674105170000022e-02,1.000000000000000000e+00
2.715097801999999838e+00,-2.769322089990000180e+00,1.628560000389999984e-01,-9.356412662120000334e+00,3.200408816340000184e-02,1.113285683099999972e-02,-4.145595058800000121e-02,1.000000000000000000e+00
2.720091699000000141e+00,-2.841508205279999810e+00,1.713037113190000182e-01,-9.343285469519999609e+00,2.399557456370000202e-02,1.997680589559999720e-02,-2.911444194609999828e-02,1.000000000000000000e+00
2.725170274999999975e+00,-2.819536904229999585e+00,1.210370846949999912e-01,-9.372053298839999158e+00,2.723617479209999859e-02,2.406688779590000077e-02,-1.927877403800000097e-02,1.000000000000000000e+00
2.730207479000000159e+00,-2.790883641200000209e+00,1.106349788120000038e-01,-9.339590706659999242e+00,2.881192229689999787e-02,1.756629906590000123e-02,-2.714284136890000171e-02,1.000000000000000000e+00
2.735077099000000178e+00,-2.755142757990000302e+00,1.317991007980000018e-01,-9.350519512430000901e+00,2.646127715709999800e-02,2.177125588059999894e-02,-3.171706944700000003e-02,1.000000000000000000e+00
2.740224701999999901e+00,-2.767180109529999932e+00,1.354231821799999902e-01,-9.349004431689998285e+00,1.962929032740000010e-02,1.464390382170000122e-02,-3.622407093640000325e-02,1.000000000000000000e+00
2.745037711999999797e+00,-2.877047720699999811e+00,1.029770753360000068e-01,-9.280963161120000748e+00,1.475557405500000155e-02,6.456475704909999877e-03,-2.299942262469999860e-02,1.000000000000000000e+00
2.750033736999999867e+00,-2.850220796309999916e+00,1.500190590920000011e-01,-9.341074807729999208e+00,-9.980116738010000310e-05,9.967597201469998586e-03,-2.132106758650000045e-02,1.000000000000000000e+00
2.755072343000000146e+00,-2.760796838230000105e+00,2.314008362159999943e-01,-9.269839709560001140e+00,9.626565501090001212e-03,1.501666009429999775e-02,-4.859458655119999054e-02,1.000000000000000000e+00
2.760223374999999812e+00,-2.811372594740000341e+00,2.409832688799999900e-01,-9.387657110689998419e+00,4.377741133789999684e-04,2.513364329929999863e-02,-3.553162887689999966e-02,1.000000000000000000e+00
2.765090221999999986e+00,-2.815962845140000059e+00,2.617950246319999952e-01,-9.327577612780000749e+00,1.920819841330000111e-02,2.678907476370000207e-02,-3.024139255290000244e-02,1.000000000000000000e+00
2.770069181999999852e+00,-2.761317939500000040e+00,2.446692273840000154e-01,-9.374528749050000442e+00,1.424768590369999933e-03,2.248849719759999852e-02,-4.325808584689999625e-02,1.000000000000000000e+00
2.775166807000000180e+00,-2.777710855889999664e+00,1.390493733210000082e-01,-9.343016589450000353e+00,6.025280803439998605e-03,6.764977239069999183e-03,-4.325388744469998992e-02,1.000000000000000000e+00
2.780230635000000117e+00,-2.843392703859999759e+00,8.535598711840000630e-02,-9.380712990639999305e+00,2.552553825079999922e-02,4.700161516669999979e-04,-3.222203627229999756e-02,1.000000000000000000e+00
2.785124388999999923e+00,-2.790495518669999786e+00,1.180530639149999922e-01,-9.432358422200000092e+00,3.106306307020000046e-02,-1.255826675329999855e-03,-2.539463713770000186e-02,1.000000000000000000e+00
2.790184947000000193e+00,-2.718628844589999982e+00,2.324277863780000175e-01,-9.403832584939999961e+00,2.710692770779999858e-02,2.427950315180000054e-02,-4.689247906209999955e-02,1.000000000000000000e+00
2.795201000000000047e+00,-2.885242425329999971e+00,1.871913633400000276e-01,-9.446161906629999550e+00,2.900482714180000268e-02,3.252013353630000062e-03,-3.024863637980000283e-02,1.000000000000000000e+00
2.800116554999999785e+00,-2.706862126690000370e+00,1.197569726230000020e-01,-9.347105320069999834e+00,8.957090321930000687e-04,5.334155634050000150e-03,-3.420295193789999605e-02,1.000000000000000000e+00
2.805055878000000114e+00,-2.803247448209999604e+00,8.960298617159999368e-02,-9.430318440810001590e+00,2.359722927209999960e-02,7.241275161500000147e-03,-3.208255767820000076e-02,1.000000000000000000e+00
2.810180823000000050e+00,-2.758110960149999791e+00,1.322259387749999959e-01,-9.444362163730000148e+00,1.288401242349999920e-02,-4.840205423529999468e-03,-4.227215796709999501e-02,1.000000000000000000e+00
2.815088509999999822e+00,-2.824108742190000410e+00,1.512545739700000003e-01,-9.444507709679999863e+00,-3.642737865449999918e-03,-1.344846468420000073e-02,-1.866154745220000022e-02,1.000000000000000000e+00
2.819958653000000037e+00,-2.816757210390000488e+00,1.133807795219999859e-01,-9.438363215569999909e+00,5.613047163930000132e-03,-1.325418241320000003e-02,-1.801414974029999852e-02,1.000000000000000000e+00
2.824901972999999789e+00,-2.874873883789999862e+00,1.185713430349999986e-01,-9.406129755969999451e+00,-9.506279602650000507e-03,-9.250279515979998451e-03,-9.609328582879998054e-03,1.000000000000000000e+00
2.830057388000000174e+00,-2.838286905149999928e+00,1.054581880949999884e-01,-9.409607661209999918e+00,3.463843371719999703e-03,-2.453438192609999624e-02,-1.996886916459999703e-02,1.000000000000000000e+00
2.835054534000000181e+00,-2.787662925590000285e+00,6.414361924299999407e-02,-9.350093395969999222e+00,-1.029915874820000032e-03,-2.354921307409999637e-03,-2.772356569770000057e-02,1.000000000000000000e+00
2.840063558000000210e+00,-2.763665087149999700e+00,4.958080206750000059e-03,-9.425660970389998283e+00,3.543289378289999833e-03,2.298953477289999796e-04,-1.231758669020000148e-02,1.000000000000000000e+00
2.845005210000000062e+00,-2.711938991559999401e+00,1.351941865969999990e-01,-9.496866842470000236e+00,7.814411073920000603e-03,-1.796787721099999801e-03,-2.536169625820000259e-02,1.000000000000000000e+00
2.850233799000000179e+00,-2.759432271879999732e+00,2.252959617360000000e-01,-9.539840307280000431e+00,9.911280125379999528e-03,2.783007221300000129e-03,-2.510051988070000073e-02,1.000000000000000000e+00
2.855192764999999966e+00,-2.818045204370000167e+00,2.870079562189999933e-01,-9.435307919660001374e+00,-2.040937915440000153e-02,-2.176531963049999768e-02,-1.564979366959999910e-02,1.000000000000000000e+00
2.860241106999999783e+00,-2.771290175199999872e+00,2.415260157209999925e-01,-9.468360294430000934e+00,-7.701262831689999373e-03,-3.243198245759999765e-02,-3.045375272629999991e-02,1.000000000000000000e+00
2.865191645999999981e+00,-2.847803213770000230e+00,2.862772307910000369e-01,-9.396151382789998507e+00,-5.574477836490000088e-03,-4.436637088659999700e-02,-2.285537123679999560e-02,1.000000000000000000e+00
2.870125956999999950e+00,-2.787845296420000007e+00,2.654723066390000108e-01,-9.449492512349999984e+00,2.338801510629999816e-03,-3.143181279300000242e-02,-2.838695049289999967e-02,1.000000000000000000e+00
2.875170562000000096e+00,-2.818129375519999869e+00,1.967675123940000048e-01,-9.421248999169998584e+00,1.392600312830000013e-02,-3.570908680559999743e-02,-2.388550341129999990e-02,1.000000000000000000e+00
2.880173709000000137e+00,-2.838420760660000042e+00,1.636680105420000031e-01,-9.407209367900000174e+00,1.133507117629999929e-02,-2.643709443509999549e-02,-2.088400162759999901e-02,1.000000000000000000e+00
2.885077454000000152e+00,-2.856353599979999824e+00,1.969830913729999911e-01,-9.415151266810001474e+00,1.850348338479999855e-02,-3.055074252190000464e-02,-2.006732486190000025e-02,1.000000000000000000e+00
2.890207081999999872e+00,-2.862850853040000310e+00,1.706857438170000241e-01,-9.429334105940000654e+00,7.745847571640001109e-03,-4.129435122010000070e-02,-1.495050638909999931e-02,1.000000000000000000e+00
2.895108746000000011e+00,-2.883793103299999938e+00,2.077634833839999973e-01,-9.402391738480000427e+00,-5.566576030109999726e-03,-2.230685949329999640e-02,4.843399859959999880e-03,1.000000000000000000e+00
2.900193391000000176e+00,-2.860909655849999567e+00,1.568900225729999987e-01,-9.386603217719999392e+00,1.724357600319999803e-03,-3.506787493819999574e-02,-6.335555575790000407e-03,1.000000000000000000e+00
2.905010416000000095e+00,-2.897565315809999653e+00,1.202455781239999966e-01,-9.358989819130000498e+00,-8.312420919539998884e-03,-3.113107383249999818e-02,2.742654178289999703e-03,1.000000000000000000e+00
2.910226091000000181e+00,-2.852993475889999964e+00,1.331741154780000103e-01,-9.366945746569999898e+00,-1.488482113930000156e-03,-2.639057114720000027e-02,1.389358192680000253e-03,1.000000000000000000e+00
2.915138290999999882e+00,-2.857461853479999814e+00,1.616781518990000055e-01,-9.383061015070000010e+00,-1.599021628500000083e-02,-3.273214399809999675e-02,-1.150084659459999978e-02,1.000000000000000000e+00
2.920070348999999954e+00,-2.911322330740000019e+00,2.212389231639999843e-01,-9.369413013469999996e+00,-1.446073781700000019e-02,-3.785963729019999752e-02,7.241778541359999294e-03,1.000000000000000000e+00
2.925108643999999813e+00,-2.858750724250000097e+00,2.423182803440000199e-01,-9.405501979460000328e+00,-1.071376819160000000e-02,-2.229989878829999675e-02,1.736994832749999985e-03,1.000000000000000000e+00
2.930227943999999862e+00,-2.911808360690000264e+00,1.915571573339999722e-01,-9.377716146910001882e+00,-1.307732239370000028e-02,-2.907806821169999986e-02,2.776367124170000308e-03,1.000000000000000000e+00
