t,ax,ay,az,wx,wy,wz,zv
4.941397999999999624e-03,-2.642794143659999762e+00,3.812716459440000372e-01,-9.433509345800001000e+00,5.108559969810000899e-03,4.112767986949999836e-03,6.969264242800000779e-03,1.000000000000000000e+00
1.000773699999999919e-02,-2.577675482540000118e+00,4.012544765910000533e-01,-9.458853045899999756e+00,5.787260830399999431e-03,-8.438143879180000015e-03,-5.857301875949999905e-04,1.000000000000000000e+00
1.504280600000000058e-02,-2.574570502269999839e+00,3.463513949379999901e-01,-9.481097026409999629e+00,-4.431086592379999967e-03,6.800715811550000524e-03,-1.020647957920000140e-02,1.000000000000000000e+00
2.005467199999999908e-02,-2.660956700079999848e+00,3.957666928299999887e-01,-9.419659099630001364e+00,-8.905681781469998448e-03,-1.723968423900000199e-02,7.631226908419999448e-03,1.000000000000000000e+00
2.506254700000000099e-02,-2.613920808140000052e+00,3.813003971140000448e-01,-9.445548743160001592e+00,-1.847334671769999825e-03,1.171138975770000083e-02,-2.939858939499999987e-03,1.000000000000000000e+00
3.004238000000000047e-02,-2.544851071309999657e+00,3.666998805600000244e-01,-9.469114327669998943e+00,7.239160593600000443e-03,7.729168049989998922e-03,-3.118482790890000217e-02,1.000000000000000000e+00
3.505847899999999656e-02,-2.661536253540000008e+00,4.060552279360000183e-01,-9.460787813350000519e+00,-1.209651818499999883e-04,-4.368472844360000301e-03,-4.486680496479999308e-03,1.000000000000000000e+00
4.006365700000000252e-02,-2.586447402540000162e+00,3.501141084730000075e-01,-9.455126718849999889e+00,8.995121344920000567e-03,1.287126215170000072e-03,-3.714164253320000227e-03,1.000000000000000000e+00
4.501932899999999682e-02,-2.613697228519999971e+00,3.669062898520000227e-01,-9.449715215189998574e+00,-1.260107033890000075e-03,-7.744593545790000137e-03,-2.323483116920000043e-03,1.000000000000000000e+00
5.003643700000000305e-02,-2.582946700950000007e+00,3.918754575450000277e-01,-9.437692768969998980e+00,6.240003276619999519e-03,-5.997425876560000604e-03,-5.276822485029999911e-04,1.000000000000000000e+00
5.502757600000000165e-02,-2.603947111140000104e+00,4.025767747029999621e-01,-9.453393611450000122e+00,-7.480466272680000826e-03,-1.491884700950000045e-03,-6.870067212729999949e-03,1.000000000000000000e+00
6.000754199999999705e-02,-2.641651987889999997e+00,3.596914631029999865e-01,-9.455833990339998607e+00,1.223279279660000095e-03,2.371710492300000209e-03,1.236695051189999964e-02,1.000000000000000000e+00
6.513734999999999664e-02,-2.593692843629999967e+00,3.659898691269999893e-01,-9.427572356969999845e+00,5.621316377070000557e-03,1.283689215779999955e-02,-8.007235825060000922e-03,1.000000000000000000e+00
7.004312699999999670e-02,-2.621071264419999824e+00,4.133651490910000281e-01,-9.437229243110001775e+00,-8.719154633580000757e-03,3.805682295929999591e-03,2.423390280459999935e-03,1.000000000000000000e+00
7.502631299999999726e-02,-2.594450968519999901e+00,3.751853848330000130e-01,-9.445670908239998553e+00,-4.476174945009999697e-04,-2.274745609609999959e-03,5.666078533979999714e-03,1.000000000000000000e+00
7.997435399999999750e-02,-2.624413268320000103e+00,3.716531555859999836e-01,-9.459860177110000379e+00,-7.850641384720000865e-03,2.678593853489999975e-03,1.564225647599999701e-03,1.000000000000000000e+00
8.499469699999999406e-02,-2.592965698400000019e+00,4.243966115189999888e-01,-9.401386945349999635e+00,-1.158798229880000181e-03,-3.237517084929999425e-04,-4.633923992510000263e-03,1.000000000000000000e+00
9.005418199999999651e-02,-2.563883980820000019e+00,3.726497288750000303e-01,-9.456876192859999364e+00,-8.253592066470000210e-03,1.036780327559999951e-02,-8.472137153149999003e-03,1.000000000000000000e+00
9.505720800000000414e-02,-2.630654793060000163e+00,3.919500206180000501e-01,-9.436011684009999456e+00,-6.003654561939999502e-03,9.594649076460000023e-03,9.111540392040000727e-03,1.000000000000000000e+00
1.000581549999999958e-01,-2.597818399119999899e+00,4.087902789230000167e-01,-9.419090359830001091e+00,7.714517880229999729e-03,4.196490161119999923e-03,4.014743492009999887e-03,1.000000000000000000e+00
1.050603360000000042e-01,-2.593783736779999849e+00,3.824793047010000002e-01,-9.433378412899999788e+00,-4.173756111409999969e-03,2.570505952460000031e-03,-3.261573147030000295e-04,1.000000000000000000e+00
1.101240009999999991e-01,-2.649139421040000109e+00,3.837935656369999560e-01,-9.426865085479999351e+00,2.293573692440000009e-03,-8.046849630770000483e-03,1.381724886600000160e-02,1.000000000000000000e+00
1.150344080000000047e-01,-2.590048641909999727e+00,3.980695264119999965e-01,-9.426939319760000657e+00,-3.172737546270000281e-03,1.732458546759999690e-02,-2.659538062289999900e-03,1.000000000000000000e+00
1.200013600000000014e-01,-2.585560098309999777e+00,3.979548505239999812e-01,-9.423355031539999871e+00,-8.524845354259999453e-03,-1.450905390079999802e-02,-6.799686234439999630e-04,1.000000000000000000e+00
1.249639520000000031e-01,-2.616656662850000092e+00,3.860001723030000442e-01,-9.439334690960000884e+00,4.632049240170000269e-03,-2.467352896929999844e-05,6.052026990800000485e-03,1.000000000000000000e+00
1.299604279999999890e-01,-2.591184952459999913e+00,3.835734566130000189e-01,-9.441911847969999272e+00,-7.361503317949999806e-03,-3.580400720240000095e-03,3.433387260879999878e-03,1.000000000000000000e+00
1.350716869999999958e-01,-2.573764446579999809e+00,3.916977628900000230e-01,-9.455760340580001255e+00,-3.942701034249999383e-03,-1.224894262850000082e-02,3.571499139070000422e-03,1.000000000000000000e+00
1.400043149999999903e-01,-2.615060918090000186e+00,3.763368564230000213e-01,-9.460454635870000573e+00,-4.675143864009999382e-04,6.833662278950000148e-03,4.500414710489999623e-03,1.000000000000000000e+00
1.451054149999999876e-01,-2.638024737309999868e+00,3.979319811049999989e-01,-9.441358305739999679e+00,-1.137552130970000130e-02,1.391894184050000011e-02,1.429338008170000056e-02,1.000000000000000000e+00
1.500272769999999867e-01,-2.585523565699999970e+00,3.824953425199999479e-01,-9.431027465860001513e+00,-3.533676266670000236e-03,1.672335155310000071e-02,6.356355268509999989e-03,1.000000000000000000e+00
1.550101060000000086e-01,-2.581877318150000100e+00,3.898168079819999687e-01,-9.405153604410001478e+00,-6.354140117759999977e-03,-6.996457464989999826e-03,2.145714592190000117e-03,1.000000000000000000e+00
1.600105450000000040e-01,-2.625660638029999827e+00,3.743675656440000332e-01,-9.416091762529999798e+00,-7.322032470260000231e-03,-3.484394401310000021e-03,4.864803049710000014e-03,1.000000000000000000e+00
1.650531299999999924e-01,-2.583598735109999822e+00,3.849415300959999620e-01,-9.422731346679999120e+00,8.998900651930000216e-03,-4.045930691059999688e-03,-3.413728903980000218e-03,1.000000000000000000e+00
1.700591800000000042e-01,-2.554118958130000117e+00,3.905841025599999794e-01,-9.444031908859999547e+00,3.443105379119999922e-05,-1.110037881879999931e-02,-9.624593891199999945e-03,1.000000000000000000e+00
1.750063219999999919e-01,-2.611303319120000133e+00,4.108444349740000279e-01,-9.451664595700000504e+00,-5.688805598770000499e-03,1.371336914599999984e-02,-1.774221309459999814e-03,1.000000000000000000e+00
1.799274700000000060e-01,-2.621351834920000012e+00,3.954525488460000071e-01,-9.451022790660001505e+00,-3.205576911570000385e-03,1.543657295409999949e-02,1.923607662319999981e-03,1.000000000000000000e+00
1.849436939999999918e-01,-2.613815594199999648e+00,4.061984723319999602e-01,-9.436296346169999794e+00,5.423431750389999528e-03,-1.254467014220000086e-02,1.408908329900000062e-02,1.000000000000000000e+00
1.899451139999999982e-01,-2.582384683149999915e+00,3.861079800590000444e-01,-9.427371865960001429e+00,2.916516736150000406e-03,7.300071418289999850e-03,2.755372785030000497e-03,1.000000000000000000e+00
1.950991729999999869e-01,-2.575860542080000037e+00,4.015307727820000006e-01,-9.424435227989999220e+00,-3.338937181979999801e-03,2.931275172159999911e-03,-2.623890060930000011e-03,1.000000000000000000e+00
2.000187380000000015e-01,-2.629524912249999957e+00,4.037867350150000090e-01,-9.455473340330000198e+00,-1.581148244440000114e-02,1.363883167510000077e-02,-1.408633310349999886e-03,1.000000000000000000e+00
2.049053769999999997e-01,-2.603900057130000167e+00,3.868890474339999885e-01,-9.470603104920000348e+00,-1.686780597079999946e-03,1.595879904930000079e-02,3.054202534260000174e-03,1.000000000000000000e+00
2.099981109999999873e-01,-2.623525087309999559e+00,4.109235280919999456e-01,-9.445490875499999106e+00,7.056095171720000274e-03,-4.620839841660000225e-03,1.348516717549999924e-02,1.000000000000000000e+00
2.150726789999999888e-01,-2.589895497170000116e+00,3.965226257630000140e-01,-9.456396300389998899e+00,-1.920590992089999793e-03,8.182283490899999734e-03,1.151663810010000212e-02,1.000000000000000000e+00
2.200894730000000077e-01,-2.585482356900000056e+00,3.535604860670000238e-01,-9.480593168540000448e+00,-1.273026783019999900e-02,-5.354875698690000213e-03,-2.241939073429999579e-03,1.000000000000000000e+00
2.249650019999999973e-01,-2.569794958430000165e+00,3.950948214500000222e-01,-9.476030975189999594e+00,-5.936072207989999926e-03,-1.150240655990000024e-03,-4.739441908900000021e-03,1.000000000000000000e+00
2.300129670000000126e-01,-2.618039933900000005e+00,4.168631107419999426e-01,-9.443359708690000076e+00,-5.361492279920000194e-03,-1.996905542909999803e-02,6.608161609619999863e-03,1.000000000000000000e+00
2.350907799999999992e-01,-2.570626440820000358e+00,3.667663699250000020e-01,-9.461922954860000345e+00,7.790863979610000191e-03,-1.463258266450000004e-02,-9.098899550739999315e-03,1.000000000000000000e+00
2.400170739999999969e-01,-2.663915257629999811e+00,4.206923867059999544e-01,-9.428027115000000791e+00,-2.628890331829999722e-03,3.010734682899999723e-03,7.388847414400000028e-03,1.000000000000000000e+00
2.449334420000000012e-01,-2.598627085159999517e+00,4.251903557130000122e-01,-9.445635252400000681e+00,-6.994238588959999538e-03,9.378448594360000836e-04,5.851624067870000133e-03,1.000000000000000000e+00
2.500679909999999895e-01,-2.622616155770000290e+00,3.740752316340000272e-01,-9.448402963550000422e+00,2.313849516210000293e-03,-4.562998190520000351e-03,8.800838142629999888e-03,1.000000000000000000e+00
2.550057219999999902e-01,-2.590911980740000065e+00,3.821067085279999942e-01,-9.472986785189998926e+00,-1.284183934329999810e-03,1.264436077330000074e-02,7.208619732409999280e-03,1.000000000000000000e+00
2.600495110000000110e-01,-2.572595110540000007e+00,3.584254252220000492e-01,-9.464209604489999705e+00,-2.328569535170000118e-04,-1.589637808499999930e-02,-8.176255971189998542e-03,1.000000000000000000e+00
2.650506830000000091e-01,-2.598652511859999681e+00,3.822786675620000185e-01,-9.456077151439998829e+00,-5.019136238840000291e-03,-4.156542476270000050e-03,-9.458207525310000086e-03,1.000000000000000000e+00
2.700955839999999997e-01,-2.612560333440000271e+00,3.705039490179999895e-01,-9.447287695789999162e+00,-1.559414900839999930e-02,6.590957753359999970e-03,-9.834311902519999801e-03,1.000000000000000000e+00
2.749733939999999821e-01,-2.610202372140000282e+00,3.892940627489999694e-01,-9.471534832810000637e+00,7.877459749580000350e-03,1.134218554939999887e-02,-7.020267657940000398e-03,1.000000000000000000e+00
2.800799569999999905e-01,-2.615448456100000207e+00,3.835757581679999917e-01,-9.448580658210001815e+00,-1.608785614370000089e-02,4.152104258539999516e-03,-5.818347446619999419e-03,1.000000000000000000e+00
2.850733739999999905e-01,-2.663271406770000294e+00,4.030480089440000024e-01,-9.406348951680000070e+00,-8.990328758959999569e-03,4.588582552970000422e-03,9.006423875690000927e-03,1.000000000000000000e+00
2.900704210000000227e-01,-2.588191031340000059e+00,3.669830448830000424e-01,-9.441330248689999038e+00,-1.716861035670000021e-03,2.507894998419999983e-03,-3.205045592040000040e-03,1.000000000000000000e+00
2.949762000000000217e-01,-2.597915722020000207e+00,4.108604727929999756e-01,-9.449313648660000453e+00,-5.565547849979999261e-03,-1.133547443900000118e-02,-1.567407860420000267e-03,1.000000000000000000e+00
2.999827970000000232e-01,-2.588312319629999969e+00,4.215582828209999966e-01,-9.446097024700000233e+00,-8.785530924799998462e-03,-1.008576364259999945e-03,1.462681684639999822e-04,1.000000000000000000e+00
3.050512510000000233e-01,-2.605646316270000096e+00,3.586569689559999663e-01,-9.442389402350000793e+00,-3.845807630569999993e-03,-5.490534938870000013e-03,-4.455600865189999170e-03,1.000000000000000000e+00
3.101367540000000145e-01,-2.640085761490000404e+00,3.896815642299999993e-01,-9.439613507899998979e+00,3.514248877760000299e-03,-5.769286304709999626e-03,-2.219965914260000131e-03,1.000000000000000000e+00
3.149818400000000129e-01,-2.626672445429999669e+00,4.143068138550000112e-01,-9.461409744639999175e+00,-4.763355012979999387e-03,1.292238757010000065e-02,1.653310097749999957e-02,1.000000000000000000e+00
3.200803899999999924e-01,-2.585859373519999949e+00,4.157999019569999510e-01,-9.431248415129999785e+00,-2.474029548469999871e-03,-1.372265070679999817e-02,8.430171757939999150e-03,1.000000000000000000e+00
3.250043739999999848e-01,-2.528936878340000138e+00,3.677699209440000172e-01,-9.465573294060000364e+00,4.758075345310000710e-03,9.765218012030001116e-03,-6.567135453220000578e-03,1.000000000000000000e+00
3.299938849999999868e-01,-2.602850548070000158e+00,3.739766300969999957e-01,-9.455838666510000934e+00,2.609209157530000250e-03,5.979002453389999777e-03,-8.826483041049998021e-03,1.000000000000000000e+00
3.350962180000000012e-01,-2.639363584690000319e+00,4.039380531189999957e-01,-9.432035766120000275e+00,-1.254026591779999929e-02,-3.152433317150000330e-03,4.760251380500000497e-03,1.000000000000000000e+00
3.401000399999999924e-01,-2.626308288290000181e+00,3.835666250129999844e-01,-9.457565344169999833e+00,1.284949202090000103e-02,-9.867531247439999612e-03,1.725843641910000106e-03,1.000000000000000000e+00
3.450729430000000209e-01,-2.589753458350000148e+00,4.074118301770000006e-01,-9.435007475409999955e+00,1.253114081920000088e-02,1.308237388730000041e-02,-1.944827381520000263e-04,1.000000000000000000e+00
3.500966070000000041e-01,-2.600821088070000009e+00,4.074244704630000102e-01,-9.440482691950000671e+00,1.149706169960000059e-02,2.466589910909999708e-03,-5.022007971999999792e-03,1.000000000000000000e+00
3.550348720000000013e-01,-2.576518421459999875e+00,4.129902513639999717e-01,-9.474625784569999709e+00,8.695857599379998304e-03,1.431815139950000024e-02,-1.003989763560000047e-02,1.000000000000000000e+00
3.600679620000000192e-01,-2.634715758890000092e+00,3.952381754429999949e-01,-9.469368594689999696e+00,7.198770064859999485e-03,-2.027502655979999957e-02,8.374337106939999317e-03,1.000000000000000000e+00
3.650180379999999891e-01,-2.545232471840000343e+00,3.845207839329999877e-01,-9.460477432230000261e+00,5.347657017409999242e-03,-5.653053522109999229e-03,-6.101384758949998828e-03,1.000000000000000000e+00
3.700409809999999911e-01,-2.594937875249999859e+00,4.001489265020000130e-01,-9.452636071080000590e+00,1.003076508640000052e-02,-1.090728864070000109e-02,-9.125703945760000463e-03,1.000000000000000000e+00
3.750607950000000024e-01,-2.610878371709999701e+00,4.122985062399999734e-01,-9.419571421339998807e+00,-4.602252040059999841e-03,1.397401792930000027e-03,3.944290801880000262e-04,1.000000000000000000e+00
3.801761330000000272e-01,-2.586245157970000097e+00,3.846480635739999987e-01,-9.451708434840000450e+00,-3.581578843300000335e-03,3.720854176210000152e-03,-4.774092230950000297e-04,1.000000000000000000e+00
3.850811370000000178e-01,-2.601194013040000197e+00,3.870759117759999812e-01,-9.443550847350000055e+00,4.859675187619999330e-03,-6.043668836359999789e-03,9.354822337629999096e-03,1.000000000000000000e+00
3.900595279999999887e-01,-2.587877727609999567e+00,3.594381093959999607e-01,-9.481163077379999748e+00,3.902177792040000155e-03,1.523484103379999996e-02,6.018222775310001250e-03,1.000000000000000000e+00
3.951042289999999735e-01,-2.557396372359999503e+00,4.050848485340000082e-01,-9.424567329929999460e+00,-1.372852246280000009e-03,-2.979025710369999965e-03,-6.915780715640000229e-03,1.000000000000000000e+00
3.999671200000000093e-01,-2.597034847529999801e+00,4.202681334120000334e-01,-9.455769692929999692e+00,2.267453819510000228e-03,-1.079185493289999860e-02,1.661358866839999886e-03,1.000000000000000000e+00
4.050534980000000118e-01,-2.611584766409999592e+00,3.847524372640000467e-01,-9.452028752829999547e+00,5.181155167520000264e-03,3.114752704280000350e-03,-1.541396602990000161e-03,1.000000000000000000e+00
4.100188490000000185e-01,-2.602207866250000112e+00,3.905543650089999819e-01,-9.455402613180000415e+00,-5.329795647409999761e-03,-1.706992392430000229e-03,6.989263463770000601e-03,1.000000000000000000e+00
4.149612710000000204e-01,-2.617995802490000301e+00,3.992967301190000207e-01,-9.425546988620000732e+00,-6.067705806340000473e-03,6.135217845439999360e-03,1.111637568099999940e-03,1.000000000000000000e+00
4.200985749999999741e-01,-2.604205469809999673e+00,4.334614865820000107e-01,-9.449452180339999785e+00,-2.829920034859999961e-03,1.635053893549999861e-03,5.531735252590000429e-03,1.000000000000000000e+00
4.249694569999999949e-01,-2.599449507459999698e+00,4.087318267339999922e-01,-9.422879230719999555e+00,-1.922493055459999906e-02,9.414878673849999893e-03,4.920340608810000287e-03,1.000000000000000000e+00
4.300192050000000155e-01,-2.570920455330000021e+00,3.988415336980000170e-01,-9.461326158010001208e+00,1.060702465470000216e-02,-8.779754862190000675e-03,-4.272053018209999962e-03,1.000000000000000000e+00
4.349965510000000091e-01,-2.609658474520000215e+00,3.750902538950000031e-01,-9.458652554889999564e+00,-8.367379195989999713e-03,9.637604467569999347e-03,4.265286494050000640e-03,1.000000000000000000e+00
4.400844400000000212e-01,-2.581179691270000021e+00,3.463468283609999476e-01,-9.490047225580001466e+00,-1.508888974789999830e-02,-1.045160926879999848e-02,-1.236831396820000165e-02,1.000000000000000000e+00
4.450631349999999986e-01,-2.612420340449999934e+00,4.050390366309999934e-01,-9.438288396769999977e+00,3.935570130119999516e-04,-4.549991805110000127e-03,-7.638547103849999652e-03,1.000000000000000000e+00
4.500706509999999883e-01,-2.622506557919999981e+00,3.489982196529999858e-01,-9.459016712020000384e+00,-6.497307214889999800e-03,5.010731518269999872e-03,-3.746981732550000183e-03,1.000000000000000000e+00
4.548872279999999768e-01,-2.604582194169999809e+00,3.739811966749999605e-01,-9.455803595199999023e+00,9.693781845270000100e-03,6.246654316780000590e-03,-5.733327008780000032e-03,1.000000000000000000e+00
4.599715389999999848e-01,-2.639068401140000297e+00,3.825125493830000001e-01,-9.432010631679998980e+00,-4.197814036159999707e-03,5.665709264579999946e-03,9.967258200049998809e-03,1.000000000000000000e+00
4.649931219999999810e-01,-2.550210844770000040e+00,3.848498332240000153e-01,-9.432343809149999814e+00,7.968434132640001347e-03,-7.118128240110000067e-03,-1.412795484070000079e-02,1.000000000000000000e+00
4.700713249999999843e-01,-2.635975111300000062e+00,3.860861700859999912e-01,-9.430880166339999704e+00,3.293788991869999946e-03,-3.854011651130000247e-03,6.356416270140000145e-04,1.000000000000000000e+00
4.750825340000000008e-01,-2.634775087860000031e+00,3.728296154869999990e-01,-9.456622510360000788e+00,2.882173284889999638e-03,-2.080711536109999989e-03,7.646075915550000837e-03,1.000000000000000000e+00
4.801681649999999801e-01,-2.586107210800000278e+00,3.848382523839999902e-01,-9.436889635889999184e+00,-1.450486108660000058e-02,-1.985440030690000052e-05,-2.100683748719999952e-03,1.000000000000000000e+00
4.850792030000000143e-01,-2.616264740920000165e+00,4.167816064710000434e-01,-9.458467261450000052e+00,-1.129272300749999992e-02,-4.482435528189999442e-03,1.320987474169999952e-03,1.000000000000000000e+00
4.900129529999999733e-01,-2.626328746550000037e+00,4.064162067360000408e-01,-9.421267703869999011e+00,1.331829372789999910e-02,5.761076696220000445e-03,7.402367424220000248e-03,1.000000000000000000e+00
4.950374310000000277e-01,-2.606177354409999758e+00,3.979616455910000017e-01,-9.436675116360000004e+00,6.652184529229999673e-04,-1.855851151050000140e-04,2.506780903789999990e-03,1.000000000000000000e+00
5.001211629999999797e-01,-2.620803261129999839e+00,3.550156533110000456e-01,-9.454065227100000968e+00,4.357079509649999967e-03,-7.380531169470000603e-03,1.639830879869999666e-03,1.000000000000000000e+00
5.049803600000000170e-01,-2.602420047699999905e+00,4.039596804290000454e-01,-9.426299852819999714e+00,-5.042252596469999799e-03,7.560678757729999769e-03,3.829370252789999996e-04,1.000000000000000000e+00
5.100564929999999997e-01,-2.582121356040000038e+00,3.941988589909999896e-01,-9.449273901170000656e+00,-4.432063549760000519e-03,6.146021187309999752e-03,-4.625896457579999933e-03,1.000000000000000000e+00
5.150907510000000133e-01,-2.579305129570000243e+00,3.906871976079999698e-01,-9.438791085600000130e+00,-6.110402755440000290e-04,-3.615333465859999970e-03,-6.204321980479999762e-03,1.000000000000000000e+00
5.199609189999999659e-01,-2.611233176490000307e+00,3.740017280060000116e-01,-9.455648112369999581e+00,-1.658249273900000084e-02,2.315268618989999982e-03,-7.526452653109999558e-03,1.000000000000000000e+00
5.250983470000000208e-01,-2.616579505959999885e+00,4.184248071000000180e-01,-9.410449372729999595e+00,-2.619036706159999766e-03,3.709493903440000233e-03,-9.353132918479998767e-03,1.000000000000000000e+00
5.300554870000000474e-01,-2.629392810300000161e+00,4.050480236550000335e-01,-9.431533661819999637e+00,1.192552852440000033e-03,3.395173000169999893e-03,1.107535138730000000e-02,1.000000000000000000e+00
5.350318870000000393e-01,-2.544133278429999923e+00,3.965510846729999872e-01,-9.448379582679999444e+00,3.363631200050000176e-03,4.200628027320000082e-03,-8.400471881029998589e-03,1.000000000000000000e+00
5.400884820000000364e-01,-2.614345171029999637e+00,3.861261367700000169e-01,-9.425004552309999895e+00,4.694093018770000188e-03,2.712424146010000269e-03,-3.112072125079999758e-03,1.000000000000000000e+00
5.450125660000000316e-01,-2.581304486699999678e+00,3.762116591409999655e-01,-9.460291554269998571e+00,7.104435469959999826e-03,-1.046582870189999986e-02,-1.380729139779999885e-03,1.000000000000000000e+00
5.501563569999999848e-01,-2.585551915009999924e+00,4.265789605270000062e-01,-9.417384140430000272e+00,-1.452709827569999973e-02,2.144693164150000050e-03,-3.109202021730000324e-03,1.000000000000000000e+00
5.549774939999999601e-01,-2.598981013159999964e+00,3.798919550879999996e-01,-9.452778109900000558e+00,-1.471230527389999964e-03,-7.024755701419999922e-03,9.653193410489998780e-04,1.000000000000000000e+00
5.600470319999999447e-01,-2.577780404220000321e+00,3.739294299550000034e-01,-9.450625900300000382e+00,1.534171868119999990e-02,1.334277167920000159e-02,-9.324657730760000773e-04,1.000000000000000000e+00
5.649900169999999555e-01,-2.586853937519999924e+00,4.203734569500000018e-01,-9.443824403589999861e+00,4.383401479569999475e-03,1.520622288809999906e-03,2.185498829929999852e-03,1.000000000000000000e+00
5.700841420000000159e-01,-2.592715815290000059e+00,3.823094645590000007e-01,-9.450271095510000663e+00,-4.137173295019999815e-03,1.229172479360000035e-02,6.497283466159999238e-04,1.000000000000000000e+00
5.750580010000000408e-01,-2.589135326450000107e+00,3.752941424369999890e-01,-9.439271562589999220e+00,6.245610304180001029e-03,2.814799780030000434e-03,-6.414424162360000611e-03,1.000000000000000000e+00
5.799405290000000379e-01,-2.614823602199999986e+00,3.968159826870000240e-01,-9.434106727170000539e+00,2.278287895019999888e-03,1.964038936420000117e-03,-9.957414120439999489e-03,1.000000000000000000e+00
5.849963879999999783e-01,-2.617774853219999809e+00,3.538836170740000120e-01,-9.438018932180000320e+00,4.205802688380000267e-04,-7.554082199930000664e-03,-7.641436532139999314e-04,1.000000000000000000e+00
5.900527570000000388e-01,-2.585289756939999961e+00,3.657179933829999841e-01,-9.441898403959999797e+00,-1.436771824959999933e-03,1.302152499560000135e-02,-4.380449652670000311e-03,1.000000000000000000e+00
5.951072819999999597e-01,-2.632122819790000179e+00,3.896699833900000298e-01,-9.439701770700001049e+00,4.048434086140000575e-03,-3.990790341050000009e-03,-4.660989623520000319e-03,1.000000000000000000e+00
6.001185510000000001e-01,-2.600572666270000166e+00,3.931334217159999644e-01,-9.434951361299999562e+00,7.440241519359999667e-03,-5.469253286719999614e-03,-2.510950434949999811e-04,1.000000000000000000e+00
6.051211680000000426e-01,-2.557816643600000273e+00,3.656858812120000191e-01,-9.442142734109999935e+00,-6.167653016750000196e-03,-2.017837949100000170e-03,-1.360565423970000118e-02,1.000000000000000000e+00
6.101032429999999618e-01,-2.614166307329999661e+00,3.834127861580000074e-01,-9.463192536399999355e+00,-9.748879238030000449e-04,-2.010335028169999913e-02,-7.873570546510000323e-03,1.000000000000000000e+00
6.151579809999999648e-01,-2.599326757859999670e+00,3.642798868720000249e-01,-9.462725503410000627e+00,-2.983240410690000087e-03,2.617275109510000530e-03,5.385701078920000426e-03,1.000000000000000000e+00
6.199763649999999737e-01,-2.561773272269999957e+00,3.775936150179999840e-01,-9.445463402969998867e+00,3.856357652690000064e-03,-3.881045849989999460e-03,-1.195901073520000066e-02,1.000000000000000000e+00
6.250109980000000398e-01,-2.659014333840000077e+00,3.824780260589999981e-01,-9.436731230459999509e+00,1.300541777160000093e-02,-3.528698813170000337e-03,1.300833560529999870e-02,1.000000000000000000e+00
6.299970750000000175e-01,-2.583566294149999720e+00,4.036776486170000067e-01,-9.452960480730000725e+00,-5.116512533279999296e-03,-1.534485490989999888e-03,9.419707581399998711e-03,1.000000000000000000e+00
6.350381410000000004e-01,-2.570403153450000033e+00,4.004181718970000192e-01,-9.422729008590000177e+00,-9.729435667399999668e-03,6.801944691690000504e-04,-7.575634866949999997e-03,1.000000000000000000e+00
6.400481719999999708e-01,-2.580269590689999948e+00,4.037979870610000077e-01,-9.433100765000000720e+00,-2.099636569620000337e-02,3.573086345570000190e-03,-5.496686324479999053e-03,1.000000000000000000e+00
6.450177310000000386e-01,-2.600386788309999808e+00,3.822498798589999969e-01,-9.459639812360000732e+00,-8.636617101730000370e-03,1.342953555290000121e-02,-6.185634061690000081e-03,1.000000000000000000e+00
6.499787630000000149e-01,-2.582724290369999842e+00,3.810422576349999924e-01,-9.459770160739997991e+00,-9.584453888240000372e-03,3.616610774770000029e-03,-1.344983465970000028e-02,1.000000000000000000e+00
6.550441500000000472e-01,-2.645013573279999974e+00,4.119773845269999457e-01,-9.455445867799999959e+00,-2.580717671659999921e-03,3.576306859029999927e-03,1.496682502329999866e-02,1.000000000000000000e+00
6.600592600000000365e-01,-2.583724407320000083e+00,3.883613850090000263e-01,-9.445056575730001569e+00,2.537686843429999822e-03,-6.314287893470001134e-03,3.623405937109999632e-04,1.000000000000000000e+00
6.650059339999999652e-01,-2.636181739790000034e+00,3.861020617750000050e-01,-9.430759170310000883e+00,-1.592322834769999834e-03,-2.552940975869999896e-03,1.311644911770000130e-02,1.000000000000000000e+00
6.699982209999999494e-01,-2.590992644760000019e+00,3.765567827839999548e-01,-9.429806984149999849e+00,-6.766666192560000237e-04,-2.102969214320000221e-03,8.243201300500000231e-03,1.000000000000000000e+00
6.749715720000000196e-01,-2.589745275040000294e+00,3.691482600930000024e-01,-9.465258821280000845e+00,8.576426655050000195e-03,-6.415517069399999557e-03,-2.258139662440000143e-03,1.000000000000000000e+00
6.801212030000000075e-01,-2.599852535300000156e+00,3.538193927319999710e-01,-9.447422135820000122e+00,-1.300381263720000024e-03,9.001135826110000238e-03,-4.656162578609999471e-03,1.000000000000000000e+00
6.850615500000000191e-01,-2.619124514260000147e+00,4.123396785000000286e-01,-9.421487484100000032e+00,-2.375470940019999960e-03,-1.478238310659999930e-02,8.499235846099999908e-04,1.000000000000000000e+00
6.900329050000000297e-01,-2.650841841040000091e+00,3.789262153290000046e-01,-9.438809790300000557e+00,-5.082829389720000708e-03,-9.703038260340000193e-03,1.673891209070000122e-02,1.000000000000000000e+00
6.950765740000000026e-01,-2.563338329630000079e+00,4.063164361559999938e-01,-9.425369293970000228e+00,8.997931145130000710e-04,4.365740343929999830e-03,-1.530181616539999642e-04,1.000000000000000000e+00
7.001087200000000177e-01,-2.587358964429999908e+00,4.013678373049999748e-01,-9.447962234049999353e+00,7.308015134189999561e-03,-9.683917742219999656e-04,-5.480682477360000228e-03,1.000000000000000000e+00
7.050360549999999948e-01,-2.604192025809999755e+00,3.689785660819999702e-01,-9.484379116819999567e+00,5.596169736240000185e-03,-3.600592957809999831e-03,-8.034465834499999667e-03,1.000000000000000000e+00
7.100028550000000438e-01,-2.626706932219999846e+00,4.251615314769999765e-01,-9.449197328800000406e+00,-2.705936785789999841e-03,4.233180545269999741e-03,4.453796893359999141e-03,1.000000000000000000e+00
7.150226299999999924e-01,-2.596631819690000231e+00,3.931517976230000100e-01,-9.439268639979999875e+00,-5.840377416459999194e-03,-3.463231492789999987e-03,-1.081984024490000116e-03,1.000000000000000000e+00
7.199732460000000112e-01,-2.629508253370000048e+00,3.750912768079999737e-01,-9.464216618760000088e+00,6.970529910180000427e-03,-1.073635462670000096e-02,1.057161204520000106e-02,1.000000000000000000e+00
7.250645380000000362e-01,-2.572344642909999646e+00,3.810525963660000293e-01,-9.458577151560000118e+00,-4.657416138800000299e-03,9.365434758370001084e-03,-1.982979476450000278e-03,1.000000000000000000e+00
7.300726400000000504e-01,-2.654284382709999779e+00,4.037017601449999771e-01,-9.456120406060000150e+00,7.596598472449999674e-03,-1.305135618899999801e-02,2.316245809200000172e-02,1.000000000000000000e+00
7.350240609999999508e-01,-2.559051446100000238e+00,4.036585055250000442e-01,-9.452646592469999831e+00,-3.519834950570000214e-03,9.664192795750000883e-03,1.584548037499999926e-03,1.000000000000000000e+00
7.401696330000000490e-01,-2.585772572020000215e+00,3.837605401499999958e-01,-9.415513085860000686e+00,1.158862747249999985e-02,-1.391803286969999984e-02,-6.481533870100000989e-03,1.000000000000000000e+00
7.449404950000000358e-01,-2.611628605549999982e+00,4.168945287929999854e-01,-9.437432656729999536e+00,-2.020089887079999820e-03,1.805699802940000098e-02,-4.171065520499999714e-03,1.000000000000000000e+00
7.500715650000000512e-01,-2.624254570629999783e+00,3.871429125970000107e-01,-9.438467844989999023e+00,3.730326890949999929e-03,4.288192838429999605e-03,5.549313034859999598e-03,1.000000000000000000e+00
7.550004559999999865e-01,-2.555725516540000353e+00,3.967225322500000373e-01,-9.432471819450000794e+00,-6.509009748700000063e-03,4.159701056779999996e-03,-2.141216397290000156e-02,1.000000000000000000e+00
7.600381200000000392e-01,-2.646756909820000114e+00,3.883940817019999603e-01,-9.426863331919999922e+00,-1.493532909079999915e-04,1.737058395519999873e-03,5.298099014910000008e-03,1.000000000000000000e+00
7.650940290000000088e-01,-2.588675015459999784e+00,4.096812364130000272e-01,-9.441306283290000323e+00,-8.438817225400000246e-03,-2.685403451320000304e-03,1.939222216609999896e-03,1.000000000000000000e+00
7.700634050000000341e-01,-2.593601073690000369e+00,3.975809391769999923e-01,-9.470651620239999957e+00,2.251908648760000530e-03,1.116975676270000155e-02,-5.758551880720000175e-03,1.000000000000000000e+00
7.750261510000000520e-01,-2.622983527779999768e+00,4.133544085010000257e-01,-9.431636537670000209e+00,-1.131555810569999897e-02,7.436024025079999988e-03,5.368695128709999841e-03,1.000000000000000000e+00
7.800271079999999690e-01,-2.592788003739999958e+00,3.989832071910000000e-01,-9.440086386109999950e+00,-5.089646670969999800e-03,-2.230349462480000003e-03,4.630789626390000371e-03,1.000000000000000000e+00
7.849867809999999668e-01,-2.587922151269999915e+00,3.884401858659999873e-01,-9.425410210499999053e+00,6.413820665329999409e-04,-1.494161691520000043e-02,-3.534143557770000332e-03,1.000000000000000000e+00
7.900824730000000073e-01,-2.619071615029999744e+00,4.134002569369999991e-01,-9.426830598689999619e+00,-8.384288288649999893e-03,-2.409033477309999866e-02,4.998848773539999596e-03,1.000000000000000000e+00
7.950347110000000050e-01,-2.615695708859999691e+00,3.776885632929999903e-01,-9.432380634030000266e+00,-3.488486167039999732e-03,-6.714129820469999337e-03,9.066162630920001145e-03,1.000000000000000000e+00
8.000008709999999468e-01,-2.540092478600000092e+00,3.823000391430000366e-01,-9.436867424060000786e+00,-1.603635260839999729e-03,-2.895020646969999594e-03,-1.013117749239999914e-02,1.000000000000000000e+00
8.050121919999999598e-01,-2.635740718020000095e+00,3.808287244820000028e-01,-9.476892560459999615e+00,-7.028638850900000012e-03,1.791049726309999898e-04,1.021974347529999889e-02,1.000000000000000000e+00
8.099907979999999563e-01,-2.576125330490000032e+00,3.977206033760000148e-01,-9.445092231569999441e+00,-8.803280070419999825e-03,-5.532768089319999721e-03,5.239212419840000474e-03,1.000000000000000000e+00
8.150643779999999783e-01,-2.557906075450000039e+00,3.908726371779999709e-01,-9.417218720739999327e+00,2.133821137250000149e-03,4.613189958039999941e-03,-1.575728692110000065e-02,1.000000000000000000e+00
8.201055670000000353e-01,-2.661574539720000132e+00,3.846121154779999496e-01,-9.452993213950000140e+00,1.713265478610000170e-02,2.355696866290000243e-03,1.661165058610000050e-02,1.000000000000000000e+00
8.250752689999999445e-01,-2.572866036440000226e+00,3.788778096099999493e-01,-9.427932422450000516e+00,1.382504589859999931e-02,-3.665192518380000226e-03,4.347934387619999813e-03,1.000000000000000000e+00
8.299897290000000094e-01,-2.554592713119999914e+00,3.678944971720000123e-01,-9.443350940860000264e+00,4.123156424610000155e-03,4.069007001820000233e-03,3.397157415750000006e-03,1.000000000000000000e+00
8.350341749999999896e-01,-2.615027308080000168e+00,3.749557042629999559e-01,-9.471830600889999729e+00,2.613832708450000014e-03,-6.037894636390000840e-03,8.875664323569999042e-03,1.000000000000000000e+00
8.401030050000000138e-01,-2.556272044509999564e+00,3.954578095430000273e-01,-9.434164010319999960e+00,-1.725083449859999814e-03,9.628785774110000008e-04,-9.280767291780001732e-03,1.000000000000000000e+00
8.449548119999999995e-01,-2.619626326309999698e+00,3.801164114940000505e-01,-9.419766067130000309e+00,7.013001013550000141e-03,8.153670467439999917e-03,5.369812715800000719e-03,1.000000000000000000e+00
8.499958340000000057e-01,-2.564707572160000115e+00,3.775956973769999947e-01,-9.438658983650000778e+00,-6.255719345060000401e-03,-9.443741291760000128e-03,-1.107889041299999974e-02,1.000000000000000000e+00
8.549573280000000164e-01,-2.605373929070000205e+00,3.822003050960000037e-01,-9.445427162610000593e+00,-5.197500810029999536e-03,-1.122436765579999836e-02,6.656048353759999939e-03,1.000000000000000000e+00
8.600372779999999606e-01,-2.582776020549999885e+00,3.800934690100000179e-01,-9.419940254660000178e+00,1.647239667359999939e-03,2.720377175139999677e-03,5.567158106710000214e-03,1.000000000000000000e+00
8.651376539999999782e-01,-2.556958273209999799e+00,4.024903019960000550e-01,-9.446147293580001048e+00,7.132646162060001134e-03,-3.179305233060000010e-03,-1.219826750459999942e-02,1.000000000000000000e+00
8.700632339999999632e-01,-2.667316005980000071e+00,3.970839129079999918e-01,-9.398533894010000722e+00,1.405635732230000072e-03,-5.274995230140000144e-03,8.024727925660000635e-03,1.000000000000000000e+00
8.750045109999999848e-01,-2.579037418550000016e+00,3.740278488279999980e-01,-9.438631511120000539e+00,-1.463579013939999944e-02,-8.140951395029998733e-03,-1.147130620670000099e-03,1.000000000000000000e+00
8.800781589999999710e-01,-2.562510062120000320e+00,4.121111669740000205e-01,-9.422008293099999321e+00,-8.239377290010001242e-03,-1.379936281590000112e-02,-1.327010453680000247e-03,1.000000000000000000e+00
8.851060020000000028e-01,-2.600702137869999930e+00,3.586726779819999766e-01,-9.437710304619999491e+00,-1.510133687410000064e-02,-7.329159416259999364e-05,-1.360915787519999948e-02,1.000000000000000000e+00
8.899632509999999552e-01,-2.613594937190000245e+00,4.181367108739999505e-01,-9.429252272879999452e+00,-3.029255196449999726e-03,-3.714682534339999839e-04,-7.836008444429999956e-03,1.000000000000000000e+00
8.949564570000000385e-01,-2.608207398929999865e+00,4.169073517419999986e-01,-9.437347901049999876e+00,-4.557530395689999604e-03,-4.056562203909999664e-03,-9.101650677620001101e-03,1.000000000000000000e+00
9.001064970000000054e-01,-2.656409412040000362e+00,3.657774319529999985e-01,-9.441343692689999401e+00,-8.730284171180000561e-04,-1.774564012890000181e-02,7.073451299220000037e-03,1.000000000000000000e+00
9.051065590000000327e-01,-2.608419872640000303e+00,3.786978134000000273e-01,-9.457160855030000590e+00,6.930369418110000207e-03,3.505066270010000293e-03,2.524022478610000054e-03,1.000000000000000000e+00
9.100587239999999856e-01,-2.598582076970000099e+00,3.927686069919999468e-01,-9.475511919749999734e+00,2.507569734010000207e-03,-6.129232235250000119e-03,-8.516319794580001030e-04,1.000000000000000000e+00
9.151023459999999554e-01,-2.605279821049999889e+00,3.774592480489999957e-01,-9.451955103080001308e+00,3.750909585510000480e-03,6.586217787119999067e-04,6.416117306800000163e-03,1.000000000000000000e+00
9.200849760000000543e-01,-2.615608907359999513e+00,3.500450252920000449e-01,-9.471150801930001251e+00,-4.999032826160000479e-04,9.411121718589999293e-04,3.445960581300000405e-03,1.000000000000000000e+00
9.249763640000000509e-01,-2.612545135870000035e+00,3.347769482069999913e-01,-9.447280097000000154e+00,1.104443334039999919e-02,-3.801418934020000216e-03,6.516242865469999484e-04,1.000000000000000000e+00
9.299268539999999694e-01,-2.591497087150000045e+00,4.252517670440000286e-01,-9.427235672360000152e+00,5.525829736139999983e-03,-1.095581706610000011e-02,7.096375338730001115e-04,1.000000000000000000e+00
9.350623110000000349e-01,-2.593001938750000068e+00,3.820867982519999817e-01,-9.463005489400000414e+00,-7.705503143370000599e-03,1.038334984329999933e-02,6.620374042540000219e-03,1.000000000000000000e+00
9.400456350000000461e-01,-2.579838505800000181e+00,3.633035891849999977e-01,-9.436478132479999559e+00,4.266063682729999765e-03,1.484352862460000099e-03,3.261882811780000228e-03,1.000000000000000000e+00
9.449867299999999970e-01,-2.620224292200000082e+00,3.694174324229999584e-01,-9.428564290619998900e+00,-5.798050668089999894e-03,-1.322650257500000009e-02,6.525707896800000095e-03,1.000000000000000000e+00
9.500315010000000004e-01,-2.631272632700000003e+00,3.728683400619999810e-01,-9.445082294700000602e+00,-1.034502172839999986e-03,-6.827480159699999239e-03,1.176742278039999944e-02,1.000000000000000000e+00
9.550128639999999614e-01,-2.557861944049999892e+00,3.799066046679999697e-01,-9.446991927710000070e+00,9.453841485079999760e-03,-5.907311104239999604e-03,-8.774735964829999402e-03,1.000000000000000000e+00
9.599543489999999846e-01,-2.624855751390000158e+00,4.038504479009999981e-01,-9.430371047779999572e+00,-2.777453139420000064e-02,-2.720296150070000349e-03,3.230667673050000282e-03,1.000000000000000000e+00
9.649370729999999785e-01,-2.630248842609999915e+00,3.703705684290000133e-01,-9.454885311310000873e+00,-2.306289039549999989e-02,-8.704391308129999505e-03,1.279715821149999926e-02,1.000000000000000000e+00
9.700819960000000020e-01,-2.587835057509999981e+00,4.038997304029999791e-01,-9.431109883450000453e+00,8.512068307030000620e-04,1.697550294920000024e-03,-2.003896748649999868e-03,1.000000000000000000e+00
9.750579470000000359e-01,-2.585989137379999914e+00,4.084069421609999861e-01,-9.457563006090000002e+00,1.240101060829999855e-03,-1.556470990180000048e-02,-1.469498500229999942e-02,1.000000000000000000e+00
9.799606189999999772e-01,-2.624947229069999999e+00,3.857235107859999790e-01,-9.466967378770000607e+00,-2.312614209950000083e-02,1.344847260039999876e-03,-7.114444393659999713e-03,1.000000000000000000e+00
9.850344819999999890e-01,-2.635124047430000171e+00,3.797966049550000056e-01,-9.479031326050000317e+00,-3.303008619699999721e-03,-8.134553208950000627e-03,-1.210149563849999971e-02,1.000000000000000000e+00
9.900940430000000347e-01,-2.657541046419999997e+00,4.194246317930000467e-01,-9.426282901680000492e+00,5.507279653099999769e-03,-1.199208572510000043e-02,5.722200032319999310e-03,1.000000000000000000e+00
9.951233240000000313e-01,-2.597407187970000031e+00,4.061086751560000208e-01,-9.450248299160000087e+00,3.044714685529999968e-03,2.886328147719999498e-03,-3.597007133070000053e-03,1.000000000000000000e+00
1.000002362000000034e+00,-2.627202022259999659e+00,3.846098504559999909e-01,-9.459696510980000639e+00,2.910734619949999647e-03,-1.001812145110000073e-02,3.304608166219999681e-03,1.000000000000000000e+00
1.005008646000000061e+00,-2.613304137550000128e+00,4.007577060499999400e-01,-9.519361582869999339e+00,1.196316443379999775e-02,4.799672402440000214e-03,1.339368522170000016e-03,1.000000000000000000e+00
1.009954964999999927e+00,-2.595052441540000032e+00,3.990015830979999900e-01,-9.431031557509999885e+00,4.238527035340000529e-04,-2.185270423070000047e-03,1.031002216039999912e-02,1.000000000000000000e+00
1.015111293999999997e+00,-2.594946935339999872e+00,3.859115441719999651e-01,-9.447706797980000459e+00,5.925326840950000465e-04,1.068205339830000100e-03,-4.263147711750000092e-04,1.000000000000000000e+00
1.020033162999999909e+00,-2.605384158200000133e+00,4.013939215940000027e-01,-9.439860176130000724e+00,1.370743731970000025e-03,-2.874112455170000496e-03,1.007462153210000010e-03,1.000000000000000000e+00
1.025007076000000072e+00,-2.633138718829999725e+00,3.862279166439999689e-01,-9.414098542889998811e+00,4.042377229780000358e-03,-9.134637657550000915e-04,6.133541930469999827e-03,1.000000000000000000e+00
1.030091289000000021e+00,-2.621457048859999972e+00,3.786175512380000052e-01,-9.464457441769999591e+00,-6.427521817390000579e-03,-5.739875137810000576e-03,1.066073775290000102e-02,1.000000000000000000e+00
1.035102324999999990e+00,-2.613272573370000185e+00,3.849342966370000174e-01,-9.431598543750000729e+00,1.442701276390000002e-02,-4.197319038209999971e-03,-1.088607357810000061e-03,1.000000000000000000e+00
1.040093788000000075e+00,-2.578561909990000345e+00,3.728568322869999507e-01,-9.429568499220000177e+00,1.440765801820000254e-02,-1.004326739349999890e-03,-1.959578832609999623e-03,1.000000000000000000e+00
1.044951189999999919e+00,-2.586486565510000002e+00,3.908646000020000177e-01,-9.416165412289998926e+00,-7.300747092810000796e-03,-8.355623576789997882e-04,-5.943519063290000383e-03,1.000000000000000000e+00
1.049989156999999951e+00,-2.626431622410000166e+00,3.835559209559999960e-01,-9.451972054209999641e+00,-1.408604998140000099e-02,4.801503382620000288e-03,-9.193414822219999130e-03,1.000000000000000000e+00
1.055096585999999892e+00,-2.648179636100000067e+00,3.741699972449999967e-01,-9.433092581700000423e+00,-3.479859791699999906e-03,-1.769043970850000093e-03,3.474933560939999673e-03,1.000000000000000000e+00
1.060110498000000012e+00,-2.604332603320000050e+00,3.785751368689999619e-01,-9.461436632649999012e+00,3.352125640959999989e-03,-1.525990664959999896e-02,9.035931900139999515e-03,1.000000000000000000e+00
1.065218838999999917e+00,-2.575858788509999719e+00,3.774684177359999837e-01,-9.456341939860001489e+00,-3.556773066520000064e-03,5.303603596990000453e-03,-5.413901526479998963e-03,1.000000000000000000e+00
1.070063642999999898e+00,-2.629928816870000130e+00,3.526975490950000069e-01,-9.438997421819999900e+00,-6.245897151529999740e-03,1.292272843420000025e-02,-4.050822462890000131e-04,1.000000000000000000e+00
1.075009292999999921e+00,-2.637376210270000243e+00,3.860360838669999461e-01,-9.438304763390000574e+00,-8.888675831260000465e-03,2.403537509960000304e-03,1.294672302900000058e-02,1.000000000000000000e+00
1.080045895999999894e+00,-2.551654613840000252e+00,4.168541967830000083e-01,-9.432640746269999710e+00,-1.312199793760000094e-02,4.589314572510000065e-03,4.814894404260000593e-03,1.000000000000000000e+00
1.085105325000000009e+00,-2.582636904340000150e+00,3.776042094770000190e-01,-9.443166816459999779e+00,-8.788616396489999649e-03,1.093561295420000107e-02,-6.687447894359999480e-04,1.000000000000000000e+00
1.090013209999999955e+00,-2.653783739709999701e+00,3.922791795069999754e-01,-9.417919562479999840e+00,-5.095709115270000492e-03,3.694338956849999977e-03,4.046676214780000128e-03,1.000000000000000000e+00
1.095083709999999932e+00,-2.574060506919999991e+00,4.048236037819999966e-01,-9.454427046150000180e+00,-6.544518750160000127e-03,9.746083058420000611e-03,-1.109892036770000068e-04,1.000000000000000000e+00
1.100111357000000067e+00,-2.580211430759999924e+00,4.030136682830000039e-01,-9.396593865860001671e+00,-1.454824209210000066e-02,2.688023261729999974e-02,-1.082442700860000023e-02,1.000000000000000000e+00
1.104951739000000099e+00,-2.609759889070000227e+00,3.885262932469999986e-01,-9.421534245850001099e+00,1.173536758870000023e-02,-1.233120355759999981e-02,-6.629683077340000653e-03,1.000000000000000000e+00
1.109924957999999906e+00,-2.611565769449999852e+00,3.656467182450000020e-01,-9.449145306349999274e+00,1.173625886440000064e-02,-2.067235764120000079e-03,4.359531681979999206e-03,1.000000000000000000e+00
1.115059103000000107e+00,-2.610538764490000219e+00,3.760179997320000078e-01,-9.498539159599999948e+00,-5.468566669149999742e-04,9.933458641169999950e-03,1.420360058549999987e-03,1.000000000000000000e+00
1.120043157000000011e+00,-2.593409058249999788e+00,3.904980317119999822e-01,-9.463631512339999219e+00,-6.164310965689999422e-03,3.722547786310000280e-03,3.336070105430000241e-03,1.000000000000000000e+00
1.125060425999999891e+00,-2.557303433379999991e+00,4.558249652880000391e-01,-9.470341239119999699e+00,-1.331686973570000120e-02,1.023114565760000101e-02,-8.358469232919999575e-03,1.000000000000000000e+00
1.130016126999999981e+00,-2.646293091700000044e+00,4.121539832029999517e-01,-9.451873270010000994e+00,-1.465110573920000219e-03,1.805271953340000304e-02,-2.423627302049999964e-05,1.000000000000000000e+00
1.134930474999999994e+00,-2.591135560359999701e+00,4.059025946580000488e-01,-9.474206097849998898e+00,3.626183606679999911e-03,4.622074775399999738e-03,-4.035891033709999853e-03,1.000000000000000000e+00
1.140006059000000072e+00,-2.601077400919999949e+00,3.990901381639999634e-01,-9.433803944839999289e+00,6.870417390020000861e-03,-4.202060401440000682e-03,6.820901762690000439e-04,1.000000000000000000e+00
1.145051510999999911e+00,-2.571769473370000281e+00,3.882100303719999701e-01,-9.455123211720000143e+00,-3.243522252889999725e-03,1.570899412039999943e-02,-1.088050752879999791e-02,1.000000000000000000e+00
1.150047907999999897e+00,-2.602075472050000116e+00,3.816888119099999810e-01,-9.387990288169998365e+00,-6.554476451130000596e-03,5.841536447410000145e-03,-1.183206960559999958e-02,1.000000000000000000e+00
1.155059304999999981e+00,-2.613948280669999846e+00,3.515841444929999615e-01,-9.436284655730000637e+00,-1.481002103540000024e-02,5.047456361350000564e-04,-1.375652663409999976e-02,1.000000000000000000e+00
1.159998757000000102e+00,-2.623795720950000021e+00,3.898189634059999742e-01,-9.409595386250000359e+00,-9.283644147219998963e-03,9.273970499629998268e-03,-2.377566415820000188e-03,1.000000000000000000e+00
1.164948273999999895e+00,-2.611491535170000322e+00,3.941140667840000167e-01,-9.461063123160000643e+00,-1.283521577720000105e-02,-6.792061030859999730e-03,5.131165962670000170e-03,1.000000000000000000e+00
1.170022684000000091e+00,-2.595875740619999927e+00,4.034736139450000314e-01,-9.479028403439999195e+00,-1.909495703880000061e-02,1.186089823020000005e-03,4.729181528089999517e-03,1.000000000000000000e+00
1.175035859999999932e+00,-2.589564657780000001e+00,4.084680612309999903e-01,-9.456087088310001221e+00,-1.664556004110000209e-02,3.354411339389999462e-03,-4.307856783270000607e-03,1.000000000000000000e+00
1.180114888999999945e+00,-2.590135443409999905e+00,4.086296450010000192e-01,-9.435914068860000725e+00,2.255315426739999598e-03,9.633372537790001189e-03,-1.119226776060000018e-02,1.000000000000000000e+00
1.185080847999999909e+00,-2.624904266709999767e+00,4.289048096580000413e-01,-9.433404131860001485e+00,5.691799800840000208e-03,7.378085516390000577e-03,-5.059910006819999355e-03,1.000000000000000000e+00
1.190049198000000086e+00,-2.625706523000000292e+00,3.942722164879999824e-01,-9.439801139419998322e+00,-4.731445573269999968e-03,-1.577894948419999999e-02,1.338981464510000108e-02,1.000000000000000000e+00
1.194929858000000067e+00,-2.549075118740000256e+00,4.013919122999999867e-01,-9.442207031519998850e+00,6.810993421819999498e-03,7.174763828520000671e-03,-7.787740323689998877e-03,1.000000000000000000e+00
1.200069330000000045e+00,-2.585418059499999810e+00,3.870585953149999758e-01,-9.444797048010000751e+00,-8.182746358219999960e-03,-5.178327672179999959e-03,-5.067688412960000277e-03,1.000000000000000000e+00
1.205048692999999949e+00,-2.590017369979999984e+00,3.632854690070000392e-01,-9.441175350389999110e+00,-1.349351927639999907e-02,3.242810489609999729e-03,2.246709074829999781e-03,1.000000000000000000e+00
1.210040240000000100e+00,-2.561194887859999714e+00,3.955360624109999779e-01,-9.429214278959999973e+00,1.999443629759999736e-04,3.409518627449999780e-03,-9.731566533450001708e-03,1.000000000000000000e+00
1.214964262000000073e+00,-2.646066881729999931e+00,4.086078715609999801e-01,-9.439422369239999000e+00,8.181388489900000283e-03,6.202287040650001065e-04,1.067558489739999818e-02,1.000000000000000000e+00
1.220071746999999984e+00,-2.554493052140000220e+00,3.905118045090000267e-01,-9.459069318990000141e+00,6.359763210639999957e-05,5.353464744989999864e-03,-3.583228914070000180e-03,1.000000000000000000e+00
1.225106897000000084e+00,-2.607497789359999985e+00,4.290102427939999630e-01,-9.414771912109999974e+00,-3.687608987090000220e-03,-8.467640727760000069e-03,1.631647814069999954e-03,1.000000000000000000e+00
1.229994111999999973e+00,-2.581079153509999724e+00,4.081962950850000493e-01,-9.472641332749999421e+00,4.052778705949999782e-03,4.823287017640000458e-03,6.545096170160000053e-03,1.000000000000000000e+00
1.235039916000000071e+00,-2.547075469359999733e+00,3.199576743360000308e-01,-9.498243391519999079e+00,1.922312006350000019e-02,9.889692999420000158e-03,-6.029421463610000302e-03,1.000000000000000000e+00
1.240082208000000019e+00,-2.556617204690000200e+00,3.593083455369999735e-01,-9.485493215539998246e+00,1.920468523170000205e-03,4.053846001629999793e-03,-1.217850670219999994e-02,1.000000000000000000e+00
1.245076915999999922e+00,-2.640629366849999826e+00,3.382520769719999931e-01,-9.458143436320000319e+00,-6.937601137910000314e-04,-6.840977817770000843e-03,7.900746539240000033e-03,1.000000000000000000e+00
1.249954318999999980e+00,-2.562935301790000064e+00,3.217912464389999783e-01,-9.424261040459999350e+00,1.912610232829999729e-02,-2.092823758719999927e-02,2.919666003439999602e-03,1.000000000000000000e+00
1.255028722000000041e+00,-2.583239546409999754e+00,2.668273562429999690e-01,-9.456996019850000934e+00,1.006933860479999887e-02,-5.623730830850000306e-03,3.522328101099999817e-03,1.000000000000000000e+00
1.260108744000000058e+00,-2.593647835440000105e+00,4.485895706740000155e-01,-9.492218139880000294e+00,1.929236575959999977e-02,-9.369621053339998937e-03,-2.543734619389999979e-03,1.000000000000000000e+00
1.265111139999999912e+00,-2.731297772030000015e+00,3.504878371560000150e-01,-9.456741752830000181e+00,3.860544878990000185e-03,-9.775402955709999731e-03,1.689419336620000267e-02,1.000000000000000000e+00
1.270092551000000070e+00,-2.607799987169999945e+00,3.234815010800000112e-01,-9.379227136000000797e+00,-1.113196648659999996e-02,-1.189214829360000017e-02,1.900751702490000028e-02,1.000000000000000000e+00
1.275012108999999949e+00,-2.563140468970000363e+00,4.073784028310000194e-01,-9.434147059179998962e+00,2.672953158619999908e-02,-3.301236405970000426e-02,9.332409128549998614e-03,1.000000000000000000e+00
1.280040006999999980e+00,-2.635031108449999770e+00,3.683797599379999843e-01,-9.427504552430001183e+00,1.034589204940000035e-02,-1.169670000669999904e-02,8.547103032469999251e-03,1.000000000000000000e+00
1.284938528000000080e+00,-2.605691032200000201e+00,4.407609594080000304e-01,-9.424859590880000582e+00,1.229598745700000162e-02,-2.135521359740000236e-02,2.085681259630000131e-02,1.000000000000000000e+00
1.290048568000000007e+00,-2.632572901640000129e+00,4.371748445489999635e-01,-9.451716033620000346e+00,1.157306227829999964e-02,-2.636833302679999699e-02,1.630241237580000099e-02,1.000000000000000000e+00
1.294937511999999957e+00,-2.631729144290000377e+00,4.360096366949999802e-01,-9.450409627200000884e+00,1.873024157249999957e-03,-1.439621578900000115e-02,9.478030726310000126e-03,1.000000000000000000e+00
1.300069946000000032e+00,-2.572645087159999733e+00,4.296367041300000467e-01,-9.480352930039998682e+00,1.195888500660000076e-02,-9.844227693970000054e-03,-3.775342367589999779e-03,1.000000000000000000e+00
1.305055692000000045e+00,-2.611636204340000322e+00,4.538075610510000080e-01,-9.437488186310000415e+00,7.170974742619999447e-03,-1.501784846189999946e-02,1.281032338739999899e-03,1.000000000000000000e+00
1.310085050999999945e+00,-2.625800046509999763e+00,3.990191552869999936e-01,-9.463317039570000588e+00,-3.484962508079999816e-03,-6.416457239540000225e-03,-7.669919636100000666e-03,1.000000000000000000e+00
1.315109671000000091e+00,-2.623206230620000134e+00,3.539925208090000108e-01,-9.429389050999999355e+00,3.408899065110000248e-03,-5.424837581810000413e-03,-5.749189294869999547e-04,1.000000000000000000e+00
1.320042122000000040e+00,-2.609537186229999861e+00,3.244392401969999895e-01,-9.409971818349999850e+00,1.452319789679999869e-02,-1.465540193020000055e-02,-2.495330525559999631e-03,1.000000000000000000e+00
1.325074990999999924e+00,-2.580408706900000126e+00,2.860771781740000241e-01,-9.432057393430000047e+00,1.150334067640000103e-02,-1.847600564359999989e-02,-3.752122633159999786e-03,1.000000000000000000e+00
1.330111784999999935e+00,-2.640910521879999973e+00,3.718421022869999870e-01,-9.432791552919999489e+00,5.382356699560000672e-03,-1.649827882650000202e-02,7.022236939520000269e-03,1.000000000000000000e+00
1.335060257999999944e+00,-2.625071439970000142e+00,4.099852243289999754e-01,-9.429085684139998591e+00,1.447926089170000104e-02,-3.987649828199999608e-02,2.722841687500000222e-03,1.000000000000000000e+00
1.340179602999999942e+00,-2.597534613750000165e+00,4.458632144499999894e-01,-9.403326973510001352e+00,8.188794367020000436e-03,-4.642870742829999231e-03,-1.162841916079999927e-02,1.000000000000000000e+00
1.345053277000000103e+00,-2.655658593670000123e+00,4.457783857109999803e-01,-9.415115610980000938e+00,3.578473348170000193e-03,-2.779193781319999959e-02,1.200011465700000224e-03,1.000000000000000000e+00
1.349935112999999909e+00,-2.569932321070000025e+00,4.298900213030000250e-01,-9.450566863589999755e+00,1.187024824320000171e-02,-1.255033817139999952e-02,-1.278161630029999926e-02,1.000000000000000000e+00
1.355071860000000017e+00,-2.675236569850000024e+00,3.825033066309999619e-01,-9.443225268650000004e+00,-1.541021931920000081e-02,-4.228593315930000043e-04,8.856344968080000213e-03,1.000000000000000000e+00
1.359996844000000094e+00,-2.593646666399999745e+00,3.871422915429999501e-01,-9.443045820429999182e+00,7.435717154289999721e-03,-2.094222605229999895e-02,6.015348713850001035e-03,1.000000000000000000e+00
1.365057956000000017e+00,-2.546810973199999939e+00,3.621145985959999813e-01,-9.436569902420000489e+00,3.088206518439999722e-03,-3.575687482949999746e-02,-5.647312849760000031e-03,1.000000000000000000e+00
1.370012255000000012e+00,-2.567846162449999969e+00,3.869633913120000268e-01,-9.444406587390000496e+00,7.039093878120000064e-03,-1.821664348240000300e-02,2.144881989809999980e-03,1.000000000000000000e+00
1.375057575999999893e+00,-2.605975109829999692e+00,4.405580572469999789e-01,-9.454261626450000122e+00,1.206612773239999943e-02,-3.728374838830000176e-02,7.236463483420000481e-03,1.000000000000000000e+00
1.379979770999999911e+00,-2.611106042979999931e+00,4.301044677720000098e-01,-9.432220475039999386e+00,1.102125085889999953e-02,-2.126858197150000018e-02,6.345355417580000532e-03,1.000000000000000000e+00
1.384983317000000103e+00,-2.640164671940000041e+00,4.053576741260000449e-01,-9.422492277230000823e+00,1.128415949639999943e-02,-2.217450737950000042e-02,-6.616010796279999913e-04,1.000000000000000000e+00
1.389973705000000059e+00,-2.641596458309999562e+00,3.847018761209999860e-01,-9.463556693539999287e+00,2.912442665550000424e-03,-2.934020385150000118e-02,4.426862578840000395e-03,1.000000000000000000e+00
1.395002421999999909e+00,-2.621659293440000038e+00,3.970257529799999796e-01,-9.411337846000000340e+00,-1.441951957530000078e-03,-1.988544315099999987e-02,2.573930192740000057e-03,1.000000000000000000e+00
1.400042454000000047e+00,-2.620487327050000204e+00,3.708924734119999900e-01,-9.412015891399999390e+00,2.353715244679999933e-03,-3.056745417420000249e-02,-5.581170786170000508e-03,1.000000000000000000e+00
1.405015311999999961e+00,-2.692691854780000060e+00,3.996152945489999664e-01,-9.396379346330000715e+00,-1.074030715970000077e-02,-1.902634091679999973e-02,1.723646372559999723e-02,1.000000000000000000e+00
1.410028682000000089e+00,-2.582281222770000273e+00,3.732686644910000462e-01,-9.405364616810000911e+00,-4.541460890319999784e-03,-2.316124178470000197e-02,-1.829779474059999933e-03,1.000000000000000000e+00
1.415015386000000097e+00,-2.609711373750000174e+00,3.756633776079999487e-01,-9.411948086860000728e+00,-2.357736788690000321e-02,-2.765109017490000043e-02,-1.726638153200000039e-02,1.000000000000000000e+00
1.420061865999999950e+00,-2.680812908670000105e+00,3.696251934220000090e-01,-9.421514372100000756e+00,-1.970524899660000117e-03,-9.881406091149999571e-03,4.699189681560000595e-03,1.000000000000000000e+00
1.424967856000000088e+00,-2.619247263859999730e+00,3.697982849669999572e-01,-9.394566743949999577e+00,-2.448491752150000131e-02,-5.500153638419999838e-03,3.855177666989999686e-03,1.000000000000000000e+00
1.429984386000000107e+00,-2.648175252180000161e+00,3.365304773439999897e-01,-9.407439669520000436e+00,-2.438612282279999793e-02,-1.474815234539999902e-02,-3.271533176299999852e-03,1.000000000000000000e+00
1.434980096000000094e+00,-2.635988555299999980e+00,3.426408134499999703e-01,-9.389522904560001493e+00,-3.758435323829999869e-02,-1.917405240240000266e-02,-1.775303483010000002e-02,1.000000000000000000e+00
1.440113396999999962e+00,-2.689929696590000585e+00,3.521149999669999642e-01,-9.397701534839999482e+00,-2.856933139259999754e-02,-2.473378367719999971e-02,-8.936006575820000866e-03,1.000000000000000000e+00
1.445035556999999971e+00,-2.614749952439999969e+00,3.769511523960000221e-01,-9.391148459940000137e+00,-5.921629723160000067e-03,7.427132222799999505e-04,-1.017955318089999901e-02,1.000000000000000000e+00
1.450079753000000027e+00,-2.664173616299999825e+00,3.756713782509999988e-01,-9.408543831370000277e+00,-3.056499548259999921e-02,-9.959743358190000298e-03,5.201759282500000199e-03,1.000000000000000000e+00
1.455028629999999934e+00,-2.686921454679999766e+00,4.363972112399999714e-01,-9.427402845619999638e+00,-4.574206471440000338e-02,3.020135452969999797e-03,-2.908508758989999726e-04,1.000000000000000000e+00
1.460026500999999977e+00,-2.569015498490000216e+00,4.233722003750000074e-01,-9.371149043480000884e+00,-3.886308148499999920e-02,-1.052020117640000037e-03,-4.921219311649999324e-03,1.000000000000000000e+00
1.464938180999999950e+00,-2.683692263499999786e+00,3.985601960059999560e-01,-9.398692299439998621e+00,-3.077915683390000309e-02,-1.062109600750000063e-02,-8.668089285490000045e-03,1.000000000000000000e+00
1.470007124000000109e+00,-2.658312323050000092e+00,4.198583470350000235e-01,-9.398570718889999398e+00,-4.463396593930000350e-02,5.051937885580000225e-03,-9.321363642810000585e-03,1.000000000000000000e+00
1.475083850999999946e+00,-2.616921451260000087e+00,3.921172669439999536e-01,-9.430281615930001138e+00,-4.389974847439999384e-02,8.712125010790000221e-03,-1.549003645779999973e-02,1.000000000000000000e+00
1.479991381000000050e+00,-2.664138544990000135e+00,4.626095473940000091e-01,-9.402722577869999654e+00,-4.924062266950000183e-02,-1.126915682109999811e-03,-8.555646054450000149e-03,1.000000000000000000e+00
1.485065725999999975e+00,-2.642251999610000013e+00,4.558178048950000116e-01,-9.368848365319999871e+00,-3.909603506330000533e-02,1.099854055789999813e-02,-2.010891772809999742e-02,1.000000000000000000e+00
1.490057165999999933e+00,-2.667465935850000136e+00,4.386518948320000111e-01,-9.419448087219999266e+00,-3.925617039200000186e-02,-9.859913028780000616e-03,-8.036687038839999617e-03,1.000000000000000000e+00
1.494976585000000080e+00,-2.619651753009999862e+00,3.864082051150000141e-01,-9.407258467739998409e+00,-2.877703122789999901e-02,6.389727815989999955e-03,-1.831661909820000295e-02,1.000000000000000000e+00
1.500096383000000033e+00,-2.655058289689999906e+00,3.218612794669999944e-01,-9.440444113499999901e+00,-5.439152196050000415e-02,4.874367266890000661e-03,-6.244011223319999478e-03,1.000000000000000000e+00
1.504964208999999942e+00,-2.600379481780000113e+00,3.271434211220000110e-01,-9.376310956290000220e+00,-4.142658412459999939e-02,3.731980687010000297e-03,-1.764369942250000253e-02,1.000000000000000000e+00
1.509992497999999905e+00,-2.594490131480000183e+00,3.594666048380000256e-01,-9.477602754550000341e+00,-3.411652892829999950e-02,8.549185469750000127e-03,-1.728237979109999850e-02,1.000000000000000000e+00
1.515030096000000048e+00,-2.553352357670000128e+00,3.756545001820000285e-01,-9.515790738650000691e+00,-3.102168999609999922e-02,1.735615171490000053e-02,-1.890442334119999887e-02,1.000000000000000000e+00
1.519999558000000084e+00,-2.618711841810000163e+00,3.762025625190000278e-01,-9.469275655710001516e+00,-4.654086381199999678e-02,3.283080877739999459e-03,-7.875096052890001239e-03,1.000000000000000000e+00
1.524974446999999955e+00,-2.581998898700000211e+00,2.782382829760000065e-01,-9.388179088739999401e+00,-3.338687121870000107e-02,4.881338216359999184e-03,-2.357398904859999561e-02,1.000000000000000000e+00
1.529970154999999998e+00,-2.590832485759999582e+00,2.884981947760000276e-01,-9.435096907260000165e+00,-3.251869603989999968e-02,-1.334991119799999910e-02,-2.925586700440000257e-02,1.000000000000000000e+00
1.534955633000000041e+00,-2.648467513129999951e+00,3.302973551080000125e-01,-9.416260689360001379e+00,-4.429316893219999857e-02,-1.995363458990000172e-02,-6.402066908779999697e-03,1.000000000000000000e+00
1.540092728999999938e+00,-2.709168065540000114e+00,3.652132587320000012e-01,-9.404365668900000585e+00,-5.211265757680001026e-02,-1.542786043139999889e-02,1.950166653839999860e-03,1.000000000000000000e+00
1.544999234999999915e+00,-2.599184719040000147e+00,4.272279259549999764e-01,-9.365644600839999612e+00,-6.672435998919999667e-02,-1.176356431099999898e-02,-2.141595631840000069e-02,1.000000000000000000e+00
1.550047364000000094e+00,-2.639929109620000158e+00,4.996389725729999953e-01,-9.382831882489998776e+00,-7.900388538840000252e-02,7.586986757810000939e-03,-2.466285787520000258e-02,1.000000000000000000e+00
1.554985279999999914e+00,-2.706023045519999837e+00,5.700051424259999777e-01,-9.376289328980000448e+00,-6.382269412280000553e-02,-1.048974506560000110e-02,-1.313985139130000035e-02,1.000000000000000000e+00
1.560040190000000049e+00,-2.649735633370000176e+00,7.001048828270000079e-01,-9.315779622959999173e+00,-8.737221360210001286e-02,4.760985262689999657e-03,-2.001369744540000203e-02,1.000000000000000000e+00
1.565027465000000007e+00,-2.610223122670000340e+00,5.938704770620000239e-01,-9.202999046950001372e+00,-5.722957104439999748e-02,-1.096535706890000138e-03,-2.395302988590000334e-02,1.000000000000000000e+00
1.570066643999999956e+00,-2.477816347430000121e+00,4.129940507559999863e-01,-9.288358532069999285e+00,-6.038409098980000028e-02,1.200089231130000052e-02,-1.953807473179999810e-02,1.000000000000000000e+00
1.574975503999999971e+00,-2.383599455990000227e+00,3.461835640910000400e-01,-9.424426460160001184e+00,-5.015904828909999863e-02,1.467610336840000085e-02,-3.278651088480000197e-02,1.000000000000000000e+00
1.580008440000000070e+00,-2.445188481679999803e+00,3.736151398409999769e-01,-9.424043013800000423e+00,-6.411908566950000332e-02,2.420286880809999815e-03,-2.477865852419999793e-02,1.000000000000000000e+00
1.585004166000000048e+00,-2.508683487120000333e+00,4.488760594650000324e-01,-9.429863098250001130e+00,-5.689722672099999795e-02,-2.163092046980000238e-02,-3.806788474319999782e-02,1.000000000000000000e+00
1.590034584000000084e+00,-2.630511292940000079e+00,3.879138239050000103e-01,-9.355828724749999381e+00,-6.413518637420000112e-02,-2.305080555379999951e-02,-2.441430650650000186e-02,1.000000000000000000e+00
1.595011667999999938e+00,-2.658624457740000224e+00,3.776505328369999526e-01,-9.330110346130000565e+00,-7.822774350639999374e-02,-2.742880955340000482e-02,-2.758246660230000147e-02,1.000000000000000000e+00
1.599959036000000001e+00,-2.691988382679999958e+00,3.891685732060000125e-01,-9.380970764789999805e+00,-7.839826494460000461e-02,-2.183600328859999773e-02,-2.287190407509999759e-02,1.000000000000000000e+00
1.605028807999999918e+00,-2.751986047530000423e+00,4.510481428079999855e-01,-9.403452645710000724e+00,-6.680664420130000281e-02,1.125158509240000012e-03,-1.943703740840000208e-02,1.000000000000000000e+00
1.610031570999999939e+00,-2.660119664740000278e+00,4.568121862269999833e-01,-9.399314230730000830e+00,-5.551413819190000043e-02,-5.736645311119999840e-03,-3.167044743900000042e-02,1.000000000000000000e+00
1.614969419999999989e+00,-2.729180049220000015e+00,5.369161619679999609e-01,-9.369971816389998764e+00,-6.740415096280000240e-02,5.569578148420000624e-03,-3.117739036679999937e-02,1.000000000000000000e+00
1.620079786000000022e+00,-2.728602249329999729e+00,7.163937543269999209e-01,-9.371029216489999314e+00,-7.099000364539999330e-02,-7.504760287699999751e-04,-1.425413973629999914e-02,1.000000000000000000e+00
1.625037059999999922e+00,-2.669612592490000047e+00,8.169028047149999860e-01,-9.436393376810000788e+00,-6.200093030930000498e-02,-7.849086541679998943e-04,-2.362050674859999741e-02,1.000000000000000000e+00
1.630073848999999964e+00,-2.638703659479999963e+00,6.789607533159999209e-01,-9.425191599310000612e+00,-6.168106943369999762e-02,-7.430437952279999453e-03,-3.948811069130000323e-02,1.000000000000000000e+00
1.635033616000000078e+00,-2.672566766120000104e+00,5.184830084489999713e-01,-9.421155475660000889e+00,-2.999299019580000183e-02,-1.347293704749999953e-02,-4.672209173439999946e-02,1.000000000000000000e+00
1.640041714000000095e+00,-2.649227976100000159e+00,4.944554324550000102e-01,-9.443985147110000256e+00,-1.960630156099999952e-02,-7.049936801200000144e-03,-5.998008325700000115e-02,1.000000000000000000e+00
1.644950326000000018e+00,-2.650919290190000055e+00,4.674886246729999528e-01,-9.516751108110000246e+00,-1.809267140920000141e-02,9.650221094489999651e-03,-4.830544069409999780e-02,1.000000000000000000e+00
1.649993731999999991e+00,-2.638222597970000027e+00,4.878405808929999754e-01,-9.501399225200000132e+00,5.299864802509999910e-03,1.417004503310000108e-02,-4.291520267719999698e-02,1.000000000000000000e+00
1.654984111999999952e+00,-2.657555074949999874e+00,5.328901213219999766e-01,-9.526237898379999791e+00,-7.064883597199999622e-03,1.406554505229999988e-02,-3.709642216559999595e-02,1.000000000000000000e+00
1.660008018999999946e+00,-2.694164557680000183e+00,5.593593183139999869e-01,-9.504059968840000039e+00,-9.799710474909999885e-03,2.255892194809999696e-02,-2.822555042799999858e-02,1.000000000000000000e+00
1.664878070000000099e+00,-2.650978326899999793e+00,5.890467467000000124e-01,-9.512429153260001158e+00,-1.291699521239999919e-02,2.215494960550000100e-02,-4.479587823149999704e-02,1.000000000000000000e+00
1.669967562999999933e+00,-2.675798587640000115e+00,6.319229616779999947e-01,-9.501143204610000836e+00,-3.186897840350000257e-03,1.654121465979999789e-02,-4.285324364900000571e-02,1.000000000000000000e+00
1.674968975000000082e+00,-2.688788125340000335e+00,6.402869584629999888e-01,-9.503138762349999880e+00,-1.676461426539999902e-03,1.808872632679999967e-02,-4.215210303659999713e-02,1.000000000000000000e+00
1.680067626999999897e+00,-2.686168590490000341e+00,6.658470047210000020e-01,-9.569224807190000348e+00,9.900521487000000023e-03,1.294898241760000096e-02,-3.779077157380000135e-02,1.000000000000000000e+00
1.684996543000000013e+00,-2.657897020250000075e+00,6.744963943179999033e-01,-9.514446922819999486e+00,8.865232579409999814e-03,1.485947705809999991e-02,-2.634697780009999726e-02,1.000000000000000000e+00
1.690063592000000003e+00,-2.602595404270000135e+00,7.150178628640000422e-01,-9.484015544200000036e+00,1.774378493430000051e-02,8.564013987779998949e-03,-1.710322499279999867e-02,1.000000000000000000e+00
1.695014374000000101e+00,-2.460684010850000103e+00,8.156965707309999924e-01,-9.503515194439998481e+00,1.986887492240000178e-02,9.338112547989999707e-03,-4.402286931869999614e-02,1.000000000000000000e+00
1.700060246000000053e+00,-2.517655898130000125e+00,7.286323275229998897e-01,-9.521438389149999182e+00,2.839170582590000089e-02,-1.164110470559999964e-02,-3.044335916640000111e-02,1.000000000000000000e+00
1.705029071000000007e+00,-2.495921328440000142e+00,6.095398649569999661e-01,-9.529574349330001581e+00,3.232465684409999845e-02,-1.215284131470000147e-02,-1.673920825120000025e-02,1.000000000000000000e+00
1.710018511999999991e+00,-2.482704996259999852e+00,4.753789760639999806e-01,-9.514549214149999656e+00,3.144968673590000513e-02,-3.887207433580000537e-02,-2.610392682250000165e-02,1.000000000000000000e+00
1.715009256999999954e+00,-2.448184740890000377e+00,3.634233796399999883e-01,-9.512700955939999758e+00,3.820780664680000632e-02,-4.154179990290000207e-02,-2.958573028450000100e-02,1.000000000000000000e+00
1.720089996000000010e+00,-2.504473468209999609e+00,2.311131235819999796e-01,-9.411305112779999149e+00,4.787155240770000347e-02,-3.127456083890000488e-02,-8.370464667680000900e-03,1.000000000000000000e+00
1.725035796000000010e+00,-2.395352145369999963e+00,1.765738337409999970e-01,-9.511156064580001512e+00,3.707371279599999681e-02,-4.585043713449999531e-02,-2.141423895959999879e-02,1.000000000000000000e+00
1.730048672999999981e+00,-2.393405687470000043e+00,1.796968245999999991e-01,-9.550227261259999878e+00,3.500130027530000409e-02,-5.767934769389999883e-02,-2.022485435009999805e-02,1.000000000000000000e+00
1.735047224999999971e+00,-2.528599609209999599e+00,1.961516272509999936e-01,-9.485952065219999341e+00,6.144647952170000441e-03,-7.369845360519999833e-02,-1.208778843279999932e-02,1.000000000000000000e+00
1.740179440999999994e+00,-2.581754276289999872e+00,1.455318215420000061e-01,-9.458207149210000608e+00,5.689264275129999812e-03,-8.817967027430000104e-02,-1.747786439959999813e-02,1.000000000000000000e+00
1.745063272999999970e+00,-2.659232652770000094e+00,2.536501504909999816e-01,-9.483250405050000609e+00,2.804478164759999920e-03,-8.037404716010000671e-02,2.842172980310000291e-03,1.000000000000000000e+00
1.749985407000000048e+00,-2.639980547550000001e+00,3.112596963559999819e-01,-9.425099244849999280e+00,-2.199910767380000229e-02,-8.191528171299999883e-02,1.147428899999999863e-02,1.000000000000000000e+00
1.754986882999999942e+00,-2.712657368959999538e+00,3.469180523779999969e-01,-9.448468430000000140e+00,-1.421561650930000011e-02,-6.166116148230000454e-02,2.324317768219999816e-02,1.000000000000000000e+00
1.759925506999999945e+00,-2.606853061709999864e+00,3.037403337019999872e-01,-9.465391507750000599e+00,-3.685030620550000437e-03,-8.464228361850001381e-02,1.120087131860000168e-02,1.000000000000000000e+00
1.764949639999999986e+00,-2.647392285109999577e+00,3.583994870629999552e-01,-9.469862515689998261e+00,1.343166455630000027e-02,-8.990775048730001440e-02,2.210071682929999962e-02,1.000000000000000000e+00
1.769993662999999939e+00,-2.514709031019999763e+00,5.959043575100000378e-01,-9.482166701469999737e+00,-8.920229040090000769e-03,-8.005408942699999975e-02,4.499139264229999081e-03,1.000000000000000000e+00
1.774992008999999982e+00,-2.549570208780000069e+00,5.267320736170000295e-01,-9.506512038169999457e+00,1.550346030849999827e-03,-9.512709081169999636e-02,1.026115380230000016e-03,1.000000000000000000e+00
1.779942472999999969e+00,-2.501501466659999728e+00,3.366677669229999892e-01,-9.457680494979999963e+00,-9.255315177139998919e-03,-1.028672680260000055e-01,-1.595530309710000002e-03,1.000000000000000000e+00
1.785031360999999928e+00,-2.479518475170000347e+00,3.266977231810000437e-01,-9.497842994029999986e+00,1.459820289159999979e-02,-1.169199645520000025e-01,-3.108084201810000025e-04,1.000000000000000000e+00
1.790022352000000039e+00,-2.538518945679999916e+00,5.242344481149999735e-01,-9.492905537620000445e+00,1.775985024870000220e-02,-1.293102204800000155e-01,2.416303940119999757e-02,1.000000000000000000e+00
1.795038511000000003e+00,-2.609187057619999806e+00,5.989157046869999501e-01,-9.440608364150000043e+00,8.001322858040000111e-03,-1.365582346920000134e-01,1.582442969079999803e-02,1.000000000000000000e+00
1.800025489999999895e+00,-2.589610835009999779e+00,5.132496378399999948e-01,-9.450267003860000514e+00,-4.926273599270000920e-03,-1.506467908620000018e-01,-1.050717383619999973e-02,1.000000000000000000e+00
1.804924009000000051e+00,-2.748694020249999870e+00,4.812205051659999566e-01,-9.472803245310000619e+00,2.332951128480000025e-02,-1.464905738829999915e-01,4.296417348089999824e-03,1.000000000000000000e+00
1.810001760000000015e+00,-2.716706936620000068e+00,4.518518604060000055e-01,-9.437493446999999591e+00,1.397616975009999957e-02,-1.449057310820000000e-01,-5.937067791820000058e-03,1.000000000000000000e+00
1.814988256999999994e+00,-2.748687298240000132e+00,4.638879698319999800e-01,-9.413093165239999394e+00,2.155059017239999847e-02,-1.430767625569999979e-01,1.002222299579999878e-02,1.000000000000000000e+00
1.819985366999999910e+00,-2.823767381409999722e+00,3.323786914260000169e-01,-9.393781731049999806e+00,3.178901970390000248e-02,-1.507879793640000132e-01,1.440659351650000128e-02,1.000000000000000000e+00
1.825021696000000082e+00,-2.820486752300000344e+00,3.338247620490000234e-01,-9.360635832769998999e+00,2.468926832080000147e-02,-1.388881057499999905e-01,2.143850922580000165e-02,1.000000000000000000e+00
1.830142154000000021e+00,-2.806047308060000134e+00,3.642584056920000202e-01,-9.275292714269999905e+00,-1.121210120620000188e-02,-1.341897100209999971e-01,2.698930725459999791e-02,1.000000000000000000e+00
1.835072170999999974e+00,-2.687226282850000203e+00,3.843916776600000418e-01,-9.377638990019999454e+00,-2.445672452450000159e-02,-1.254779100420000126e-01,2.749012596909999884e-02,1.000000000000000000e+00
1.840035764000000018e+00,-2.679750540140000137e+00,4.587627723049999551e-01,-9.434800554660000671e+00,-1.623981259760000004e-02,-1.197237223389999994e-01,3.385084122419999841e-02,1.000000000000000000e+00
1.845029226999999938e+00,-2.706511998079999870e+00,5.134343102239999901e-01,-9.456663426900000502e+00,-2.225319109859999825e-02,-1.432439982890000019e-01,3.295963257550000441e-02,1.000000000000000000e+00
1.850045347000000007e+00,-2.793997097049999656e+00,5.553030286610000088e-01,-9.323492389289999238e+00,-2.610502298920000085e-03,-1.485872566700000008e-01,3.754891455169999392e-02,1.000000000000000000e+00
1.855012458000000031e+00,-2.649818635470000405e+00,5.783461236610000222e-01,-9.499961301349999943e+00,-9.768984746189998333e-04,-1.500991880889999963e-01,2.651933021840000015e-02,1.000000000000000000e+00
1.860027470999999988e+00,-2.622731014320000220e+00,4.263952379900000089e-01,-9.436507943099998741e+00,-6.671381182970000795e-03,-1.754904389380000096e-01,3.778018057350000097e-02,1.000000000000000000e+00
1.865081910000000009e+00,-2.605817873449999933e+00,3.699223497380000336e-01,-9.510670326889998805e+00,-1.001456473019999953e-02,-1.815292537209999835e-01,3.009865991770000263e-02,1.000000000000000000e+00
1.870051161999999989e+00,-2.670817292100000184e+00,3.430538146980000036e-01,-9.463311194350000122e+00,-1.321316789839999985e-02,-1.827209144830000132e-01,4.443327337500000557e-02,1.000000000000000000e+00
1.874992878000000029e+00,-2.685699511669999762e+00,2.455784877159999935e-01,-9.462214046760001551e+00,-1.151696778829999941e-02,-2.146330475809999916e-01,5.952582135800000424e-02,1.000000000000000000e+00
1.880117239999999912e+00,-2.670912569169999973e+00,4.216416867880000141e-01,-9.473218840379999506e+00,-2.428437024350000098e-02,-2.082822471860000246e-01,4.959480836989999669e-02,1.000000000000000000e+00
1.884985544999999929e+00,-2.768458166640000329e+00,5.563138496710000602e-01,-9.477667051960001032e+00,-1.440790947530000074e-02,-2.191656231879999805e-01,4.597846418619999653e-02,1.000000000000000000e+00
1.890054750000000006e+00,-2.801391591209999810e+00,5.112518516189999973e-01,-9.469640397370000073e+00,-2.745268307629999613e-02,-2.439439445730000044e-01,4.971934854980000068e-02,1.000000000000000000e+00
1.895082007999999929e+00,-2.862601846720000065e+00,5.618930380430000593e-01,-9.416846964819999499e+00,-3.750167414549999967e-02,-2.331516444680000189e-01,5.220366641879999742e-02,1.000000000000000000e+00
1.900059672000000033e+00,-2.959786501920000479e+00,5.981587123079999957e-01,-9.390367538689998739e+00,-1.791948452590000004e-02,-2.205504626040000193e-01,5.388966575260000641e-02,1.000000000000000000e+00
1.905051838999999969e+00,-2.908068589640000035e+00,5.268900041249999777e-01,-9.370204456110000635e+00,-7.564619183539999896e-03,-2.333972454069999924e-01,4.025081545109999992e-02,1.000000000000000000e+00
1.910102425999999909e+00,-2.786412048739999925e+00,5.100866437640000361e-01,-9.463875842489999357e+00,-8.758150041100001143e-03,-2.218766510489999788e-01,3.993435204029999880e-02,1.000000000000000000e+00
1.914986161999999936e+00,-2.795960213809999928e+00,6.065894176530000070e-01,-9.448829080010000325e+00,4.954616073520000212e-03,-2.300600707530000011e-01,4.042432084680000481e-02,1.000000000000000000e+00
1.920195794000000067e+00,-2.943808596069999783e+00,5.934260942950000395e-01,-9.506180029739999426e+00,1.894209720190000168e-02,-2.314611375329999887e-01,5.692794919010000371e-02,1.000000000000000000e+00
1.925060583999999908e+00,-2.876669535030000002e+00,4.499664850509999536e-01,-9.444867775160000534e+00,1.515569631010000098e-02,-2.374896854159999904e-01,4.910045862200000666e-02,1.000000000000000000e+00
1.930086321999999965e+00,-2.807071390409999978e+00,4.263542118599999431e-01,-9.512596911039999270e+00,2.095702663059999943e-02,-2.488035410640000167e-01,6.653197109700000056e-02,0.000000000000000000e+00
1.935067166000000061e+00,-2.676957986809999746e+00,4.253172700280000162e-01,-9.461282903389999888e+00,8.379448205229999072e-03,-2.658652663230000046e-01,5.922453105449999866e-02,0.000000000000000000e+00
1.940025609999999956e+00,-2.622921568459999797e+00,3.407031233860000063e-01,-9.584685995700001016e+00,2.503823302690000308e-02,-2.839098274710000203e-01,6.500694900749999505e-02,0.000000000000000000e+00
1.944986335999999927e+00,-2.634110194209999811e+00,2.093283946130000128e-01,-9.644726915159999692e+00,4.650735761970000576e-03,-3.169113397600000215e-01,7.912502437830000457e-02,0.000000000000000000e+00
1.949992946000000060e+00,-2.545036364750000057e+00,-4.830903313260000512e-03,-9.609211365149999295e+00,2.799125388260000069e-03,-3.389478623870000318e-01,1.005036979910000072e-01,0.000000000000000000e+00
1.955098074999999991e+00,-2.757520008519999788e+00,1.339738692880000082e-01,-9.744369777180001080e+00,-2.863241918390000210e-02,-3.924379348749999497e-01,1.149218901989999958e-01,0.000000000000000000e+00
1.960116391999999985e+00,-2.859975882130000091e+00,2.989497566909999904e-01,-9.557345568829999749e+00,-5.388707295059999569e-02,-4.191705584529999418e-01,1.242007836700000090e-01,0.000000000000000000e+00
1.964946239000000094e+00,-2.765058879589999741e+00,1.153920371460000066e-01,-9.572416881229999674e+00,-6.515224277969999811e-02,-4.307916164399999137e-01,1.214493364099999834e-01,0.000000000000000000e+00
1.970000350000000067e+00,-2.923443268909999837e+00,2.571192879060000269e-01,-9.462613859730000243e+00,-6.871867924930000204e-02,-4.469155669210000403e-01,1.392654180529999952e-01,0.000000000000000000e+00
1.975061017000000030e+00,-2.947355182629999959e+00,4.493028335100000548e-01,-9.551323824319998934e+00,-8.872666954989999466e-02,-4.377109110360000166e-01,1.316758245230000013e-01,0.000000000000000000e+00
1.979994078000000046e+00,-2.979234421970000213e+00,5.429810880300000031e-01,-9.594254034510001361e+00,-6.738305836919999958e-02,-4.550300538539999717e-01,1.282712966200000027e-01,0.000000000000000000e+00
1.984938333999999971e+00,-2.959853137419999669e+00,6.358063059179999144e-01,-9.710535312110000206e+00,-7.797655463219999028e-02,-4.607625007630000158e-01,1.339458376170000187e-01,0.000000000000000000e+00
1.990086639000000046e+00,-2.886141712260000158e+00,6.889272168610001135e-01,-9.738479550090000103e+00,-4.471138119699999414e-02,-4.801460504530000173e-01,1.250139474870000100e-01,0.000000000000000000e+00
1.995029189000000036e+00,-2.760968979929999900e+00,5.931424550480000057e-01,-9.760463418360000531e+00,-3.263818845150000258e-02,-5.014861226079999623e-01,1.149537041779999935e-01,0.000000000000000000e+00
2.000013206999999849e+00,-2.690969561029999735e+00,6.042372285039999680e-01,-9.806743523499999782e+00,-1.410347642380000051e-03,-5.442978143689999326e-01,1.261222660540000096e-01,0.000000000000000000e+00
2.005062260999999957e+00,-2.760837462500000061e+00,7.708716328369999982e-01,-9.980977808380000482e+00,1.296321512200000097e-03,-5.640902519229999967e-01,1.112877130509999923e-01,0.000000000000000000e+00
2.009929055000000186e+00,-2.562015264340000265e+00,8.463913495280001031e-01,-1.022372273490000083e+01,1.873328909280000051e-02,-6.264634132390000110e-01,1.207454949620000023e-01,0.000000000000000000e+00
2.015090351000000002e+00,-2.421786563299999973e+00,1.010890860720000228e+00,-1.026570309700000116e+01,5.634927004580000259e-02,-6.688119769100000500e-01,1.254251599310000076e-01,0.000000000000000000e+00
2.020018486000000113e+00,-2.657807296140000108e+00,9.802430628740000929e-01,-1.008369233290000011e+01,7.790356129410000441e-02,-7.196269035340000508e-01,9.694268554450000130e-02,0.000000000000000000e+00
2.024972495000000094e+00,-2.739214536499999575e+00,8.362767827490000805e-01,-1.008641035970000033e+01,9.942165017130000226e-02,-7.753457427019999626e-01,1.133756414059999967e-01,0.000000000000000000e+00
2.030057336000000046e+00,-2.793852720139999857e+00,8.487610743340000541e-01,-1.034415879410000016e+01,1.204490661620000042e-01,-8.386215567589999642e-01,9.493977576489999459e-02,0.000000000000000000e+00
2.035060169999999946e+00,-2.748109206100000090e+00,1.301393417589999935e+00,-1.024977370649999919e+01,1.337939500809999793e-01,-8.909319043160000007e-01,7.751505076889998735e-02,0.000000000000000000e+00
2.039946646999999835e+00,-2.628658943070000031e+00,1.279779259419999926e+00,-1.036499115420000017e+01,1.653468757869999972e-01,-9.333193898200000671e-01,5.577632039789999496e-02,0.000000000000000000e+00
2.044941491999999972e+00,-2.735741599690000303e+00,1.325277420399999961e+00,-1.051805054909999981e+01,1.770364791150000061e-01,-9.827706217770000308e-01,2.692918851970000152e-02,0.000000000000000000e+00
2.049952991000000058e+00,-2.740559229110000050e+00,1.175263969059999969e+00,-1.053486373680000021e+01,2.059174776079999991e-01,-1.053330898280000039e+00,9.978315792979999994e-04,0.000000000000000000e+00
2.054974678000000221e+00,-2.703369023880000110e+00,1.176842251229999858e+00,-1.062788805739999987e+01,2.225211858749999716e-01,-1.126008272169999991e+00,-4.399384558200000045e-02,0.000000000000000000e+00
2.059969734000000052e+00,-2.805070279720000226e+00,1.587287603879999898e+00,-1.077830424440000101e+01,2.337338030339999873e-01,-1.245524883270000105e+00,-6.507796794179999955e-02,0.000000000000000000e+00
2.064936675999999860e+00,-2.494887309220000127e+00,1.334942782099999947e+00,-1.069444171980000036e+01,2.903234660630000241e-01,-1.318394064899999885e+00,-1.139830499889999960e-01,0.000000000000000000e+00
2.069922807999999836e+00,-2.800294151359999706e+00,1.396583830239999990e+00,-1.083017354779999941e+01,3.633282184600000186e-01,-1.401084542270000011e+00,-1.441993415360000030e-01,0.000000000000000000e+00
2.074888585000000063e+00,-2.793102486290000019e+00,1.260637628829999857e+00,-1.085533253900000084e+01,3.964994549749999986e-01,-1.514273166660000003e+00,-1.578949838879999956e-01,0.000000000000000000e+00
2.079948192999999890e+00,-2.743971375640000154e+00,1.222611411170000162e+00,-1.111362107160000079e+01,4.511952102179999646e-01,-1.613224744799999888e+00,-1.805118918420000051e-01,0.000000000000000000e+00
2.085057491000000152e+00,-2.496287823670000350e+00,1.243912557870000102e+00,-1.130988598650000121e+01,4.866158068179999852e-01,-1.729146599769999959e+00,-2.158309966330000107e-01,0.000000000000000000e+00
2.089756809999999909e+00,-2.427532267350000161e+00,1.007241032979999895e+00,-1.142524956469999964e+01,5.258028507230000370e-01,-1.843583464620000223e+00,-2.611858844759999965e-01,0.000000000000000000e+00
2.094769068999999817e+00,-2.429282764279999896e+00,6.530906912610000559e-01,-1.154488015279999935e+01,5.529215931889999158e-01,-2.013886928559999845e+00,-3.151697218419999835e-01,0.000000000000000000e+00
2.099774469000000199e+00,-2.348603545930000092e+00,3.664901102669999577e-01,-1.201894844809999974e+01,5.651816725730000046e-01,-2.160115003590000082e+00,-3.223271071909999952e-01,0.000000000000000000e+00
2.104796638999999914e+00,-1.967038031609999793e+00,2.249680266899999892e-01,-1.216376140819999918e+01,5.862251520160000062e-01,-2.330259323119999948e+00,-3.635573983190000247e-01,0.000000000000000000e+00
2.109762771000000203e+00,-1.880977120230000077e+00,5.240198555159999994e-02,-1.226824352690000097e+01,5.787332654000000298e-01,-2.518238306049999764e+00,-3.899174332620000127e-01,0.000000000000000000e+00
2.114843072000000213e+00,-1.929059452479999992e+00,-2.938815317819999939e-01,-1.246116497660000100e+01,5.319182276730000103e-01,-2.706482887269999971e+00,-4.324145317079999828e-01,0.000000000000000000e+00
2.119972676000000167e+00,-1.600923476660000011e+00,-7.775771218250000505e-01,-1.267033730390000024e+01,4.818760454649999581e-01,-2.919868946079999805e+00,-4.432405531409999710e-01,0.000000000000000000e+00
2.124959153999999906e+00,-1.518647929029999899e+00,-9.856894186460000151e-01,-1.291296415700000111e+01,4.213834106920000266e-01,-3.123749971390000102e+00,-4.554169178010000207e-01,0.000000000000000000e+00
2.129921502999999827e+00,-1.408231305679999990e+00,-1.020529188290000056e+00,-1.302137192470000038e+01,3.527472317220000098e-01,-3.336597681050000208e+00,-4.314653575419999387e-01,0.000000000000000000e+00
2.135028802999999975e+00,-1.280696374259999937e+00,-1.553821825999999851e+00,-1.329876497079999886e+01,2.943780720230000369e-01,-3.569565057749999770e+00,-4.065312743190000466e-01,0.000000000000000000e+00
2.139979095999999803e+00,-1.183265781470000055e+00,-2.003671479739999928e+00,-1.339914491490000081e+01,2.182916849850000118e-01,-3.825688123699999998e+00,-3.406355977059999929e-01,0.000000000000000000e+00
2.144951010999999852e+00,-1.080462263470000073e+00,-1.387653212549999848e+00,-1.336733523369999865e+01,1.434711962939999863e-01,-4.056476116180000702e+00,-2.625083327289999824e-01,0.000000000000000000e+00
2.150001773000000060e+00,-8.428282502189999859e-01,-1.155615777199999972e+00,-1.323999713999999983e+01,4.463325440880000494e-02,-4.330462932589999703e+00,-1.493384391070000095e-01,0.000000000000000000e+00
2.155024371000000105e+00,-7.838253685649999580e-01,-6.740867906039998969e-01,-1.313422907310000021e+01,-3.243476152420000230e-02,-4.603045940400000369e+00,-6.421104818580000706e-02,0.000000000000000000e+00
2.160039702000000172e+00,-8.933467235789999128e-01,-7.645648608430000159e-01,-1.290885730619999805e+01,-1.166806295510000036e-01,-4.879774570469999517e+00,4.272920638319999825e-02,0.000000000000000000e+00
2.165002622999999904e+00,-1.276787091859999945e+00,-6.874621858099999594e-01,-1.256496437380000053e+01,-1.520769894119999854e-01,-5.180341243740000046e+00,1.380826085810000214e-01,0.000000000000000000e+00
2.170024655000000191e+00,-1.546791342840000194e+00,-5.281222493339999824e-01,-1.219584230759999954e+01,-2.499647438529999932e-01,-5.493898868559999649e+00,1.748557090760000099e-01,0.000000000000000000e+00
2.175111771000000083e+00,-1.707943735570000010e+00,-3.802843154070000287e-01,-1.207035130309999893e+01,-3.690346479420000270e-01,-5.796586036679999943e+00,2.506568729879999902e-01,0.000000000000000000e+00
2.180031563000000006e+00,-3.071617229860000187e+00,-6.317514775689999640e-01,-1.250899523380000034e+01,-5.204405188559999562e-01,-6.105588436130000574e+00,2.367144227029999992e-01,0.000000000000000000e+00
2.184983251999999876e+00,-4.680404425629999920e+00,-1.661530359440000160e+00,-1.258526131190000008e+01,-6.679167747499999974e-01,-6.412100791930000376e+00,2.582065463070000177e-01,0.000000000000000000e+00
2.189967333999999877e+00,-6.874325213239998789e+00,-2.856072737209999435e+00,-1.354272570280000032e+01,-7.478156685829999706e-01,-6.644140720369999364e+00,2.869301438329999732e-01,0.000000000000000000e+00
2.195081651000000189e+00,-9.364033658520000358e+00,-3.286584214879999966e+00,-1.455899767210000029e+01,-7.961120009419999644e-01,-6.753109931950000089e+00,3.328585326669999955e-01,0.000000000000000000e+00
2.200054036000000046e+00,-1.154426991190000074e+01,-3.581608779219999761e+00,-1.351011756469999980e+01,-8.402005434039999665e-01,-6.745731830599999590e+00,4.207267463209999891e-01,0.000000000000000000e+00
2.205019892999999787e+00,-1.341926182019999914e+01,-3.568179388799999963e+00,-1.332287065349999899e+01,-9.285494089129999740e-01,-6.561526298519999578e+00,6.213318705560000321e-01,0.000000000000000000e+00
2.210077112000000010e+00,-1.590362831999999926e+01,-3.030166444570000284e+00,-1.453498785089999856e+01,-1.105879068370000162e+00,-6.229655265809999953e+00,6.915850639339999884e-01,0.000000000000000000e+00
2.215065304999999984e+00,-1.667820399500000050e+01,-3.553771508740000140e+00,-1.331942898859999858e+01,-1.369566321370000006e+00,-5.904511451719999471e+00,8.162276148800000630e-01,0.000000000000000000e+00
2.220104007999999851e+00,-1.610423740160000250e+01,-3.249805220799999894e+00,-1.369714352660000145e+01,-1.615706443790000169e+00,-5.506431102749999695e+00,9.173138737679999988e-01,0.000000000000000000e+00
2.224977904999999812e+00,-1.573771996490000014e+01,-2.981565495269999921e+00,-1.391308111020000027e+01,-1.873423337940000266e+00,-5.129390239719999300e+00,9.693461060519998895e-01,0.000000000000000000e+00
2.230093328000000152e+00,-1.510834654160000134e+01,-4.278192282980000094e+00,-1.373622115299999891e+01,-2.113310098649999969e+00,-4.719988822940000439e+00,1.091493964200000111e+00,0.000000000000000000e+00
2.235022911000000168e+00,-1.893640027089999833e+01,-3.371761329169999932e+00,-1.600664328879999943e+01,-2.362992763519999873e+00,-4.317104339600000174e+00,1.014183640479999982e+00,0.000000000000000000e+00
2.240048299000000132e+00,-1.830311522710000105e+01,-3.926346930269999369e+00,-1.454307529579999958e+01,-2.437346458439999974e+00,-3.875478982930000260e+00,9.156683683399998719e-01,0.000000000000000000e+00
2.244960943000000153e+00,-1.370738551920000070e+01,-2.854524630979999866e+00,-1.410498315369999922e+01,-2.522937297819999980e+00,-3.420545578000000031e+00,8.345097899439999356e-01,0.000000000000000000e+00
2.250092571999999791e+00,-7.507971491580000212e+00,-1.194014262239999846e+00,-1.484448517730000106e+01,-2.472600936890000156e+00,-2.986314296719999817e+00,7.142295837400000069e-01,0.000000000000000000e+00
2.255040344999999835e+00,-3.772760296619999565e+00,-7.602624144089999980e-01,-1.562501245410000017e+01,-2.495793819429999782e+00,-2.784375429150000247e+00,6.527968049050000277e-01,0.000000000000000000e+00
2.260050060000000194e+00,-2.511714525379999952e+00,-9.116421856609999708e-01,-1.203384323490000085e+01,-2.518984079360000017e+00,-2.712429285049999805e+00,5.235764980320000150e-01,0.000000000000000000e+00
2.264974420000000155e+00,-5.689652414510000256e-01,-1.601739469209999989e+00,-7.366715931719999055e+00,-2.430247068409999933e+00,-2.557831048970000243e+00,4.409801363949999997e-01,0.000000000000000000e+00
2.270024768999999942e+00,3.729575527149999736e+00,-3.441279686549999717e+00,-3.713688806710000012e+00,-2.154245138169999851e+00,-2.121403932569999817e+00,5.473220348359999488e-01,0.000000000000000000e+00
2.275012600000000162e+00,6.747679193489999783e+00,-3.340277518880000240e+00,-4.463990164410000183e+00,-1.735490202899999890e+00,-1.295061469079999972e+00,8.898179531100000039e-01,0.000000000000000000e+00
2.280034913999999802e+00,-1.600074239420000155e-01,1.907851098630000131e+00,-7.336030870599999254e+00,-1.527170300479999687e+00,-8.568029403689999546e-01,1.156967043879999935e+00,0.000000000000000000e+00
2.284981548000000195e+00,-6.140051738019999483e+00,3.734528473389999714e+00,-1.228288930739999962e+01,-1.230657577509999934e+00,-6.175398230549999923e-01,1.292035102839999894e+00,0.000000000000000000e+00
2.290060313000000125e+00,-9.880700740119999992e+00,1.404464208229999844e+00,-1.576677654799999928e+01,-8.603471517560000725e-01,-4.693214297290000392e-01,1.232729554180000076e+00,0.000000000000000000e+00
2.294951059000000182e+00,-6.159054544660000019e+00,7.118889902539999870e-01,-1.484245571730000002e+01,-3.752067387099999873e-01,1.506028324369999838e-01,1.134437561039999931e+00,0.000000000000000000e+00
2.300015618000000206e+00,4.355223646349999922e-01,-3.130489178609999756e-01,-1.213623627239999969e+01,-1.681434176859999963e-02,1.057359814640000062e+00,1.134504437449999958e+00,0.000000000000000000e+00
2.304987222999999918e+00,2.320033723399999914e+00,-9.043881959450000840e-01,-8.902867514860000497e+00,1.584198772909999886e-01,1.677705049510000102e+00,1.149232864379999830e+00,0.000000000000000000e+00
2.310091059999999974e+00,3.103484778759999951e+00,-1.481463715149999860e+00,-7.392627202560000832e+00,1.044942960139999960e-01,2.168457746510000117e+00,1.140126705170000143e+00,0.000000000000000000e+00
2.315037059999999869e+00,4.888984047700000168e+00,-3.191884069959999959e+00,-7.045124847489999453e+00,2.391476742920000190e-02,2.250153064730000096e+00,1.160542607310000029e+00,0.000000000000000000e+00
2.320035564999999966e+00,6.179939511779999783e+00,-3.707335346030000256e+00,-6.990722810700000345e+00,-3.526791930199999620e-02,1.865244388579999857e+00,1.149870634080000009e+00,0.000000000000000000e+00
2.324943929999999881e+00,5.252215010040000465e+00,-3.657430036140000063e+00,-6.630806379730000089e+00,-4.837667196990000362e-02,1.598715543750000023e+00,1.212657094000000102e+00,0.000000000000000000e+00
2.329997860000000198e+00,4.586067561070000131e+00,-3.120391489900000259e+00,-6.810203746460000040e+00,-1.277483105660000007e-01,1.472445726389999932e+00,1.135124683379999944e+00,0.000000000000000000e+00
2.335012155999999894e+00,4.120364358509999825e+00,-2.458946519529999986e+00,-6.778911367100000085e+00,-2.614704668519999831e-01,1.341616511340000040e+00,9.734387993809999751e-01,0.000000000000000000e+00
2.340100044999999795e+00,2.802117567400000286e+00,-2.693083776699999987e+00,-6.170853118999999332e+00,-4.407988488669999927e-01,1.407397985460000056e+00,8.516794443130000225e-01,0.000000000000000000e+00
2.345014835000000186e+00,2.059003636989999997e+00,-3.471888175299999713e+00,-6.262568110619999295e+00,-5.703198313710000633e-01,1.627238631250000012e+00,7.887662649150000149e-01,0.000000000000000000e+00
2.350030348000000213e+00,1.424780581679999880e+00,-3.531003796619999413e+00,-6.551564500709999628e+00,-6.211350560189999870e-01,1.906917214390000170e+00,8.155089020730000859e-01,0.000000000000000000e+00
2.354984085999999976e+00,8.115702115160000618e-01,-2.970901477920000033e+00,-6.847099937180000317e+00,-6.669356822969999543e-01,2.180001735689999887e+00,8.119198679919999995e-01,0.000000000000000000e+00
2.360032625000000106e+00,5.533806092310000757e-01,-2.337428218049999895e+00,-7.063513321619999452e+00,-6.637266278269999820e-01,2.406305313109999844e+00,7.475407123569999257e-01,0.000000000000000000e+00
2.365067590999999858e+00,4.879041476479999973e-01,-2.138659211379999814e+00,-7.115093286729999633e+00,-6.419560313220000758e-01,2.586272239689999974e+00,6.373388767240000252e-01,0.000000000000000000e+00
2.370056028000000037e+00,4.966511524009999401e-01,-2.185086031510000026e+00,-7.154079727730000116e+00,-5.896941423420000161e-01,2.782295703890000027e+00,4.846533238889999540e-01,0.000000000000000000e+00
2.374979358000000040e+00,2.454843248930000110e-01,-2.300009903159999869e+00,-7.053897352010000787e+00,-5.208217501640000080e-01,2.997933626170000032e+00,3.561180829999999742e-01,0.000000000000000000e+00
2.379946298000000127e+00,-1.999050249679999725e-02,-2.506296007460000030e+00,-7.211319033780000609e+00,-4.555961191650000353e-01,3.205084085460000232e+00,2.486692517999999907e-01,0.000000000000000000e+00
2.384892307999999961e+00,2.695703530749999841e-02,-2.830008029360000066e+00,-7.217250177389999521e+00,-3.875613212590000023e-01,3.436108112340000353e+00,1.446884721520000083e-01,0.000000000000000000e+00
2.390055035000000050e+00,5.879590610609999879e-02,-2.860467465040000157e+00,-7.165581364950000420e+00,-3.380342721940000628e-01,3.636020421980000084e+00,2.934240363540000299e-02,0.000000000000000000e+00
2.395036285999999848e+00,1.146657321649999922e-01,-2.691159530640000241e+00,-6.971800083560000694e+00,-2.900309562680000175e-01,3.787254333500000403e+00,-9.675023704769998567e-02,0.000000000000000000e+00
2.400115752000000047e+00,1.723739160999999964e-01,-2.654671043940000086e+00,-6.855587195020000024e+00,-2.434557080270000062e-01,3.900782108309999607e+00,-2.184387296440000181e-01,0.000000000000000000e+00
2.405108445000000206e+00,2.108157470939999723e-01,-2.617795019229999909e+00,-6.839093740859999215e+00,-1.601691246030000071e-01,3.966077804569999365e+00,-3.354143500330000194e-01,0.000000000000000000e+00
2.410043153999999799e+00,-1.242792175539999926e-02,-2.411999328779999896e+00,-6.908272491030000850e+00,-8.367816358799999577e-02,4.044346809390000352e+00,-4.223087131979999520e-01,0.000000000000000000e+00
2.415090494000000199e+00,-2.829113710869999854e-01,-2.223634957879999874e+00,-6.843691590040000605e+00,2.220049500469999798e-02,4.092635154719999058e+00,-5.182123184200000399e-01,0.000000000000000000e+00
2.420052528999999897e+00,-6.660932345669999810e-01,-2.144823433100000010e+00,-6.811642839349999257e+00,1.305650919679999800e-01,4.146313667300000283e+00,-5.876771211619999935e-01,0.000000000000000000e+00
2.425019890000000178e+00,-1.024118737220000019e+00,-2.181946856699999771e+00,-6.842137930859999884e+00,2.217429131270000076e-01,4.192961215969999600e+00,-6.415413618090000103e-01,0.000000000000000000e+00
2.430045048000000207e+00,-1.290266020510000056e+00,-2.340471969659999818e+00,-7.019658397799999783e+00,3.108444511890000039e-01,4.220317840579999924e+00,-7.278140783310000916e-01,0.000000000000000000e+00
2.435033762000000213e+00,-1.622576651669999981e+00,-2.422589404120000012e+00,-7.283051560080000542e+00,4.022282063959999876e-01,4.221076488490000500e+00,-7.824195623399999855e-01,0.000000000000000000e+00
2.440081922000000070e+00,-1.866054422509999977e+00,-2.460116732349999946e+00,-7.596604883799999541e+00,4.359326362610000394e-01,4.202557563780000116e+00,-8.365392684939999546e-01,0.000000000000000000e+00
2.445004067999999808e+00,-2.222481696190000022e+00,-2.422607524300000037e+00,-8.091321999399999854e+00,4.801230430600000321e-01,4.198105812069999665e+00,-9.002032279970000328e-01,0.000000000000000000e+00
2.450081527000000037e+00,-2.556511113960000081e+00,-2.212204486190000097e+00,-8.543073248969999867e+00,4.972935020920000171e-01,4.176056385039999874e+00,-9.935183525090000023e-01,0.000000000000000000e+00
2.455072066000000053e+00,-3.167026692079999872e+00,-1.944202222679999981e+00,-9.009183278769999248e+00,5.360029339790000069e-01,4.199063301090000699e+00,-1.063063383100000037e+00,0.000000000000000000e+00
2.460053102999999908e+00,-3.909875103419999665e+00,-1.733978048279999795e+00,-9.474412434079999557e+00,5.681291222569999633e-01,4.235646724700000476e+00,-1.111694574359999965e+00,0.000000000000000000e+00
2.465028953000000023e+00,-4.487789265400000005e+00,-1.556727630449999955e+00,-9.835478619599999917e+00,6.588876843450000020e-01,4.279862880709999651e+00,-1.141060471529999898e+00,0.000000000000000000e+00
2.470041987000000105e+00,-4.861816347049999543e+00,-1.439293529550000228e+00,-1.016423711120000029e+01,7.218498587610000516e-01,4.369690895079999748e+00,-1.164339423179999944e+00,0.000000000000000000e+00
2.475023176000000102e+00,-5.134890945380000460e+00,-1.372217158490000033e+00,-1.048678213520000035e+01,7.997909784319999771e-01,4.463013172150000152e+00,-1.167720794679999896e+00,0.000000000000000000e+00
2.479947463999999879e+00,-5.188491602669999203e+00,-1.410245860370000104e+00,-1.080080366089999977e+01,8.840779662129999439e-01,4.554213047030000183e+00,-1.190328121190000088e+00,0.000000000000000000e+00
2.485004265000000157e+00,-5.276058826959999948e+00,-1.625378703479999798e+00,-1.095656003979999937e+01,9.281736612319999580e-01,4.598563194269999599e+00,-1.209510087970000036e+00,0.000000000000000000e+00
2.490054462999999885e+00,-5.294333903840000133e+00,-1.825728549599999972e+00,-1.117441953140000166e+01,9.575912356380000823e-01,4.621031284329999878e+00,-1.241688609119999898e+00,0.000000000000000000e+00
2.494998263999999910e+00,-5.040092016270000030e+00,-1.902605745320000041e+00,-1.145182192979999947e+01,9.480785727500000704e-01,4.644198417659999301e+00,-1.297914624210000145e+00,0.000000000000000000e+00
2.500115934000000095e+00,-4.874085753769999307e+00,-1.636929148279999691e+00,-1.174270106490000032e+01,9.171857833859999865e-01,4.594419479369999948e+00,-1.353500485419999899e+00,0.000000000000000000e+00
2.505050332999999796e+00,-4.718802837600000188e+00,-1.140532555160000072e+00,-1.205430267010000023e+01,9.086051583290000178e-01,4.560195922850000194e+00,-1.422740578650000032e+00,0.000000000000000000e+00
2.510073000000000221e+00,-4.874650986439999834e+00,-6.831209417350000423e-01,-1.229995851560000020e+01,9.313935041429999284e-01,4.527932167049999457e+00,-1.472318649290000003e+00,0.000000000000000000e+00
2.515066875000000035e+00,-5.348305732530000078e+00,-3.742413819809999875e-01,-1.266607380119999959e+01,1.000358939170000072e+00,4.473602771760000429e+00,-1.509856700900000126e+00,0.000000000000000000e+00
2.520070437999999857e+00,-5.995442776079999980e+00,-1.549356371030000123e-01,-1.298297351269999922e+01,1.114547252659999987e+00,4.399567127230000096e+00,-1.504041433330000066e+00,0.000000000000000000e+00
2.525057295999999951e+00,-6.700513537690000909e+00,-1.362590850150000032e-01,-1.330673551130000121e+01,1.214213967320000087e+00,4.381070137020000033e+00,-1.486374855039999998e+00,0.000000000000000000e+00
2.529994133000000200e+00,-7.261758012160000497e+00,-4.125126969799999821e-01,-1.370182320890000049e+01,1.313590645789999956e+00,4.355657100680000227e+00,-1.456394195559999938e+00,0.000000000000000000e+00
2.535046840000000135e+00,-7.703293572669999811e+00,-9.822611246979999766e-01,-1.401468153599999944e+01,1.397751688959999905e+00,4.335865974429999881e+00,-1.416022658350000185e+00,0.000000000000000000e+00
2.540068435999999874e+00,-8.211879054620000673e+00,-1.730211973740000131e+00,-1.432249427030000000e+01,1.387012004850000091e+00,4.311913013459999888e+00,-1.357605814930000099e+00,0.000000000000000000e+00
2.545099259000000114e+00,-8.499407125730000345e+00,-2.417750293529999706e+00,-1.459917419960000018e+01,1.355612754819999877e+00,4.290946960450000347e+00,-1.320083975790000030e+00,0.000000000000000000e+00
2.549991659999999882e+00,-8.785797717230000359e+00,-2.960500203150000065e+00,-1.475879076109999843e+01,1.258741259570000048e+00,4.264449596409999543e+00,-1.284775495529999922e+00,0.000000000000000000e+00
2.555051028999999918e+00,-8.960974251399999702e+00,-3.130611270620000219e+00,-1.482690626589999994e+01,1.139138579369999960e+00,4.217583656309999540e+00,-1.246248483660000073e+00,0.000000000000000000e+00
2.560004558999999791e+00,-8.982370675169999430e+00,-3.050610389919999665e+00,-1.480503579490000021e+01,1.037961363790000036e+00,4.200680255890000048e+00,-1.217106699939999981e+00,0.000000000000000000e+00
2.565106709000000151e+00,-9.071464670639999284e+00,-2.819588634420000517e+00,-1.481566357190000005e+01,9.817692041399999070e-01,4.147665977479999988e+00,-1.198221325870000076e+00,0.000000000000000000e+00
2.570090610999999914e+00,-9.347385306050000509e+00,-2.464364160659999747e+00,-1.482554666799999943e+01,9.608156681059999427e-01,4.081494331360000061e+00,-1.164678454399999952e+00,0.000000000000000000e+00
2.575054866999999970e+00,-9.597099487070000379e+00,-2.300693501510000072e+00,-1.485683729380000173e+01,1.002225160600000109e+00,4.035784244540000287e+00,-1.146108746529999944e+00,0.000000000000000000e+00
2.580090306000000222e+00,-1.000198552510000027e+01,-2.367838992279999832e+00,-1.494391235069999979e+01,1.084850788120000020e+00,3.968438148500000207e+00,-1.122921466830000048e+00,0.000000000000000000e+00
2.584972478000000073e+00,-1.060892967450000057e+01,-2.598632053590000268e+00,-1.518673092700000105e+01,1.151351094250000040e+00,3.923865556720000036e+00,-1.084630370139999966e+00,0.000000000000000000e+00
2.590059934000000119e+00,-1.105318618440000122e+01,-2.662077520809999598e+00,-1.514676482730000018e+01,1.229708313940000020e+00,3.909867525099999686e+00,-1.050959348679999961e+00,0.000000000000000000e+00
2.594985765000000111e+00,-1.118897763359999864e+01,-2.587050044609999766e+00,-1.481071851670000150e+01,1.275020956989999954e+00,3.876884222030000160e+00,-1.055500507349999895e+00,0.000000000000000000e+00
2.600032618000000184e+00,-1.115335570059999881e+01,-2.293471149040000157e+00,-1.440825298390000064e+01,1.295485377310000130e+00,3.867824077609999911e+00,-1.059935331339999953e+00,0.000000000000000000e+00
2.605105483000000000e+00,-1.098435639380000062e+01,-2.073455794580000067e+00,-1.394819567819999939e+01,1.326513886449999902e+00,3.845801591869999925e+00,-1.087173700329999937e+00,0.000000000000000000e+00
2.610055522000000128e+00,-1.066771387190000020e+01,-1.960868403059999876e+00,-1.358738551329999922e+01,1.370482206339999953e+00,3.785195827480000386e+00,-1.113136291500000041e+00,0.000000000000000000e+00
2.614972132000000116e+00,-1.032541668420000036e+01,-1.974577779459999904e+00,-1.323518067960000089e+01,1.425397872919999864e+00,3.659975767139999725e+00,-1.133294820789999990e+00,0.000000000000000000e+00
2.620190776999999915e+00,-1.026401850489999923e+01,-2.120788477520000104e+00,-1.306398824660000102e+01,1.452794194220000223e+00,3.510514736180000206e+00,-1.161452889439999803e+00,0.000000000000000000e+00
2.625007609999999936e+00,-1.060867365390000039e+01,-2.106076207680000145e+00,-1.287436583849999927e+01,1.453029751779999934e+00,3.313070535659999649e+00,-1.189107775689999924e+00,0.000000000000000000e+00
2.630020734999999998e+00,-1.115064819520000050e+01,-2.137734790009999664e+00,-1.263178691619999938e+01,1.438170552249999901e+00,3.153301954269999818e+00,-1.220450282099999839e+00,0.000000000000000000e+00
2.634956432000000071e+00,-1.192043780500000061e+01,-2.342643760749999693e+00,-1.241168753670000058e+01,1.383631467820000127e+00,3.001278638840000124e+00,-1.225316286089999984e+00,0.000000000000000000e+00
2.640077676999999845e+00,-1.265534782449999973e+01,-2.620581435070000076e+00,-1.226267770950000013e+01,1.352001309390000072e+00,2.894864797589999927e+00,-1.239340186119999965e+00,0.000000000000000000e+00
2.645121175999999963e+00,-1.340077806900000112e+01,-2.534118957150000018e+00,-1.204818506400000011e+01,1.307857751850000083e+00,2.812463521959999824e+00,-1.237596750260000045e+00,0.000000000000000000e+00
2.650054115000000099e+00,-1.387513511819999934e+01,-2.097572729359999943e+00,-1.143051493789999995e+01,1.235382556920000097e+00,2.739165067670000120e+00,-1.255144238470000007e+00,0.000000000000000000e+00
2.654945241000000067e+00,-1.426798877309999902e+01,-1.515362331489999992e+00,-1.053756539699999983e+01,1.173576354980000014e+00,2.676510810849999977e+00,-1.242058634760000002e+00,0.000000000000000000e+00
2.660042290999999892e+00,-1.432072901420000122e+01,-9.221310656450000254e-01,-9.507447857719999007e+00,1.156397223469999958e+00,2.583062171939999985e+00,-1.247710704800000014e+00,0.000000000000000000e+00
2.665028657000000134e+00,-1.430101192180000069e+01,-4.008729299270000213e-01,-8.495954354920000284e+00,1.162333369259999971e+00,2.469878435129999605e+00,-1.245913147930000076e+00,0.000000000000000000e+00
2.669996003000000062e+00,-1.421132405210000016e+01,4.870861549299999871e-02,-7.646950923200000361e+00,1.179978251459999905e+00,2.298591852189999951e+00,-1.260362982750000027e+00,0.000000000000000000e+00
2.675034516999999834e+00,-1.438686766599999878e+01,3.408576928929999972e-01,-6.949464917639999406e+00,1.184157490730000095e+00,2.118455886840000080e+00,-1.281819462779999919e+00,0.000000000000000000e+00
2.680287465999999785e+00,-1.473860254410000081e+01,5.114002105810000476e-01,-6.239812673459999459e+00,1.179970622059999918e+00,1.874612689020000111e+00,-1.335222363470000007e+00,0.000000000000000000e+00
2.685031085999999956e+00,-1.511466054699999972e+01,5.770310955399999830e-01,-5.555809249800000238e+00,1.115830421449999887e+00,1.676966428760000127e+00,-1.404028892519999960e+00,0.000000000000000000e+00
2.689995774999999867e+00,-1.536122357049999998e+01,5.409584596290000214e-01,-5.050795196590000202e+00,1.038745403289999869e+00,1.505030989650000040e+00,-1.518303513529999815e+00,0.000000000000000000e+00
2.695039487999999928e+00,-1.551728974599999944e+01,4.369546624600000873e-01,-4.627830188779999965e+00,8.932626843449998910e-01,1.314211964610000116e+00,-1.637174010279999870e+00,0.000000000000000000e+00
2.699983693000000073e+00,-1.530203254589999950e+01,5.930492238069999811e-01,-4.270996234000000058e+00,6.808229088779998994e-01,1.160876393319999922e+00,-1.805158853529999829e+00,0.000000000000000000e+00
2.705037969000000153e+00,-1.504183847190000023e+01,8.528596687589999892e-01,-3.687827512490000181e+00,4.761250913139999930e-01,1.005146384239999913e+00,-1.968206405640000156e+00,0.000000000000000000e+00
2.709985438999999996e+00,-1.459477274980000061e+01,1.130275876500000054e+00,-3.192518860739999909e+00,2.515273690219999581e-01,8.121286034579999757e-01,-2.126727819440000111e+00,0.000000000000000000e+00
2.715141308999999836e+00,-1.410611946430000074e+01,1.565375193409999977e+00,-2.747854354549999822e+00,5.582318082449999608e-02,5.977607369420000483e-01,-2.290422439579999914e+00,0.000000000000000000e+00
2.720043125000000117e+00,-1.384506731219999942e+01,2.039453133349999892e+00,-2.401365122040000077e+00,-9.658434987069999811e-02,3.221763372420000104e-01,-2.425084114070000130e+00,0.000000000000000000e+00
2.725091073999999836e+00,-1.353076989210000036e+01,2.141492973500000119e+00,-2.305902614459999889e+00,-2.162990570070000007e-01,6.991083174939999312e-02,-2.563483476640000092e+00,0.000000000000000000e+00
2.730100833999999921e+00,-1.329528355839999954e+01,2.162276379940000215e+00,-2.378926203479999835e+00,-3.105938434600000186e-01,-2.236417233940000138e-01,-2.650601148609999846e+00,0.000000000000000000e+00
2.735070432000000107e+00,-1.319411567880000113e+01,2.162277402850000030e+00,-2.708075594129999875e+00,-3.834899961949999603e-01,-4.650944769380000454e-01,-2.684994697570000088e+00,0.000000000000000000e+00
2.740032053999999828e+00,-1.310081312569999845e+01,2.041204068669999927e+00,-3.315624139140000537e+00,-4.510395228859999661e-01,-7.096420526500000214e-01,-2.702161073679999692e+00,0.000000000000000000e+00
2.744957695000000086e+00,-1.300445819930000013e+01,1.923968559079999974e+00,-4.008208051880000511e+00,-5.161067843440000358e-01,-8.911651968960000447e-01,-2.678598880770000079e+00,0.000000000000000000e+00
2.750098484000000010e+00,-1.269089143160000077e+01,1.791431581599999934e+00,-4.777605447440000042e+00,-5.586687326429999878e-01,-1.042890429500000105e+00,-2.673023223880000021e+00,0.000000000000000000e+00
2.755034624999999959e+00,-1.236000177309999870e+01,1.735643351140000235e+00,-5.565188488040000436e+00,-6.100599765779999295e-01,-1.134288191800000067e+00,-2.637641429899999945e+00,0.000000000000000000e+00
2.760078449999999961e+00,-1.180336040859999969e+01,1.847020051699999943e+00,-6.237558172530000000e+00,-6.413048505780000186e-01,-1.200037598610000034e+00,-2.636684894559999659e+00,0.000000000000000000e+00
2.765100471999999865e+00,-1.001692005940000030e+01,-1.768582913190000161e+00,-1.606175201250000129e+01,-7.591540813449999536e-01,-1.127112388610000071e+00,-2.659088850019999839e+00,0.000000000000000000e+00
2.770010422999999999e+00,-1.180003681710000052e+01,4.549553647659999811e+00,-8.349421731439999661e+00,-1.134466767309999957e+00,-2.461911916729999650e+00,-2.872976064679999997e+00,0.000000000000000000e+00
2.775037230000000132e+00,3.281962108040000103e+00,-2.219221817609999814e+00,3.393083810920000110e-01,-1.304817438129999951e+00,-1.955801844600000061e+00,-2.690864324570000132e+00,0.000000000000000000e+00
2.780049137999999864e+00,3.254256062730000121e+00,-1.089161045170000008e+00,-7.172423193670000252e+00,-1.159179806710000094e+00,-2.031649351120000002e+00,-2.791575431819999675e+00,0.000000000000000000e+00
2.784891716999999822e+00,1.365049166549999970e+00,7.312531044800000268e-01,-9.543481294130000236e+00,-1.176867723460000015e+00,-2.276482582090000317e+00,-2.563295364380000052e+00,0.000000000000000000e+00
2.790026748999999917e+00,3.984138609499999983e+00,4.934733991480000359e-01,-1.595873704369999935e+01,-1.130958318710000077e+00,-2.093717098239999963e+00,-2.128103017809999997e+00,0.000000000000000000e+00
2.794974342000000167e+00,1.006335097120000022e+01,1.426505359639999915e+00,-1.750826365680000052e+01,-9.724320769310000889e-01,-2.276178598400000030e+00,-2.199876308439999928e+00,0.000000000000000000e+00
2.800022143000000074e+00,8.646919992419999090e+00,3.380130221320000405e+00,-1.498880713890000038e+01,-1.008584499359999942e+00,-2.686562776570000199e+00,-2.236829280849999879e+00,0.000000000000000000e+00
2.804960121000000139e+00,3.591247837440000090e+00,4.401820708480000732e+00,-1.214255729210000112e+01,-1.322204351429999925e+00,-3.031280994420000319e+00,-2.098323583600000042e+00,0.000000000000000000e+00
2.810041083999999856e+00,-1.061253559000000068e+00,4.145523641939999671e+00,-1.213764380109999941e+01,-1.678174138070000154e+00,-3.568760156630000679e+00,-1.848073601720000125e+00,0.000000000000000000e+00
2.815072094000000025e+00,-6.062340137309999655e+00,5.875709312200000589e+00,-1.068013613109999937e+01,-1.840792775149999949e+00,-4.025897026059999995e+00,-1.738533020019999986e+00,0.000000000000000000e+00
2.820088111000000008e+00,-9.442212876739999317e+00,8.901037961349999250e+00,-1.021135308270000053e+01,-1.677204847340000082e+00,-4.183041095730000158e+00,-1.780145525929999861e+00,0.000000000000000000e+00
2.825053413000000013e+00,-1.091537228940000048e+01,1.095067974960000079e+01,-1.021944403470000040e+01,-1.241615533829999896e+00,-3.971656799319999820e+00,-1.646121978760000104e+00,0.000000000000000000e+00
2.830121687000000108e+00,-8.645399066459999560e+00,1.249640346320000006e+01,-1.207541209359999890e+01,-7.749708294869999126e-01,-3.695971488949999717e+00,-1.518307089809999955e+00,0.000000000000000000e+00
2.835094130999999962e+00,-1.001690486179999873e+01,1.178441488510000035e+01,-1.310640349310000019e+01,-2.273881435389999983e-01,-2.966166019440000134e+00,-1.055705547329999883e+00,0.000000000000000000e+00
2.840182972000000028e+00,-7.585387324210000060e+00,9.178651956679999557e+00,-1.336105980660000014e+01,1.578345894810000150e-01,-2.424699544910000171e+00,-6.850710511210000853e-01,0.000000000000000000e+00
2.845064409999999988e+00,-5.176373294850000306e+00,7.255214874129999991e+00,-1.320731067589999874e+01,3.409970402720000071e-01,-2.071023225779999866e+00,-3.300377130509999923e-01,0.000000000000000000e+00
2.850075401999999869e+00,-3.489093284860000033e+00,5.978267184869999973e+00,-1.186365501049999871e+01,3.651179671289999651e-01,-1.972116827959999652e+00,-9.913730621339998661e-02,0.000000000000000000e+00
2.855028899000000120e+00,-2.188159155350000162e+00,4.429923644150000506e+00,-1.081854156220000007e+01,3.416978120800000518e-01,-2.095137834550000022e+00,4.044966027140000503e-02,0.000000000000000000e+00
2.860095084000000121e+00,-1.653935520399999914e+00,3.192043352179999793e+00,-9.725899469979999878e+00,4.045392274859999637e-01,-2.247546911240000167e+00,2.701817452909999889e-02,0.000000000000000000e+00
2.865045106000000175e+00,-1.355074154380000007e+00,1.906306645659999743e+00,-9.288636764489998754e+00,5.481003522869999367e-01,-2.408632755279999760e+00,-1.110140010710000125e-01,0.000000000000000000e+00
2.870009560999999820e+00,-1.277362992060000035e+00,-2.123577158389999830e-02,-9.094373837060000909e+00,6.879045367239999820e-01,-2.520000934600000075e+00,-2.916299402710000321e-01,0.000000000000000000e+00
2.874995783000000138e+00,-1.292395141489999899e+00,-2.117439313219999786e+00,-9.253069192019999889e+00,7.669495940209999363e-01,-2.508898258209999899e+00,-4.303258955479999370e-01,0.000000000000000000e+00
2.880047868000000122e+00,-8.855887298630000792e-01,-3.568174128099999898e+00,-1.007851931419999936e+01,7.292428016660000845e-01,-2.481920480729999934e+00,-4.916583895680000094e-01,0.000000000000000000e+00
2.885043028000000120e+00,-1.505096665800000233e+00,-3.694009123730000343e+00,-1.148787056380000138e+01,5.234237909319999771e-01,-2.533175706859999821e+00,-4.817416667939999897e-01,0.000000000000000000e+00
2.889971848000000065e+00,-2.941458525809999891e+00,-4.234342912119999802e+00,-1.313493283740000095e+01,3.544059395790000178e-02,-2.616851091379999605e+00,-3.600907623769999955e-01,0.000000000000000000e+00
2.895028013000000122e+00,-5.661479701540000242e+00,-5.258099976419999599e+00,-1.381385384329999866e+01,-4.612187445159999788e-01,-2.667005062099999879e+00,-6.828427314759999422e-02,0.000000000000000000e+00
2.900037707000000076e+00,-1.126011044050000010e+01,-1.424771667720000190e+00,-1.518189926900000053e+01,-9.129317402840000373e-01,-2.725192308430000043e+00,2.430717945099999666e-01,0.000000000000000000e+00
2.905041107999999817e+00,-1.605137090380000231e+01,6.143284874729999512e-01,-1.343226158710000107e+01,-1.154487490650000003e+00,-2.565079689030000054e+00,3.521593809130000308e-01,0.000000000000000000e+00
2.910045096999999803e+00,-1.603651586450000011e+01,4.034188332840000363e-02,-1.147019462190000105e+01,-1.025311946870000046e+00,-2.052867650990000126e+00,4.139070212839999763e-01,0.000000000000000000e+00
2.915017939999999808e+00,-1.004094274000000020e+01,1.060466500280000002e+00,-1.139671086799999955e+01,-6.313045024869999855e-01,-1.087463855740000040e+00,4.229789078239999944e-01,0.000000000000000000e+00
2.920043036000000036e+00,-3.840279881409999874e+00,4.396480662630000147e-01,-9.808387199060000228e+00,-2.786760032180000124e-01,-1.038590222600000029e-01,3.953539729119999735e-01,0.000000000000000000e+00
2.925081007999999816e+00,-1.362536306949999831e+00,-4.329857588289999781e-01,-9.511633618970000370e+00,-1.291206181050000013e-01,4.796211123470000004e-01,4.289799928670000040e-01,0.000000000000000000e+00
