t,ax,ay,az,wx,wy,wz,zv
5.088760999999999805e-03,-2.606653739750000032e+00,1.727124090729999784e-01,-9.458321715500000337e+00,5.747094284739999275e-03,5.092405714090000174e-03,2.600464504209999955e-03,1.000000000000000000e+00
1.006314699999999972e-02,-2.611913559970000076e+00,1.405835697510000037e-01,-9.467129291330000029e+00,-6.192676257340000261e-03,-1.294969860460000108e-02,2.739164046940000159e-03,1.000000000000000000e+00
1.494210299999999998e-02,-2.619631002479999804e+00,1.600797767920000003e-01,-9.423601115249999438e+00,1.196158933450000138e-03,-5.080678965899999670e-03,-5.777120590210000836e-03,1.000000000000000000e+00
2.006673900000000010e-02,-2.663108032899999866e+00,1.145077559909999931e-01,-9.469600065359999874e+00,1.607473939660000045e-02,5.526352673770000730e-03,4.384856205430000611e-03,1.000000000000000000e+00
2.499209800000000078e-02,-2.587554779259999993e+00,1.265541036839999967e-01,-9.435092231080000502e+00,2.316319849340000084e-03,1.289735781029999976e-03,-3.086324082689999911e-03,1.000000000000000000e+00
2.990572500000000106e-02,-2.609210146230000138e+00,1.741069321709999840e-01,-9.448969365259999975e+00,1.218438893559999937e-02,1.852883258829999798e-03,-1.317475922410000187e-02,1.000000000000000000e+00
3.510238899999999773e-02,-2.634959212259999628e+00,1.607520134980000015e-01,-9.475459897300000378e+00,-4.268759395930000165e-03,2.819091314450000024e-03,-4.182755481450000333e-03,1.000000000000000000e+00
4.007557700000000112e-02,-2.624402746929999974e+00,1.386395138779999980e-01,-9.424802892260000675e+00,7.557815406470000733e-03,-7.233841344710000530e-03,-7.393970154230000008e-03,1.000000000000000000e+00
4.492319000000000173e-02,-2.575604521490000298e+00,1.143047168330000030e-01,-9.458886363639999573e+00,-4.306586924939999859e-03,-1.512313261630000155e-03,2.589072100820000340e-04,1.000000000000000000e+00
5.007343200000000105e-02,-2.602834765979999965e+00,1.361291110929999937e-01,-9.433588256260000193e+00,4.001846536989999217e-03,-1.876661740240000154e-02,-6.050589494410000234e-03,1.000000000000000000e+00
5.510043500000000316e-02,-2.658556068679999829e+00,1.742158724379999912e-01,-9.440339484080000787e+00,9.661001153290001142e-03,3.139803418889999548e-03,4.152643959969999458e-03,1.000000000000000000e+00
6.007006899999999677e-02,-2.601619252709999941e+00,1.767227954919999844e-01,-9.421551196980001208e+00,-2.616542624309999986e-04,-1.543634757399999988e-02,-9.745724499230000101e-03,1.000000000000000000e+00
6.502333899999999944e-02,-2.673208571149999990e+00,1.469679370260000006e-01,-9.430412548830000574e+00,1.771916635329999837e-02,1.619431888679999983e-03,4.667979199439999290e-03,1.000000000000000000e+00
6.990545600000000470e-02,-2.603221134950000071e+00,1.555702817440000052e-01,-9.390478013330000095e+00,1.190002821390000014e-02,-6.427632644769999508e-03,-6.714764516800000166e-03,1.000000000000000000e+00
7.501647300000000018e-02,-2.620245334990000341e+00,1.243291576429999962e-01,-9.418303593360001003e+00,9.298752062020000653e-03,1.173238176849999981e-02,1.268586143849999986e-03,1.000000000000000000e+00
8.005895000000000372e-02,-2.606863583109999993e+00,1.497848484769999933e-01,-9.506357139869999529e+00,-2.533963997849999973e-04,1.144262962039999977e-02,-4.807015415280000044e-03,1.000000000000000000e+00
8.494984299999999711e-02,-2.646489198789999886e+00,1.423071604070000051e-01,-9.437709135580000464e+00,-5.974064581100000000e-03,5.660094320770000685e-04,-1.015692716460000165e-03,1.000000000000000000e+00
8.988314599999999710e-02,-2.634101426379999999e+00,2.255085267749999955e-01,-9.440942710669999016e+00,1.539239566770000088e-02,9.399109520020000261e-03,8.019513916219999858e-04,1.000000000000000000e+00
9.491618799999999856e-02,-2.655347043509999949e+00,1.208707882169999942e-01,-9.447876309330000666e+00,1.879292167720000156e-02,-1.980986446140000062e-03,3.783726133409999796e-04,1.000000000000000000e+00
1.000209710000000002e-01,-2.629605868529999668e+00,1.468858299670000034e-01,-9.451439554769999418e+00,1.724528335030000095e-02,-7.138369604950000127e-03,4.120655823499999940e-03,1.000000000000000000e+00
1.050735309999999978e-01,-2.679350434909999912e+00,1.721392853599999773e-01,-9.428338665169999189e+00,2.547134179619999807e-03,1.435745507479999940e-02,2.249015122649999920e-02,1.000000000000000000e+00
1.098826080000000066e-01,-2.572563838620000265e+00,1.469339982239999953e-01,-9.448844277580001005e+00,2.810022560880000124e-04,3.153563709930000056e-03,-6.506840698420000499e-03,1.000000000000000000e+00
1.149272499999999947e-01,-2.635516553879999613e+00,1.447112167410000150e-01,-9.430933357829999863e+00,6.914821919049999981e-03,-7.485637906939999076e-04,-3.399971406909999948e-03,1.000000000000000000e+00
1.198273779999999983e-01,-2.612632521900000171e+00,1.207937135260000044e-01,-9.448469014530001431e+00,1.239748788069999818e-03,-2.908320166169999681e-04,-1.523181237280000003e-02,1.000000000000000000e+00
1.249693929999999981e-01,-2.669391643209999998e+00,1.472829395259999952e-01,-9.416053768610000319e+00,-2.011710777880000318e-03,2.092991024259999860e-02,-3.959584049879999804e-03,1.000000000000000000e+00
1.299177470000000001e-01,-2.607909585029999811e+00,1.027382159459999944e-01,-9.455492045030000625e+00,2.349635399879999864e-02,7.218850776550000264e-03,3.604622557760000547e-03,1.000000000000000000e+00
1.349278120000000081e-01,-2.626706639960000089e+00,1.230110973149999981e-01,-9.455229010180000060e+00,-1.006945874540000029e-02,3.395572071899999756e-03,1.359865069390000028e-02,1.000000000000000000e+00
1.399025489999999872e-01,-2.598447636940000027e+00,1.622277668719999955e-01,-9.475814702090000097e+00,4.924133885649999327e-03,4.146536812190000296e-03,-1.126379705970000089e-02,1.000000000000000000e+00
1.448684169999999993e-01,-2.609141464909999986e+00,1.226832079340000048e-01,-9.486696746110000689e+00,-1.254379400049999982e-03,1.145776128400000093e-03,-2.343255095179999983e-03,1.000000000000000000e+00
1.500643040000000095e-01,-2.686033565929999867e+00,1.611049368549999916e-01,-9.464156997519999948e+00,6.255172193050000280e-03,5.840936675670000550e-03,2.234132960439999885e-02,1.000000000000000000e+00
1.550938299999999881e-01,-2.584841136390000127e+00,1.434399181630000020e-01,-9.435949724689999485e+00,-3.871351014820000134e-03,1.357484795149999958e-02,5.084923934189999536e-03,1.000000000000000000e+00
1.599081499999999989e-01,-2.605949975390000173e+00,1.335863038749999787e-01,-9.478574229930000428e+00,6.398519501089999437e-03,-2.820361405610000410e-03,-5.821970291439998967e-03,1.000000000000000000e+00
1.649602629999999959e-01,-2.606341020540000386e+00,1.124115326309999968e-01,-9.442097725930000962e+00,1.416649948810000045e-02,-5.356796085829999832e-03,-5.018507130440000123e-03,1.000000000000000000e+00
1.699127820000000122e-01,-2.575718795520000270e+00,1.408121817419999977e-01,-9.447855851059999921e+00,1.637070067229999884e-02,-5.335467867549999708e-03,-6.181718781590000295e-03,1.000000000000000000e+00
1.749708409999999881e-01,-2.608584707809999959e+00,6.814437475039999970e-02,-9.477196511839999005e+00,-6.092033814639999725e-03,2.342763124030000123e-03,-1.074888557199999914e-02,1.000000000000000000e+00
1.799003409999999914e-01,-2.606022456109999830e+00,6.910773075669998655e-02,-9.480037872739998761e+00,4.935031756760000464e-03,2.031264593820000190e-03,1.205460913479999840e-02,1.000000000000000000e+00
1.849575810000000098e-01,-2.560626732589999843e+00,8.847221944280000971e-02,-9.454227139660000390e+00,6.145679857579999447e-03,-6.540282629430000869e-03,-3.953947220000000179e-03,1.000000000000000000e+00
1.899331380000000014e-01,-2.592324185619999888e+00,8.726340990860000091e-02,-9.446566395770000568e+00,-8.106220513580000495e-03,1.429493539039999872e-02,8.401857689020001199e-03,1.000000000000000000e+00
1.948694659999999912e-01,-2.613163267770000076e+00,1.397937619469999948e-01,-9.440974859380000694e+00,-1.119871903210000082e-02,-8.603048045189999170e-04,1.047064736489999870e-02,1.000000000000000000e+00
1.998729929999999988e-01,-2.572414201019999958e+00,6.536451194069999027e-02,-9.504746197539999386e+00,-1.685772556809999895e-03,-1.763762533659999840e-02,1.058336347339999817e-02,1.000000000000000000e+00
2.050685610000000103e-01,-2.520297937070000049e+00,2.441285583360000219e-02,-9.537333877410000937e+00,-5.366844590750000088e-03,1.124227140100000043e-02,1.668401435020000143e-02,1.000000000000000000e+00
2.099068610000000001e-01,-2.526792559790000059e+00,2.999312876749999843e-02,-9.448646709180000158e+00,1.549681555479999820e-02,-2.552905119959999677e-02,1.833705976609999871e-02,1.000000000000000000e+00
2.149696919999999900e-01,-2.582713184449999755e+00,5.757025503499999669e-02,-9.434898754330001580e+00,1.069709286090000065e-02,-2.531970478589999976e-02,3.411216288809999775e-02,1.000000000000000000e+00
2.199398899999999990e-01,-2.634958335470000357e+00,1.564964566790000011e-01,-9.434016126279999526e+00,1.272942405190000126e-02,-1.734968274830000004e-02,4.867333173749999881e-02,1.000000000000000000e+00
2.249913410000000114e-01,-2.614632755800000208e+00,2.840594451440000001e-01,-9.412578785980000973e+00,8.527345024050000249e-03,-4.728670418259999647e-02,3.748258575800000186e-02,1.000000000000000000e+00
2.299077870000000023e-01,-2.652839736859999853e+00,2.830410984139999919e-01,-9.414612922150000784e+00,-3.843248356130000119e-03,-1.818738132720000220e-02,1.890662126240000296e-02,1.000000000000000000e+00
2.349612409999999874e-01,-2.650181039050000020e+00,1.782647642370000229e-01,-9.410259987639999935e+00,2.999942749739999918e-03,-3.797949478030000076e-02,1.947477646170000035e-02,1.000000000000000000e+00
2.401031409999999922e-01,-2.651577169579999893e+00,9.865031644480001805e-02,-9.392418041479999147e+00,2.524257078770000134e-02,-2.347408607600000308e-02,3.171312808990000426e-02,1.000000000000000000e+00
2.449467329999999998e-01,-2.536086165569999995e+00,4.553180752119999342e-02,-9.448172077409999758e+00,2.641209866850000032e-03,-2.043378539379999900e-02,2.786531113089999942e-02,1.000000000000000000e+00
2.500813669999999989e-01,-2.513947691259999839e+00,5.185924441890000895e-03,-9.544268060589999436e+00,1.914062537250000098e-02,-3.602712973950000092e-02,5.009518191219999167e-02,1.000000000000000000e+00
2.549154980000000181e-01,-2.466705170830000071e+00,-5.561780579300000527e-02,-9.548288986669998479e+00,1.634284481410000142e-02,-5.360374599700000464e-02,6.360770761969999909e-02,1.000000000000000000e+00
2.600940729999999812e-01,-2.485880119159999957e+00,1.185343720260000067e-02,-9.466395716360000989e+00,3.258138522509999857e-02,-9.032790362829999642e-02,6.501199305060000044e-02,1.000000000000000000e+00
2.649403040000000153e-01,-2.596488611819999903e+00,2.051099412339999969e-02,-9.457244441660000334e+00,3.314564377069999929e-02,-9.972681850189998864e-02,8.692646771669998440e-02,1.000000000000000000e+00
2.700878540000000161e-01,-2.554087686209999930e+00,1.077763105780000091e-01,-9.538223519729999822e+00,3.405603393909999860e-02,-1.240362897519999980e-01,9.456579387189999186e-02,1.000000000000000000e+00
2.749789489999999725e-01,-2.688073839589999903e+00,2.853910042749999709e-01,-9.415964336760001885e+00,4.691473022099999779e-02,-1.381510645150000050e-01,9.651678800580000550e-02,1.000000000000000000e+00
2.799243040000000127e-01,-2.766183499709999438e+00,4.216952070730000113e-01,-9.370252971419999355e+00,3.968489170069999794e-02,-1.460476964709999936e-01,9.373684972519999437e-02,1.000000000000000000e+00
2.849566230000000200e-01,-2.822691276610000077e+00,3.902810279599999710e-01,-9.474056460249999034e+00,2.259596250949999843e-02,-1.407499164340000053e-01,6.138788536190000616e-02,1.000000000000000000e+00
2.899224610000000202e-01,-2.660506325970000141e+00,2.480869999379999857e-01,-9.319680137529999797e+00,1.011780090629999830e-02,-8.722429722549998599e-02,6.003524735569999715e-02,1.000000000000000000e+00
2.949534790000000184e-01,-2.969038898909999613e+00,5.272604814050000366e-01,-9.355233096950000160e+00,2.077749371529999736e-02,-8.872365951539998297e-02,5.168703943490000202e-02,1.000000000000000000e+00
3.000910050000000218e-01,-2.697072554080000018e+00,2.577251996440000359e-01,-9.336640040160000709e+00,1.832699030640000393e-02,-5.344578623769999370e-02,3.056332282719999988e-02,1.000000000000000000e+00
3.049305350000000026e-01,-2.739279126170000023e+00,2.539876570829999736e-01,-9.351275883750000517e+00,-4.442935343829999481e-03,-4.672799631950000365e-02,3.701286762949999865e-02,1.000000000000000000e+00
3.099440769999999845e-01,-2.781210972969999862e+00,2.450535870589999887e-01,-9.313358533289999741e+00,2.141471020879999812e-02,-5.153421685100000038e-02,2.882223390040000027e-02,1.000000000000000000e+00
3.149939959999999983e-01,-2.736329628710000073e+00,3.108199897650000265e-01,-9.372585798280001157e+00,-5.128297954799999891e-03,-3.763449937109999976e-02,4.457595944400000176e-02,1.000000000000000000e+00
3.199392999999999820e-01,-2.581421683340000328e+00,2.975065721460000145e-01,-9.493620407889999058e+00,-4.674095660449999884e-03,-4.419210553169999195e-02,3.414015844459999949e-02,1.000000000000000000e+00
3.249463930000000000e-01,-2.588491183329999945e+00,3.291781418189999586e-01,-9.531752277889999903e+00,7.615634705870000069e-03,-5.972559377550000492e-02,4.338492080569999326e-02,1.000000000000000000e+00
3.299132029999999882e-01,-2.550059453609999860e+00,3.253323896440000196e-01,-9.427834222779999607e+00,1.905674859879999752e-02,-7.608463615180000028e-02,3.132093325259999866e-02,1.000000000000000000e+00
3.349723190000000184e-01,-2.664318577730000026e+00,2.105141155320000013e-01,-9.386050260010000201e+00,2.190505340700000039e-02,-9.416064620019999609e-02,4.980478063230000391e-02,1.000000000000000000e+00
3.401094370000000144e-01,-2.629287304100000000e+00,1.491953033520000138e-01,-9.340358768419999791e+00,2.141673862929999866e-02,-9.393075108529999606e-02,3.106806613499999911e-02,1.000000000000000000e+00
3.449396189999999751e-01,-2.744892582139999870e+00,1.045024034739999996e-01,-9.309464448459999986e+00,1.800343208009999932e-02,-9.843693673610000305e-02,3.740495443340000059e-02,1.000000000000000000e+00
3.499573659999999919e-01,-2.779550930799999708e+00,7.569825616210000552e-02,-9.351350702550000449e+00,6.336208432909999806e-03,-8.412606269120000146e-02,4.647269472479999969e-02,1.000000000000000000e+00
3.549482820000000038e-01,-2.756849561909999746e+00,1.154571017380000147e-01,-9.299835619369998696e+00,2.460588235409999752e-03,-9.075082093479999723e-02,3.521730005740000141e-02,1.000000000000000000e+00
3.601163880000000095e-01,-2.711401523679999759e+00,2.032726199709999904e-01,-9.300853856499999850e+00,-4.542627837510000190e-03,-6.585023552179999906e-02,2.833473496139999812e-02,1.000000000000000000e+00
3.651135799999999931e-01,-2.840920468519999798e+00,3.555515868190000095e-01,-9.332839478829999535e+00,3.920937422659999221e-03,-5.118926987049999405e-02,4.354845732450000201e-02,1.000000000000000000e+00
3.700939220000000196e-01,-2.757107043800000046e+00,4.502654679970000129e-01,-9.352433237090000517e+00,-3.238792996849999568e-03,-5.008466541770000002e-02,5.461066588759999618e-02,1.000000000000000000e+00
3.749887949999999859e-01,-2.669834418539999810e+00,4.231136225039999754e-01,-9.315029096849999135e+00,-6.973139941689999143e-03,-7.005799561740000403e-02,3.809153288599999992e-02,1.000000000000000000e+00
3.799071459999999734e-01,-2.792487861530000171e+00,3.256268425459999949e-01,-9.347449018939999021e+00,1.105807814749999902e-02,-5.420215055350000033e-02,3.749225288630000236e-02,0.000000000000000000e+00
3.849762589999999873e-01,-2.759784154059999661e+00,3.086616061549999901e-01,-9.379806981710000713e+00,-4.601784050460000150e-03,-3.838634118440000659e-02,2.490640804169999903e-02,0.000000000000000000e+00
3.899534969999999823e-01,-2.758929875320000225e+00,4.401608015580000255e-01,-9.418141096279999402e+00,4.402370657769999994e-03,-5.912758782510000449e-02,3.976752236489999870e-02,0.000000000000000000e+00
3.949602700000000022e-01,-2.712926249030000125e+00,4.806905264749999906e-01,-9.411049676710000256e+00,-1.599594019350000090e-03,-6.914728134869999043e-02,2.724969759579999942e-02,0.000000000000000000e+00
3.999468130000000121e-01,-2.762862246330000104e+00,2.316979012009999783e-01,-9.467033429739998951e+00,2.600820921359999968e-02,-5.242299288509999489e-02,2.828724868600000081e-02,1.000000000000000000e+00
4.050639500000000059e-01,-2.774423797049999862e+00,1.097908835370000058e-01,-9.405892440080000583e+00,2.756037376819999926e-02,-4.568188264970000217e-02,2.453837171200000042e-02,1.000000000000000000e+00
4.099425600000000114e-01,-2.781677129179999763e+00,1.005184392710000152e-01,-9.364977076849999804e+00,3.929738700390000145e-02,-4.862948134540000245e-02,4.033403843640000208e-02,1.000000000000000000e+00
4.151537750000000027e-01,-2.639965057720000008e+00,3.709072919550000097e-02,-9.373074458579999657e+00,2.961553819479999933e-02,-4.701533913610000254e-02,2.909413166340000037e-02,1.000000000000000000e+00
4.199214800000000136e-01,-2.520017658820000062e+00,-1.624026850479999839e-01,-9.416153721849999769e+00,1.150615792720000030e-02,-3.640508651730000461e-02,2.576032280920000431e-02,1.000000000000000000e+00
4.249418660000000014e-01,-2.594119252340000070e+00,-4.395907100520000110e-01,-9.439187975960001253e+00,8.697259239849999823e-03,-5.497620627280000449e-02,3.899499773980000250e-02,1.000000000000000000e+00
4.299181490000000272e-01,-2.603698104809999858e+00,-4.880773487910000097e-01,-9.415556925000000632e+00,-2.195531688629999770e-02,-5.844303965570000342e-02,4.639072343709999685e-02,1.000000000000000000e+00
4.349814920000000251e-01,-2.783353245689999866e+00,-2.791475433080000124e-01,-9.404344626120000328e+00,-2.607175707820000299e-02,-5.745600908990000644e-02,4.829431697730000167e-02,1.000000000000000000e+00
4.401226850000000135e-01,-2.744083311579999851e+00,-1.027769770539999905e-01,-9.350608944279999335e+00,-5.421679094430000706e-02,-5.868903920049999695e-02,4.879334941510000273e-02,1.000000000000000000e+00
4.449370750000000152e-01,-2.793181981270000502e+00,-9.154778411339999089e-03,-9.399539271660000139e+00,-7.560814917090000198e-02,-6.145600602030000525e-02,6.284315139059999666e-02,1.000000000000000000e+00
4.500940529999999939e-01,-2.785430051970000154e+00,7.802300474869999780e-02,-9.377408103869999678e+00,-7.159849256280000074e-02,-5.356961488719999553e-02,5.049176514150000017e-02,1.000000000000000000e+00
4.551218020000000197e-01,-2.836488331289999998e+00,1.321775695890000102e-01,-9.451121574860000152e+00,-5.602218955760000091e-02,-3.694137930869999947e-02,5.290927365419999945e-02,1.000000000000000000e+00
4.599503739999999952e-01,-2.816954778780000002e+00,1.533748905919999905e-01,-9.469596558230000127e+00,-4.782314226030000281e-02,-3.124893829229999712e-02,5.283167213200000434e-02,1.000000000000000000e+00
4.650755699999999937e-01,-2.789348686719999915e+00,6.764430714060000460e-02,-9.461915940599999075e+00,-6.819160282609999790e-02,-5.095322430130000413e-02,6.118808314199999931e-02,1.000000000000000000e+00
4.699233210000000049e-01,-2.612589559540000383e+00,7.649233828239998577e-04,-9.571763970279999256e+00,-5.428600311279999785e-02,-4.873814433810000346e-02,5.191181972620000085e-02,0.000000000000000000e+00
4.749802550000000179e-01,-2.532217507439999959e+00,-3.925021563419999610e-02,-9.471305115710000777e+00,-5.246120691299999833e-02,-5.799000710249999774e-02,6.492896378040000083e-02,1.000000000000000000e+00
4.799580649999999893e-01,-2.706668065420000158e+00,-1.924104496950000080e-03,-9.342038684330001175e+00,-4.162865132089999670e-02,-8.175759762529999364e-02,9.238574653860000263e-02,1.000000000000000000e+00
4.851059589999999755e-01,-2.746178530290000364e+00,4.938264686359999933e-02,-9.361215093960000289e+00,-3.820727765559999572e-02,-1.084386408330000051e-01,9.343799203630000216e-02,1.000000000000000000e+00
4.899231609999999959e-01,-2.696469327490000012e+00,8.886099956469999117e-02,-9.452384726660000069e+00,-6.218964606519999938e-02,-1.046677157279999881e-01,9.375141561030000958e-02,1.000000000000000000e+00
4.949403230000000153e-01,-2.489092651470000028e+00,-1.309226284910000038e-01,-9.459085101090000336e+00,-6.143378466369999596e-02,-1.221723705529999954e-01,1.122271940110000088e-01,0.000000000000000000e+00
5.000716130000000259e-01,-2.355476354309999909e+00,-3.796826962520000182e-01,-9.429722812999999704e+00,-5.821305140849999948e-02,-1.513577252630000092e-01,1.228548064829999981e-01,1.000000000000000000e+00
5.049764410000000536e-01,-2.406991437490000330e+00,-3.386305914280000606e-01,-9.369625194910000232e+00,-4.996923357250000058e-02,-1.416061669589999961e-01,1.468028724190000023e-01,1.000000000000000000e+00
5.100980600000000198e-01,-2.545467741900000025e+00,-1.369530403620000114e-01,-9.474165181320000073e+00,-6.370142102239999271e-02,-1.770193129779999985e-01,1.874971538780000058e-01,0.000000000000000000e+00
5.149488679999999485e-01,-2.454776248109999948e+00,-2.610837802229999845e-04,-9.460189847460000578e+00,-6.817793101069999362e-02,-2.325458526610000021e-01,2.125634551049999932e-01,0.000000000000000000e+00
5.200867310000000243e-01,-2.632853472149999874e+00,4.666652433930000565e-02,-9.348163304689999009e+00,-6.067301705480000057e-02,-2.419278919699999753e-01,2.204136699439999958e-01,0.000000000000000000e+00
5.250612609999999458e-01,-2.898468402129999788e+00,-1.792792567749999788e-01,-9.318291313519999619e+00,-6.849732995030000104e-02,-2.761631906029999861e-01,2.247307449579999949e-01,0.000000000000000000e+00
5.301108490000000506e-01,-3.128190473209999656e+00,1.412740316670000121e-03,-9.284481982899999153e+00,-6.600867956880000775e-02,-2.506948709490000038e-01,2.329607158900000030e-01,0.000000000000000000e+00
5.349080689999999860e-01,-3.067060297200000285e+00,3.375434172460000104e-01,-9.331619581649999162e+00,-9.877125918870000021e-02,-2.011919617650000103e-01,2.199191600079999920e-01,0.000000000000000000e+00
5.400847309999999846e-01,-3.152196202699999894e+00,5.139210708279999817e-01,-9.333547919360000833e+00,-1.056981086730000019e-01,-1.841454505919999929e-01,1.991913169619999868e-01,0.000000000000000000e+00
5.450143079999999474e-01,-3.137650375469999808e+00,4.461466710340000197e-01,-9.309513548299999997e+00,-9.273298829789999864e-02,-1.424521356819999918e-01,1.972636282440000111e-01,0.000000000000000000e+00
5.500934840000000214e-01,-3.056916212069999972e+00,2.297334875259999798e-01,-9.271913593220000749e+00,-1.101202815770000037e-01,-1.021097302439999965e-01,1.914184093480000015e-01,0.000000000000000000e+00
5.549528009999999956e-01,-3.177555392620000418e+00,2.273493688679999736e-01,-9.313169148200000080e+00,-9.473248571159999243e-02,-6.471709162000000015e-02,1.969361752269999932e-01,0.000000000000000000e+00
5.600885119999999828e-01,-3.277167859500000002e+00,3.917951953830000056e-01,-9.330904126849999258e+00,-9.272534400219999140e-02,-6.196834519509999972e-02,1.880545020099999853e-01,0.000000000000000000e+00
5.649167130000000148e-01,-3.282309898559999883e+00,5.865811603039999822e-01,-9.378929614349999611e+00,-8.564802259209999824e-02,-6.257131695749999778e-02,1.625411063429999803e-01,0.000000000000000000e+00
5.700826679999999591e-01,-3.311123320590000141e+00,7.161525659819999445e-01,-9.412702704620000915e+00,-9.417200088500000954e-02,-4.867284372449999508e-02,1.209433600310000079e-01,1.000000000000000000e+00
5.749833850000000135e-01,-3.418139341719999891e+00,7.296117670139999900e-01,-9.386531906050000984e+00,-8.601717650890000622e-02,-2.844296768309999626e-02,1.126771345729999929e-01,1.000000000000000000e+00
5.801108369999999903e-01,-3.363075918409999421e+00,6.088990828350000495e-01,-9.446967962310001354e+00,-6.154141202569999441e-02,5.301259458069999472e-03,8.436314016580000186e-02,1.000000000000000000e+00
5.849522000000000332e-01,-3.257321587779999916e+00,6.820796890539999602e-01,-9.469585452310001372e+00,-6.228984147310000219e-02,3.382682055229999790e-02,5.452981963750000438e-02,0.000000000000000000e+00
5.901216599999999923e-01,-3.166738815049999989e+00,7.890108814440000007e-01,-9.434427629689999151e+00,-3.360921517010000137e-02,6.595095247030000052e-02,3.862522542479999987e-02,0.000000000000000000e+00
5.949968519999999650e-01,-3.007679595209999501e+00,6.374177597019999864e-01,-9.436367657839999978e+00,-4.332320019600000016e-02,5.574844777580000715e-02,1.539386063810000045e-02,0.000000000000000000e+00
6.000843110000000369e-01,-2.971512303289999934e+00,4.040944492569999991e-01,-9.444078670610000614e+00,-3.199695795770000212e-02,7.518121600150000361e-02,-8.065246045590000398e-03,1.000000000000000000e+00
6.050787810000000100e-01,-3.041475481829999605e+00,4.666216691120000370e-01,-9.380286289660000776e+00,-2.751148305830000002e-02,7.922690361739999354e-02,-1.354480907319999955e-02,0.000000000000000000e+00
6.101095370000000351e-01,-2.995465718069999728e+00,4.691963053729999999e-01,-9.362097722019999679e+00,-3.047485463320000199e-02,9.714372456070000106e-02,-4.790430143479999792e-02,0.000000000000000000e+00
6.151560200000000256e-01,-3.030600452070000284e+00,3.737921403760000594e-01,-9.381185868850000276e+00,-4.321897774930000269e-02,1.286233514550000068e-01,-5.232583731409999606e-02,0.000000000000000000e+00
6.199005509999999664e-01,-3.011317951719999719e+00,2.606128656430000134e-01,-9.395191013319999840e+00,-4.153208807110000261e-02,1.626132577659999967e-01,-5.772133916619999472e-02,0.000000000000000000e+00
6.249134530000000076e-01,-2.971793750579999838e+00,2.155393050169999991e-01,-9.380565106599998870e+00,-5.494643002749999977e-02,2.107995599509999984e-01,-8.292458951469999784e-02,0.000000000000000000e+00
6.299043850000000111e-01,-2.971206598339999783e+00,1.679930889329999955e-01,-9.355492040139999688e+00,-6.323956698179999947e-02,2.298224419359999882e-01,-8.191418647769999062e-02,1.000000000000000000e+00
6.351579960000000025e-01,-2.955499326119999992e+00,2.473484382639999923e-01,-9.399820426689998953e+00,-6.642893701790000827e-02,2.324846982959999919e-01,-9.562917053699999947e-02,1.000000000000000000e+00
6.401059810000000461e-01,-3.031770664900000245e+00,3.300963161099999543e-01,-9.486741169769999260e+00,-8.676824718709999495e-02,2.460580319170000141e-01,-1.046590954069999968e-01,0.000000000000000000e+00
6.449603769999999736e-01,-2.972282703140000315e+00,3.523784366759999953e-01,-9.478160972959999597e+00,-7.679763436319998748e-02,2.507257759570000188e-01,-8.830274641510001132e-02,0.000000000000000000e+00
6.501150079999999942e-01,-2.822152931949999832e+00,3.761605865400000082e-01,-9.441596790669999351e+00,-8.147663623089998475e-02,2.600307464599999618e-01,-1.024628132579999962e-01,0.000000000000000000e+00
6.549922209999999856e-01,-2.820316948690000380e+00,3.333027474690000158e-01,-9.434913367380000082e+00,-8.404771238569999636e-02,2.593792080880000239e-01,-1.038746237749999940e-01,0.000000000000000000e+00
6.601033349999999578e-01,-2.730593715409999955e+00,3.617376550429999837e-01,-9.411437214730000278e+00,-6.610624492169998867e-02,2.383054792880000272e-01,-1.062525212759999893e-01,0.000000000000000000e+00
6.651007030000000153e-01,-2.683552270509999893e+00,3.630094650770000486e-01,-9.384073991499999323e+00,-5.505622923370000199e-02,2.284387350079999934e-01,-1.106067523359999943e-01,0.000000000000000000e+00
6.699004619999999743e-01,-2.671102538780000035e+00,3.756020028099999464e-01,-9.422443761910001214e+00,-6.010847538709999938e-02,2.303615808489999917e-01,-9.870145469900000468e-02,0.000000000000000000e+00
6.749317740000000398e-01,-2.697347279370000184e+00,3.029353191959999747e-01,-9.446203407680000552e+00,-4.195193946359999232e-02,2.053427845239999827e-01,-8.689735829830000369e-02,0.000000000000000000e+00
6.799085400000000057e-01,-2.644490718450000166e+00,3.427884782930000207e-01,-9.486603807130000732e+00,-5.133977904919999335e-02,1.743990927930000046e-01,-6.829467415810000497e-02,0.000000000000000000e+00
6.849107639999999497e-01,-2.624304839509999709e+00,2.780520031559999827e-01,-9.431942242619999917e+00,-2.407610043879999939e-02,1.415510922669999949e-01,-8.973012864589997861e-02,0.000000000000000000e+00
6.899047649999999754e-01,-2.786488036590000217e+00,2.936641261719999951e-01,-9.444281499710001526e+00,-3.223994374280000214e-02,1.247840896249999970e-01,-6.501139700409999667e-02,1.000000000000000000e+00
6.949074290000000209e-01,-2.598619486370000065e+00,3.266853020900000182e-01,-9.414340534950000006e+00,-2.989129349590000095e-02,8.756199479100000571e-02,-5.893649160860000430e-02,1.000000000000000000e+00
7.000046290000000448e-01,-2.607836227529999995e+00,4.781016059610000424e-01,-9.375857367300000078e+00,-3.268440812829999376e-02,8.316254615779999915e-02,-5.175058171150000164e-02,1.000000000000000000e+00
7.048950299999999780e-01,-2.613358790339999960e+00,4.583909798510000244e-01,-9.455562187660000006e+00,-2.225704025480000278e-03,7.787249982360000544e-02,-4.323880374429999590e-02,1.000000000000000000e+00
7.101078629999999503e-01,-2.652389947270000103e+00,3.546298323319999612e-01,-9.501573997250000403e+00,-1.536411419510000202e-02,5.469119176270000049e-02,-3.163047507410000209e-02,1.000000000000000000e+00
7.149775659999999533e-01,-2.620501647840000281e+00,4.325206986010000088e-01,-9.565815875529999346e+00,7.378923241050000179e-03,6.547556817530000850e-02,-2.839686535300000106e-02,1.000000000000000000e+00
7.199742919999999602e-01,-2.549835289459999821e+00,3.653726870769999913e-01,-9.611819501819999445e+00,1.880860701199999971e-02,6.121785566210000140e-02,-4.106460139159999467e-02,1.000000000000000000e+00
7.249464639999999571e-01,-2.456491819850000091e+00,1.005638219160000096e-01,-9.650329557480000986e+00,2.460712753239999856e-02,6.160289421680000682e-02,-4.133081808690000636e-02,1.000000000000000000e+00
7.299078070000000196e-01,-2.456360010170000052e+00,-4.294820250240000137e-02,-9.735538235940000007e+00,2.441085502510000060e-02,2.974401973190000242e-02,-3.566662222150000089e-02,0.000000000000000000e+00
7.349334419999999923e-01,-2.217876978870000126e+00,-2.026279288600000006e-01,-9.673196053799999916e+00,4.785168170930000076e-02,4.112479276960000554e-03,-3.265044838190000326e-02,1.000000000000000000e+00
7.399512639999999974e-01,-1.988150816130000109e+00,-6.216945592610000348e-01,-9.875299757860000582e+00,5.423160269859999411e-02,-4.336205869910000205e-02,-2.264446811749999938e-03,1.000000000000000000e+00
7.449047570000000285e-01,-2.041242062589999851e+00,-5.714873438080000367e-01,-9.986416200039998969e+00,6.959704309700000258e-02,-8.509153127669999428e-02,5.180915445090000793e-02,1.000000000000000000e+00
7.500964559999999670e-01,-2.046405436699999747e+00,-5.272202955250000489e-01,-1.023576271680000005e+01,1.071676611899999854e-01,-1.781347244979999966e-01,1.031321585180000056e-01,1.000000000000000000e+00
7.549780959999999874e-01,-1.912856651830000088e+00,-2.508510943569999818e-01,-1.055020392930000028e+01,1.142606660720000000e-01,-2.965884804730000157e-01,1.470180898900000088e-01,1.000000000000000000e+00
7.599699269999999895e-01,-1.726828614910000059e+00,-4.626258044089999744e-01,-1.035070543929999864e+01,1.647092998030000033e-01,-4.744642078880000335e-01,1.811277717350000260e-01,1.000000000000000000e+00
7.649905820000000300e-01,-2.279374380749999762e+00,-7.530520446389999956e-01,-1.033665820919999945e+01,1.866894662379999792e-01,-6.973643898960000254e-01,2.059030383830000033e-01,0.000000000000000000e+00
7.697792679999999610e-01,-3.966275620559999826e+00,-1.257538493779999822e+00,-9.547368364689999609e+00,2.106281667949999881e-01,-8.546920418739999414e-01,2.261294126509999780e-01,0.000000000000000000e+00
7.748268280000000230e-01,-4.909854694030000744e+00,-2.512656774669999926e+00,-9.136717771789999887e+00,1.539200693370000039e-01,-8.595426678659999764e-01,2.562472820279999564e-01,0.000000000000000000e+00
7.797972469999999712e-01,-4.401507989269999754e+00,-2.800341205370000086e+00,-9.033424570580001145e+00,2.128468453880000000e-01,-7.795669436450000100e-01,3.006139993670000066e-01,0.000000000000000000e+00
7.849224989999999957e-01,-3.901229147890000526e+00,-3.077632544620000132e+00,-9.991090037070000207e+00,1.809116303920000057e-01,-5.448246598239999683e-01,2.845017910000000039e-01,0.000000000000000000e+00
7.898986609999999464e-01,-4.231747342669999412e+00,-4.641819258900000023e+00,-1.062363507619999936e+01,1.310068666929999903e-01,-2.245247662070000150e-01,3.455935716629999765e-01,0.000000000000000000e+00
7.949700539999999815e-01,-3.989922453600000196e+00,-5.519013012320000300e+00,-1.099589719400000121e+01,-2.715650480239999685e-03,-4.865044727919999590e-02,4.155244231219999973e-01,0.000000000000000000e+00
7.998776779999999809e-01,-3.597545184019999454e+00,-5.754205331510000576e+00,-1.178186753869999848e+01,-2.499748915430000107e-01,2.779555879530000093e-02,4.569633007050000195e-01,0.000000000000000000e+00
8.048855350000000408e-01,-3.588810965680000020e+00,-7.208828970529999935e+00,-1.286934596450000079e+01,-7.242916822430000012e-01,-3.650404885409999634e-02,5.009465217590000075e-01,0.000000000000000000e+00
8.098835229999999941e-01,-3.644141223240000116e+00,-6.942910673689999257e+00,-1.242651334990000045e+01,-1.244744181629999780e+00,-1.487163305279999848e-01,5.159123539919999724e-01,0.000000000000000000e+00
8.149248999999999521e-01,-4.745274080419999763e+00,-6.914526290720000468e+00,-1.247988838180000037e+01,-1.771045446399999834e+00,-3.204410970209999876e-01,5.440382957460000446e-01,0.000000000000000000e+00
8.199462029999999846e-01,-6.538250261109999073e+00,-6.784446204870000052e+00,-1.508273746849999952e+01,-2.135427713390000370e+00,-5.543714165690000195e-01,7.614539265629999276e-01,0.000000000000000000e+00
8.250528990000000062e-01,-1.152633911839999925e+01,-6.766030258209999815e+00,-1.162490119950000000e+01,-2.398528099059999974e+00,-9.354511499400000041e-01,7.693611979479999530e-01,0.000000000000000000e+00
8.300900900000000027e-01,-1.163893323190000118e+01,-5.991641630230000182e+00,-9.825845698860000255e+00,-2.275811910629999879e+00,-9.123942852019999439e-01,8.412936925889999973e-01,0.000000000000000000e+00
8.349791130000000505e-01,-1.162238191009999966e+01,-3.777022337980000533e+00,-1.213352058369999931e+01,-2.080115079880000106e+00,-9.771843552590000481e-01,4.429615437980000126e-01,0.000000000000000000e+00
8.400239430000000507e-01,-1.385165253579999955e+01,-1.985186267240000024e+00,-1.342430156799999885e+01,-1.657581925390000155e+00,-9.476496577259999610e-01,-1.532325297590000079e-01,0.000000000000000000e+00
8.448955350000000308e-01,-1.277458561380000113e+01,-3.175678785090000122e+00,-1.341126789890000026e+01,-1.229408025739999966e+00,-8.828793168070000474e-01,-7.929568886759998936e-01,0.000000000000000000e+00
8.500735109999999484e-01,-9.321056102060000015e+00,-4.840821782069999912e+00,-1.137533607150000137e+01,-6.327533125880000497e-01,-7.465463280679999203e-01,-1.367879033089999918e+00,0.000000000000000000e+00
8.549292509999999456e-01,-6.588831278309999817e+00,-5.310546202980000352e+00,-9.769769591370000228e+00,-1.501386165620000046e-01,-5.851248502729999856e-01,-1.707611918450000044e+00,0.000000000000000000e+00
8.599497900000000472e-01,-3.997378907089999878e+00,-6.323342020540000163e+00,-8.978885171139999954e+00,1.103912442919999931e-01,-6.054060459139999351e-01,-1.800934791559999804e+00,0.000000000000000000e+00
8.650847200000000292e-01,-2.442598611319999780e+00,-6.769371969859999005e+00,-8.320578498799999778e+00,1.938302367929999881e-01,-7.505306005480000264e-01,-1.874587297440000189e+00,0.000000000000000000e+00
8.698996460000000264e-01,-1.811001228330000101e+00,-5.899198324330001242e+00,-7.895285048029999864e+00,9.798400849099998811e-02,-1.084989428520000132e+00,-2.008966684340000253e+00,0.000000000000000000e+00
8.748642359999999618e-01,-1.631640978739999914e+00,-5.105730901869999450e+00,-7.811708939199999868e+00,2.585542202000000109e-02,-1.273798227310000142e+00,-2.142868518829999847e+00,0.000000000000000000e+00
8.798807730000000049e-01,-1.755603166240000235e+00,-4.415654880299999974e+00,-8.200778399419998976e+00,-7.037024479359999841e-03,-1.325094580650000076e+00,-2.212156057359999650e+00,0.000000000000000000e+00
8.848970390000000519e-01,-1.416661134239999953e+00,-3.055957596169999846e+00,-8.448597560469998768e+00,8.223433047530000206e-02,-1.259242653850000115e+00,-2.276836633679999888e+00,0.000000000000000000e+00
8.899142899999999967e-01,-1.418770965999999856e+00,-2.202289972029999987e+00,-8.412391690099999764e+00,2.061466276649999985e-01,-1.031762123110000040e+00,-2.250477313999999840e+00,0.000000000000000000e+00
8.949281850000000427e-01,-2.967250115800000310e-01,-1.763561139499999930e+00,-8.075793006350000525e+00,3.208101391789999757e-01,-7.923149466509998851e-01,-2.191257238389999973e+00,0.000000000000000000e+00
8.998498029999999481e-01,6.503971413279999725e-01,-1.627489558149999960e+00,-7.487897256320000139e+00,4.812984764580000019e-01,-5.359959602359999353e-01,-2.130412816999999848e+00,0.000000000000000000e+00
9.050960399999999906e-01,1.565431161379999825e+00,-1.600585623000000179e+00,-7.156102173469999883e+00,6.219045519829999868e-01,-3.025802969929999864e-01,-2.064629077909999832e+00,0.000000000000000000e+00
9.100625639999999628e-01,2.137672246170000179e+00,-1.235965398260000070e+00,-6.747806619260000360e+00,7.148252129549999001e-01,-1.999383568760000063e-01,-2.050048828120000000e+00,0.000000000000000000e+00
9.150026359999999803e-01,2.203757852629999903e+00,-8.596829389079999606e-01,-6.286472133300000209e+00,7.762309312819999363e-01,-1.931570172309999833e-01,-2.068140268330000087e+00,0.000000000000000000e+00
9.199115799999999510e-01,1.818339170000000005e+00,-7.690279046669999952e-01,-6.262689691180000295e+00,8.551422953609999489e-01,-1.633078306909999944e-01,-2.066499710079999996e+00,0.000000000000000000e+00
9.250359420000000554e-01,1.216476707810000057e+00,-8.173008641220000925e-01,-6.305270941799999918e+00,9.023182988169999863e-01,-7.902307063339998605e-02,-2.050146579740000252e+00,0.000000000000000000e+00
9.299260360000000114e-01,4.266966686220000082e-01,-7.073954051610000793e-01,-6.412556427519999325e+00,9.477174282070000011e-01,4.458162188530000181e-02,-2.001102685929999847e+00,0.000000000000000000e+00
9.349157460000000475e-01,-1.252236496639999863e-01,-4.921270625729999848e-01,-6.377095822560000293e+00,9.735283255580000628e-01,2.090005129580000121e-01,-1.962619066240000043e+00,0.000000000000000000e+00
9.400313340000000517e-01,-5.494919312289999747e-01,-5.992838530129999952e-02,-6.342008142560000117e+00,9.779860973360000598e-01,3.435249924660000453e-01,-1.896011233330000101e+00,0.000000000000000000e+00
9.450307940000000073e-01,-7.455117122619999703e-01,5.545206095790000678e-01,-6.215851367630000013e+00,9.912619590760000099e-01,4.298203587529999536e-01,-1.843380570409999697e+00,0.000000000000000000e+00
9.498956360000000432e-01,-1.058770729209999928e+00,1.300263390650000073e+00,-6.060358023580000086e+00,1.020301222799999907e+00,4.956980347630000061e-01,-1.774072408679999935e+00,0.000000000000000000e+00
9.549554780000000243e-01,-1.457776842350000157e+00,2.058682442209999852e+00,-5.999430384410000094e+00,1.096499800679999970e+00,4.800007045269999439e-01,-1.703612208370000047e+00,0.000000000000000000e+00
9.599015260000000049e-01,-1.921768710949999903e+00,2.662014976959999668e+00,-6.150606449789999708e+00,1.193835139269999956e+00,5.219816565510000395e-01,-1.624868631360000037e+00,0.000000000000000000e+00
9.650585010000000130e-01,-2.638723825490000063e+00,3.174806678440000418e+00,-6.828670546519999718e+00,1.275197863579999868e+00,5.838097333910000630e-01,-1.529857993130000038e+00,0.000000000000000000e+00
9.700583090000000075e-01,-3.205919025060000038e+00,3.856635680659999732e+00,-6.737208652879999704e+00,1.379593968389999814e+00,5.819790959359999460e-01,-1.413425564770000031e+00,0.000000000000000000e+00
9.750867579999999979e-01,-3.731539228440000411e+00,4.422546977900000620e+00,-6.893280673600000519e+00,1.445133566859999830e+00,6.259068846699999966e-01,-1.354033350939999769e+00,0.000000000000000000e+00
9.800608640000000316e-01,-4.217739567850000704e+00,5.109450214659999823e+00,-7.152007013110001310e+00,1.448314189910000049e+00,7.036811709399999337e-01,-1.281677007679999925e+00,0.000000000000000000e+00
9.849377000000000271e-01,-4.376124249430000113e+00,5.967430149040000131e+00,-7.048730763030000013e+00,1.456949114800000000e+00,7.417514324189999897e-01,-1.227601170539999842e+00,0.000000000000000000e+00
9.900600330000000060e-01,-4.402690769310000363e+00,6.719593501209999431e+00,-6.885363909129999627e+00,1.412809729579999951e+00,7.681788802150000262e-01,-1.190991520879999932e+00,0.000000000000000000e+00
9.949597529999999468e-01,-4.381612325449999901e+00,7.236820554780000414e+00,-6.877922945469999050e+00,1.361796021460000006e+00,7.876621484760000236e-01,-1.131569981579999995e+00,0.000000000000000000e+00
9.999637689999999468e-01,-4.194153817340000145e+00,7.716556958870000038e+00,-6.870487242509999426e+00,1.284608006479999842e+00,7.910516858099999604e-01,-1.046598315239999799e+00,0.000000000000000000e+00
1.004898955000000038e+00,-4.095283693259999858e+00,8.067402779149999148e+00,-6.685771311109999004e+00,1.169995069500000096e+00,7.661474347109999972e-01,-9.502485394480000291e-01,0.000000000000000000e+00
1.009913709999999964e+00,-3.945296253149999988e+00,8.558797472330001099e+00,-6.453705599510000113e+00,1.031886100769999981e+00,6.957110166550000141e-01,-8.387292027470000244e-01,0.000000000000000000e+00
1.014945165999999954e+00,-3.875928702419999983e+00,8.765232483589999291e+00,-6.206977156310000687e+00,8.854930400849999605e-01,6.144546866419999809e-01,-7.243938446040000256e-01,0.000000000000000000e+00
1.020058681000000078e+00,-3.805675601019999910e+00,8.659622237600000716e+00,-5.967978430569999659e+00,7.447634935379999765e-01,5.268828272820000880e-01,-5.584452748300000602e-01,0.000000000000000000e+00
1.025022611000000028e+00,-3.471477256409999601e+00,8.461075933769999224e+00,-5.552257110280000241e+00,6.341660022739999958e-01,4.466427266599999890e-01,-4.033475220200000155e-01,0.000000000000000000e+00
1.029923123999999968e+00,-3.023639965410000130e+00,8.262823644439999171e+00,-5.355222380049999842e+00,5.043941736220000083e-01,3.302844166760000033e-01,-2.896441817279999942e-01,0.000000000000000000e+00
1.034944888000000063e+00,-2.675468917299999916e+00,8.105136589739998954e+00,-5.147482131409999440e+00,3.786297142510000047e-01,2.082426398989999927e-01,-1.706630438569999852e-01,0.000000000000000000e+00
1.039922181999999973e+00,-2.158254577080000125e+00,8.020052998949999790e+00,-4.242684331750000482e+00,2.856410741809999876e-01,6.007338687780000575e-02,-1.262741833929999780e-01,0.000000000000000000e+00
1.044930829999999977e+00,-1.236243192290000126e+00,7.659176198519999978e+00,-2.825302335890000016e+00,2.192083299160000054e-01,-1.222447156909999971e-01,-9.135109186170001228e-02,0.000000000000000000e+00
1.049906038000000041e+00,-7.232581017519999378e+00,-2.806661348309999582e+00,-1.414617791839999938e+01,3.247532993559999748e-02,-3.587452173229999652e-01,-1.142276078460000149e-01,0.000000000000000000e+00
1.054937043000000019e+00,-1.064513145320000120e+01,-1.933697312190000162e+01,-9.526347788500000746e+00,-1.238741636279999891e+00,-6.108164191250000652e-01,4.722278416160000103e-01,0.000000000000000000e+00
1.060102209000000073e+00,-7.710548658370000474e+00,-5.339951745680000528e+00,-1.380304486450000034e+01,-2.545455455779999987e+00,-6.683626174930000774e-01,7.619093656540000259e-01,0.000000000000000000e+00
1.064934972999999951e+00,-1.350220080020000069e+01,2.428819822940000428e+00,-2.324805818559999793e+01,-4.537469387049999803e+00,-1.286269187929999891e+00,8.980138599869999516e-02,0.000000000000000000e+00
1.069896970000000058e+00,-1.755425968429999983e+01,5.287067712230000271e-01,-1.917020902670000027e+01,-5.680803298949999913e+00,-8.443958163259999150e-01,-1.856432855130000018e-02,0.000000000000000000e+00
1.074962463000000090e+00,-4.586313352519999498e+00,5.221267498590000500e+00,-1.250751990050000018e+01,-5.388169765469998929e+00,1.970859915019999853e-01,-6.240152120590000129e-01,0.000000000000000000e+00
1.080075040000000097e+00,2.061770325229999923e+00,4.346322400880000991e+00,-1.303931791579999988e+01,-4.116286754609999932e+00,1.700291514399999926e+00,-2.802478969100000161e-01,0.000000000000000000e+00
1.084936037999999936e+00,-2.126316008769999766e-01,1.016568541029999828e+00,-1.246461599380000074e+01,-2.620244741440000080e+00,2.138391017909999636e+00,3.300203680989999833e-01,0.000000000000000000e+00
1.090078550000000090e+00,-4.486012903380000694e+00,1.312182961020000205e+00,-9.751326756710000154e+00,-1.594353675839999873e+00,1.719748735429999842e+00,6.245133876799999761e-01,0.000000000000000000e+00
1.094955885999999934e+00,-2.171186977760000136e+00,3.743139649869999808e+00,-1.391988143789999910e+01,-9.740929603579999707e-01,9.269769787790000937e-01,5.588845014569999714e-01,0.000000000000000000e+00
1.099902568999999941e+00,-6.384066246089999952e-01,2.945227230690000031e+00,-1.239091947400000038e+01,-9.830151200290000446e-01,5.057545006280000227e-02,3.823961615559999805e-01,0.000000000000000000e+00
1.104900339000000065e+00,-5.188669297319999790e-02,3.950506973540000466e+00,-1.155404311789999916e+01,-1.058722734449999869e+00,-6.775158047679999962e-01,6.749641150240000276e-02,0.000000000000000000e+00
1.109918967999999895e+00,-2.875257330149999735e+00,3.216244604240000360e+00,-1.171610648799999943e+01,-1.095050573350000001e+00,-5.897266268729999261e-01,3.009860403840000295e-02,0.000000000000000000e+00
1.115128077000000051e+00,-5.484209994489999573e+00,2.417154811850000140e+00,-1.076219832820000022e+01,-9.628254175189999708e-01,-1.678866595029999964e-01,9.483861178160001015e-02,0.000000000000000000e+00
1.119911864000000090e+00,-3.372646587570000243e+00,4.721009699999999754e+00,-9.944583137440000442e+00,-5.166355371480000347e-01,7.815037667749999417e-02,-6.898657232520000182e-02,0.000000000000000000e+00
1.124911165000000102e+00,-4.003892234509999426e+00,4.283364132660000045e+00,-1.041293948490000076e+01,-2.012014985080000096e-01,4.526236057280000336e-01,1.108192466199999990e-02,0.000000000000000000e+00
1.129924598999999974e+00,-1.919553080729999861e+00,2.261070370040000110e+00,-9.479577854019998640e+00,8.903113193809998258e-03,5.179433226590000050e-01,4.733788222070000468e-02,0.000000000000000000e+00
1.134944246000000101e+00,-2.467941726889999909e+00,5.956290842320000056e-01,-9.980830508860000450e+00,3.869722411040000393e-02,2.841733992100000106e-01,1.167200207709999937e-01,0.000000000000000000e+00
1.139879107000000058e+00,-2.360044977400000299e+00,4.912359224199999708e-01,-9.356616075739998095e+00,5.739462748169999601e-02,7.710202783349999478e-02,1.411080174150000123e-02,0.000000000000000000e+00
1.144927972999999932e+00,-2.641735282259999984e+00,6.174889973300000667e-01,-9.620392099850000989e+00,8.612137287859999990e-02,-1.106504946949999901e-01,-1.253634691240000099e-01,0.000000000000000000e+00
1.150085561999999895e+00,-2.854671053719999740e+00,4.449392314729999631e-01,-9.500479187749998999e+00,1.237253919239999916e-01,-1.731347441670000042e-01,-1.659763455390000086e-01,0.000000000000000000e+00
1.154962983999999970e+00,-3.919811098759999890e+00,-2.294893217730000282e-02,-9.343004314489999018e+00,1.763584017749999788e-01,-8.814118057489998825e-02,-8.398549258710000243e-02,0.000000000000000000e+00
1.159933585000000100e+00,-3.634542204760000228e+00,-1.300860954680000126e-01,-9.813779998010002004e+00,1.769234985110000047e-01,2.045138366520000278e-02,-3.792396932840000345e-02,0.000000000000000000e+00
1.165076243999999983e+00,-3.614786826200000025e+00,-5.428167643140000553e-01,-9.254354555660000869e+00,1.561220586300000046e-01,1.048658639189999908e-01,1.021376065910000082e-02,0.000000000000000000e+00
1.170062335999999981e+00,-3.574971533159999826e+00,-4.569538597199999663e-01,-9.383749581860001854e+00,9.306647628550000773e-02,2.022960335020000111e-01,1.616871170699999902e-02,0.000000000000000000e+00
1.175043698999999942e+00,-3.466954810549999877e+00,-5.032822609790000845e-01,-9.330610112340000484e+00,2.168335486200000041e-04,1.411640495060000056e-01,2.388804964719999993e-02,1.000000000000000000e+00
1.180075251999999963e+00,-3.387684874480000108e+00,-2.808143805420000305e-01,-9.171163062230000662e+00,-8.417900651689998182e-02,9.274511039259999978e-02,1.205714792010000036e-02,1.000000000000000000e+00
1.184911838000000106e+00,-3.384112276690000254e+00,-2.633544559680000008e-01,-9.210959066050000033e+00,-1.117166653279999949e-01,5.511942878369999882e-02,3.636362962420000219e-03,1.000000000000000000e+00
1.189918440000000022e+00,-3.412573816549999695e+00,-3.222400131190000239e-01,-9.400280445419999964e+00,-9.698701649900000332e-02,5.876765772699999585e-02,3.155687823890000049e-02,1.000000000000000000e+00
1.195122677000000078e+00,-3.491652321700000172e+00,-1.037284325600000140e-01,-9.336253086670000201e+00,-8.668336272240000084e-02,1.039520651100000054e-01,5.840669199819999852e-02,1.000000000000000000e+00
1.199929763000000094e+00,-3.543877306710000230e+00,9.306415947610000017e-02,-9.292263138290000057e+00,-1.081107482310000034e-01,1.784381717440000070e-01,8.985368162389999191e-02,1.000000000000000000e+00
1.204928333000000018e+00,-3.203417271370000208e+00,1.405576681250000071e-01,-9.330134896049999682e+00,-1.252119690179999967e-01,2.474920451639999741e-01,8.234547078610000848e-02,1.000000000000000000e+00
1.209899309000000089e+00,-3.022387919520000299e+00,1.786085544390000057e-01,-9.522425646619998574e+00,-1.415035873650000164e-01,2.672006487849999945e-01,8.569693565369998489e-02,1.000000000000000000e+00
1.215124670000000018e+00,-2.910881016719999881e+00,2.549966697289999806e-01,-9.468551433089999136e+00,-1.201521977780000000e-01,2.240062057970000076e-01,6.089101359249999429e-02,0.000000000000000000e+00
1.219890837999999977e+00,-2.995001023170000387e+00,6.783848531239999868e-01,-9.351286405150000647e+00,-1.122842878099999941e-01,1.842206418510000110e-01,6.122144684200000325e-02,0.000000000000000000e+00
1.224861317000000005e+00,-2.522154670850000002e+00,3.383200276420000319e-01,-9.172068486639998852e+00,-9.228546917439998942e-02,1.262917965650000029e-01,2.527415007349999992e-02,0.000000000000000000e+00
1.229924948000000073e+00,-2.914671641169999994e+00,2.985511310289999942e-01,-9.620654550179999376e+00,-7.769326865669999582e-02,1.229104474190000074e-01,4.880946874619999931e-02,0.000000000000000000e+00
1.235125285999999933e+00,-2.847192972919999843e+00,5.374504880410000407e-01,-9.614691257860000562e+00,-4.855933412909999719e-02,8.839076757430000542e-02,7.041930407289999361e-02,0.000000000000000000e+00
1.239935247000000018e+00,-2.890284218890000201e+00,6.701713707259999708e-01,-9.435205628330001204e+00,-2.446530945600000270e-02,1.099120005969999869e-01,6.718008965249999687e-02,1.000000000000000000e+00
1.244936231999999920e+00,-2.917753825099999698e+00,3.211437423149999804e-01,-9.515966679739999989e+00,9.092877618969999465e-03,8.279718458649999724e-02,5.298026278609999778e-02,1.000000000000000000e+00
1.249915483999999966e+00,-2.919467643279999969e+00,3.894831921130000318e-01,-9.445440022090000554e+00,2.552592195569999833e-02,6.768047809600000186e-02,4.945830255749999321e-02,1.000000000000000000e+00
1.254945157000000089e+00,-3.010759148790000062e+00,3.489486083569999786e-01,-9.357706793580000237e+00,2.522534131999999707e-02,4.195475578309999787e-02,4.466825723650000302e-02,1.000000000000000000e+00
1.259922760000000030e+00,-3.023516631290000145e+00,2.465394599690000077e-01,-9.369059962250000595e+00,2.411899156869999963e-02,1.734004914759999794e-02,4.917501285669999972e-02,1.000000000000000000e+00
1.265097177999999989e+00,-2.969544802609999756e+00,2.121544483510000023e-01,-9.346829425739999309e+00,1.146359741690000135e-02,1.825759746129999861e-02,3.810704872009999800e-02,1.000000000000000000e+00
1.270068259000000088e+00,-3.061576312840000202e+00,2.436228053370000091e-01,-9.319504780960000900e+00,3.005946800109999748e-02,3.608878701930000321e-02,3.034357167779999642e-02,1.000000000000000000e+00
1.275049011999999982e+00,-3.184183286330000140e+00,2.538468786389999621e-01,-9.275175809889999456e+00,1.747677847739999984e-02,3.920802101490000052e-02,3.887794911859999980e-02,1.000000000000000000e+00
1.279951902000000086e+00,-3.227404003899999818e+00,3.328910613950000208e-01,-9.230352917819999448e+00,2.053589373830000051e-02,3.557415306569999824e-02,4.759371653199999386e-02,1.000000000000000000e+00
1.284959382000000039e+00,-3.167683694690000440e+00,3.435727970709999690e-01,-9.216113380070000360e+00,-5.677262786779999418e-03,6.243420764799999939e-02,4.671799391509999511e-02,1.000000000000000000e+00
1.289901439000000094e+00,-3.132482032920000048e+00,3.198329154450000322e-01,-9.193296568099999178e+00,-9.855342796070000293e-04,7.008338719610000822e-02,4.909095168109999657e-02,1.000000000000000000e+00
1.295109368999999955e+00,-3.077676091499999877e+00,3.029099838250000065e-01,-9.197472977010001216e+00,-5.675694905219999878e-03,8.768709748980001162e-02,5.694450438019999644e-02,1.000000000000000000e+00
1.299935333000000082e+00,-3.073139617120000278e+00,3.363819722510000276e-01,-9.189733322669999538e+00,-1.647129282359999919e-02,9.858816862109999468e-02,4.813015460969999326e-02,1.000000000000000000e+00
1.305049074999999892e+00,-3.076828827020000379e+00,4.072014022959999924e-01,-9.253432180119999018e+00,-2.145099267360000075e-02,9.299331158399999631e-02,4.045847430830000480e-02,0.000000000000000000e+00
1.310074670000000108e+00,-3.126402420749999855e+00,4.578093805709999575e-01,-9.188633836989998471e+00,-3.676511347289999898e-02,1.355516463519999826e-01,4.518628492949999798e-02,0.000000000000000000e+00
1.314967364999999999e+00,-3.013440350699999826e+00,3.667243208820000211e-01,-9.231149036639999750e+00,-4.176046326759999539e-02,1.113751158120000057e-01,3.784104064109999888e-02,0.000000000000000000e+00
1.319907704000000015e+00,-3.004971797559999658e+00,3.095480701330000084e-01,-9.221371154470000775e+00,-4.128663241859999861e-02,1.136737465860000046e-01,5.013116821650000221e-02,0.000000000000000000e+00
1.324805659999999996e+00,-2.879642997890000444e+00,2.573551424880000105e-01,-9.312570597780000625e+00,-3.437674790619999615e-02,1.200333088639999879e-01,3.517972677950000071e-02,0.000000000000000000e+00
1.329886850999999925e+00,-2.946976996970000151e+00,3.533422036739999883e-01,-9.370537633579999692e+00,-4.422500357030000745e-02,1.369938552380000063e-01,3.392752632499999865e-02,1.000000000000000000e+00
1.335016588000000004e+00,-2.960342674499999660e+00,4.582869714869999833e-01,-9.343522200889999851e+00,-4.335060715680000287e-02,1.244777515530000045e-01,3.366766870019999996e-02,0.000000000000000000e+00
1.339896450999999988e+00,-2.853104242790000633e+00,3.649425885639999700e-01,-9.371738241539999237e+00,-3.822085633869999610e-02,1.238726004959999905e-01,2.489665709440000430e-02,1.000000000000000000e+00
1.345091797999999894e+00,-2.884402175109999966e+00,2.792842848980000015e-01,-9.364622856580000487e+00,-4.386043921109999272e-02,1.080090701579999868e-01,4.357696324590000503e-02,0.000000000000000000e+00
1.349889793000000004e+00,-2.849019603829999969e+00,2.275764190900000095e-01,-9.417586969530001184e+00,-3.423267230390000110e-02,1.000518798829999889e-01,5.897447466850000430e-02,0.000000000000000000e+00
1.354873409000000084e+00,-2.827011185639999979e+00,2.996236556309999632e-01,-9.357166695360000119e+00,-4.158447310330000424e-02,8.291093260050000358e-02,4.062134400010000007e-02,0.000000000000000000e+00
1.359881434999999916e+00,-2.981239624319999670e+00,4.281410587439999915e-01,-9.383215328849999537e+00,-3.405978903170000377e-02,8.389064669610001024e-02,6.045496091249999426e-02,1.000000000000000000e+00
1.365080143999999995e+00,-2.894886159729999964e+00,5.064961815239999998e-01,-9.393779392960000862e+00,-3.718091547490000315e-02,7.383249700069999255e-02,4.419429972769999687e-02,0.000000000000000000e+00
1.370045541000000089e+00,-2.879553858299999991e+00,5.100720307170000245e-01,-9.381488066659999348e+00,-3.967490792269999511e-02,7.607098668810000075e-02,3.419037163259999734e-02,1.000000000000000000e+00
1.375046366000000075e+00,-2.857013817449999937e+00,4.869481986300000509e-01,-9.407614441569998931e+00,-1.752115972340000105e-02,7.645116001370000358e-02,5.518919229509999802e-02,1.000000000000000000e+00
1.379895639999999979e+00,-2.825490551940000206e+00,4.808791078499999871e-01,-9.420759754339998793e+00,1.554834377020000019e-02,6.158476695419999591e-02,6.127193197610000114e-02,1.000000000000000000e+00
1.384951798999999983e+00,-2.721502061939999884e+00,5.112982845760000172e-01,-9.453789917289999067e+00,-1.394833438099999908e-03,6.830409914259999438e-02,4.564172774550000200e-02,1.000000000000000000e+00
1.389926044000000083e+00,-2.747868967600000101e+00,6.118636317289999349e-01,-9.526526652200001166e+00,9.209068492050000512e-03,5.854303762319999771e-02,3.013930283490000306e-02,1.000000000000000000e+00
1.395131117000000032e+00,-2.757996978380000019e+00,5.931983864869999623e-01,-9.477927164199998700e+00,2.892599813640000378e-02,2.854106016460000034e-02,2.763302624229999754e-02,1.000000000000000000e+00
1.399910616000000108e+00,-2.713043445670000331e+00,5.074965542059999279e-01,-9.482286528450000418e+00,3.294954448939999697e-02,1.200242433700000021e-02,5.755579564720000180e-03,1.000000000000000000e+00
1.405093396000000050e+00,-2.767753817759999624e+00,4.791921776759999752e-01,-9.453508177739999851e+00,3.745589032769999771e-02,1.114582177249999993e-02,1.280121319000000063e-02,1.000000000000000000e+00
1.409938235000000040e+00,-2.738515740579999580e+00,5.303062057769999393e-01,-9.465236609450000671e+00,5.589010193940000676e-02,-5.934046581390000491e-03,-5.032675340770000234e-03,1.000000000000000000e+00
1.414970268000000031e+00,-2.740157370309999507e+00,4.581111399960000052e-01,-9.554640986049999896e+00,5.728624016049999740e-02,-2.463096752760000289e-03,-1.420789398250000071e-02,1.000000000000000000e+00
1.419940878000000017e+00,-2.691493292640000146e+00,2.551255750720000104e-01,-9.612717327440000403e+00,7.946083694699999922e-02,-1.997257396579999941e-02,-8.470209315420000259e-03,1.000000000000000000e+00
1.424916681000000018e+00,-2.589139125840000055e+00,2.101349252230000075e-01,-9.696779758479999956e+00,8.469190448519998971e-02,-2.354650199409999770e-02,-1.880520768459999909e-02,1.000000000000000000e+00
1.429911128000000087e+00,-2.601182322599999708e+00,2.311522500160000104e-01,-9.735568631079999591e+00,1.135198622939999902e-01,-4.593009501699999581e-02,-1.496032997970000132e-02,1.000000000000000000e+00
1.434916738000000080e+00,-2.657098855609999699e+00,1.536046624939999827e-01,-9.782520936390000088e+00,1.019312217830000006e-01,-6.208557635550000092e-02,-7.100434508170000089e-03,1.000000000000000000e+00
1.439911450000000093e+00,-2.610685771740000050e+00,9.022103587150000215e-02,-9.936406845249999620e+00,1.406948715449999887e-01,-6.356591731310000382e-02,5.627399776129999621e-03,1.000000000000000000e+00
1.444930797000000045e+00,-2.312765632090000079e+00,-1.503929247720000029e-01,-1.014230351179999978e+01,1.773755997419999841e-01,-1.061566323039999926e-01,-7.717895321549999958e-03,1.000000000000000000e+00
1.450038053999999965e+00,-1.849427258970000043e+00,-4.740189032240000322e-01,-1.059736666240000069e+01,2.183675616979999790e-01,-1.647056192159999932e-01,4.258850589390000135e-02,0.000000000000000000e+00
1.455100387000000106e+00,-1.387889505520000233e+00,-6.342768313279999459e-01,-1.105627830519999932e+01,2.823972403999999714e-01,-2.866309881210000188e-01,9.360971301789998422e-02,0.000000000000000000e+00
1.460049632999999902e+00,-9.570893471060000213e-01,-7.361122349490000216e-01,-1.149411325760000047e+01,3.281170427800000344e-01,-5.184386372570000123e-01,1.675139665600000050e-01,0.000000000000000000e+00
1.465077088999999999e+00,-7.759265781389999006e-01,-1.222524828870000135e+00,-1.154062950960000045e+01,3.846502304080000045e-01,-8.346176743510000939e-01,2.532978355880000088e-01,0.000000000000000000e+00
1.469920061999999916e+00,-1.386950909499999884e+00,-8.025336492309999015e-01,-1.137829959749999986e+01,3.791732490060000238e-01,-1.216227173809999895e+00,3.289108276370000250e-01,0.000000000000000000e+00
1.474936728000000086e+00,-2.057099995329999764e+00,-8.975375993970000632e-01,-1.101253853220000067e+01,3.303588926790000380e-01,-1.523320794110000209e+00,3.332788944239999940e-01,0.000000000000000000e+00
1.479912136000000045e+00,-2.527783616649999843e+00,-2.107755831329999996e+00,-1.234039106369999850e+01,2.898986041550000170e-01,-1.611787557599999809e+00,3.777928352359999908e-01,0.000000000000000000e+00
1.485062220000000099e+00,-1.946106010479999870e+00,-2.606872643200000006e+00,-1.169932252650000137e+01,4.989952147010000005e-01,-1.566657543179999834e+00,5.124988555910000576e-01,0.000000000000000000e+00
1.489931179999999911e+00,-2.036072989390000032e+00,-2.620280406300000031e+00,-1.203963233970000068e+01,7.525671720500000106e-01,-1.345977067949999828e+00,6.547973752019999871e-01,0.000000000000000000e+00
1.494943204999999997e+00,-2.216817094550000089e+00,-3.246253665789999854e+00,-1.297820965930000092e+01,9.038492441179999393e-01,-1.071557641029999841e+00,7.934605479240000037e-01,0.000000000000000000e+00
1.499899853999999921e+00,-2.753976636819999602e+00,-1.694418775830000001e+00,-1.439224994359999954e+01,8.574044108390000973e-01,-1.196255445479999846e+00,8.720461130140000350e-01,0.000000000000000000e+00
1.505088675999999959e+00,-2.350361495520000066e+00,-1.977038908879999779e+00,-1.448069862690000065e+01,5.235946774480000343e-01,-1.498171091079999906e+00,9.139609932899999123e-01,0.000000000000000000e+00
1.509931684999999968e+00,-1.577908511770000244e+00,-6.021243572289999513e+00,-1.518099793630000072e+01,1.584293544289999967e-01,-1.828876256940000111e+00,9.121039509770000331e-01,0.000000000000000000e+00
1.514961250999999898e+00,-3.275707431549999882e+00,-7.817607349590000254e+00,-1.387563079269999911e+01,5.044550076129999949e-02,-1.999354243279999777e+00,1.066515922550000051e+00,0.000000000000000000e+00
1.519916078999999920e+00,-4.144446660359999868e+00,-6.273652983740000799e+00,-1.331963590940000053e+01,4.623523354530000018e-02,-2.065491437910000005e+00,1.327415466309999958e+00,0.000000000000000000e+00
1.524916941999999942e+00,-5.400120090919999782e+00,-6.438329166679999993e+00,-1.341787299619999807e+01,1.205986142159999885e-01,-2.015709638600000186e+00,1.507087945939999729e+00,0.000000000000000000e+00
1.529989148000000077e+00,-6.713527333040000045e+00,-6.600940818300000679e+00,-1.380742176440000080e+01,2.285348474980000155e-01,-1.896687865259999883e+00,1.657573342319999865e+00,0.000000000000000000e+00
1.534929435000000009e+00,-7.857409198630000091e+00,-5.002593183480000150e+00,-1.547824602190000043e+01,2.183251082899999862e-01,-1.782199978829999809e+00,1.720441341399999935e+00,0.000000000000000000e+00
1.539891890999999902e+00,-1.039354855570000069e+01,-2.563456403060000000e+00,-1.649244995269999947e+01,6.658043712380000423e-02,-1.725451707840000015e+00,1.539883255960000197e+00,0.000000000000000000e+00
1.545060668999999942e+00,-8.267391098490000090e+00,-4.477094852909999645e+00,-1.523293504430000134e+01,-3.553337976339999982e-02,-1.601547598840000086e+00,9.506564140319999634e-01,0.000000000000000000e+00
1.549921547999999927e+00,-9.838386031480000682e+00,-9.225055395940000125e+00,-1.416428406849999888e+01,1.457511037589999947e-01,-1.306717634199999978e+00,2.341721504929999975e-01,0.000000000000000000e+00
1.555078061999999983e+00,-9.366699078330000816e+00,-1.237362464029999920e+01,-1.375641170809999991e+01,3.285678625110000084e-01,-9.358860850329999703e-01,-2.039062678809999973e-01,0.000000000000000000e+00
1.559920605999999932e+00,-5.708390505800000625e+00,-1.136638704140000122e+01,-1.427518306849999874e+01,3.157632052900000152e-01,-4.972990155219999542e-01,-4.095548689370000495e-01,0.000000000000000000e+00
1.565071373000000099e+00,-1.846682928699999948e+00,-8.991438363239998566e+00,-1.091094979680000066e+01,2.349687963720000217e-01,-2.630040347579999938e-01,-5.889036655429999989e-01,0.000000000000000000e+00
1.569929595000000067e+00,9.083956049550000189e-02,-8.115221930419998841e+00,-7.943346191369999865e+00,2.345793396229999828e-01,-2.028607279060000157e-01,-7.499420046809999185e-01,0.000000000000000000e+00
1.574944939000000099e+00,1.200178849279999849e+00,-7.846892480790000235e+00,-6.407635922249999894e+00,2.915443480009999866e-01,-2.544575929640000012e-01,-8.685437440870000803e-01,0.000000000000000000e+00
1.579925471999999997e+00,1.418781779659999964e+00,-6.901032018380000466e+00,-5.127122649469999516e+00,4.020048975940000435e-01,-4.575853347779999525e-01,-9.115457534790000205e-01,0.000000000000000000e+00
1.584957283000000050e+00,4.551461527110000072e-01,-5.086538710150000142e+00,-5.351980621650000103e+00,6.129271388050000491e-01,-4.723241627220000072e-01,-8.286298513410000899e-01,0.000000000000000000e+00
1.590076499999999893e+00,1.481766059099999922e+00,-2.086049026440000453e+00,-4.377482093780000305e+00,8.445540070529999888e-01,-4.749434888359999607e-01,-8.517763614650000203e-01,0.000000000000000000e+00
1.594990796999999905e+00,3.153941877319999865e+00,1.017627986960000008e+00,-3.910444720000000096e+00,1.092293262479999916e+00,-3.684281706809999779e-01,-8.779578208920000293e-01,0.000000000000000000e+00
1.600069983000000029e+00,3.172152072269999845e+00,6.393813148600000495e-01,-4.004073728549999878e+00,1.402423620220000222e+00,-2.062123864889999769e-01,-6.904772520070000530e-01,0.000000000000000000e+00
1.604913816999999909e+00,3.798266493799999921e+00,-1.320884300000000067e-01,-3.219277980590000254e+00,1.691931605340000200e+00,1.018183529379999980e-01,-4.290120303630000076e-01,0.000000000000000000e+00
1.609929976999999957e+00,4.193216536489999591e+00,6.355604413979999423e-01,-2.788378672639999944e+00,1.914797663690000151e+00,3.839819431300000030e-01,-7.081094384189999535e-02,0.000000000000000000e+00
1.615133844999999901e+00,5.203871542629999958e+00,1.743311401549999973e+00,-2.853449695230000138e+00,1.887935638429999896e+00,5.597574114800000222e-01,1.466309428219999822e-01,0.000000000000000000e+00
1.619945599000000014e+00,5.626802940430000177e+00,2.308520688000000209e+00,-2.475221362500000133e+00,1.776172637940000243e+00,6.327915787699999184e-01,2.442657351489999906e-01,0.000000000000000000e+00
1.625047334000000010e+00,5.150105465650000269e+00,2.204908922359999579e+00,-2.561190503950000252e+00,1.574027419090000102e+00,6.989619135860000165e-01,3.289317488669999956e-01,0.000000000000000000e+00
1.629943067999999995e+00,4.463393367560000158e+00,2.463164137220000161e+00,-2.837044796129999824e+00,1.438078284259999950e+00,7.734631896020000008e-01,4.033665955069999920e-01,0.000000000000000000e+00
1.634978618999999966e+00,3.610476854040000294e+00,3.573037934750000311e+00,-3.176682409179999667e+00,1.325382590290000051e+00,8.813754320139999265e-01,4.762656688690000140e-01,0.000000000000000000e+00
1.639888031999999995e+00,2.552358378200000111e+00,4.308432815209999767e+00,-3.738697283500000079e+00,1.220255374910000024e+00,9.905378818510000016e-01,5.200864672659999410e-01,0.000000000000000000e+00
1.645063009000000021e+00,1.100532918529999904e+00,4.879026425050000171e+00,-4.520815921219999645e+00,1.158683896060000107e+00,1.129906415940000075e+00,5.589525699620000454e-01,0.000000000000000000e+00
1.650072940000000044e+00,-1.852669711490000093e-01,5.456787150030000255e+00,-4.869952014969999965e+00,1.154865384100000059e+00,1.301260948179999932e+00,5.303317904469999622e-01,0.000000000000000000e+00
1.654908199999999940e+00,-1.251744712810000104e+00,5.941524723409999709e+00,-5.241659713749999838e+00,1.162580370899999993e+00,1.458340883259999998e+00,4.992016255860000085e-01,0.000000000000000000e+00
1.659865158999999979e+00,-2.017237356019999872e+00,6.105827981380000047e+00,-5.443097647380000126e+00,1.128935694689999991e+00,1.597124099729999802e+00,4.200558364390000188e-01,0.000000000000000000e+00
1.665062787999999960e+00,-2.610950560159999601e+00,5.648725433910000149e+00,-5.454754182899999471e+00,1.039162278179999843e+00,1.713217258450000058e+00,3.436562716960000485e-01,0.000000000000000000e+00
1.669886253999999903e+00,-3.021399785270000304e+00,5.206939113509999828e+00,-5.428618455650000563e+00,9.023603200910000899e-01,1.794558405879999929e+00,2.426555454730000005e-01,0.000000000000000000e+00
1.675056212000000100e+00,-3.646505322019999440e+00,4.807521862280000668e+00,-5.514294751629999602e+00,7.320615649220000298e-01,1.818988919259999948e+00,1.513686627150000186e-01,0.000000000000000000e+00
1.680099639999999894e+00,-4.394642779669999832e+00,4.535615138679999880e+00,-5.791915176699999890e+00,5.085720419879999898e-01,1.786500811579999848e+00,2.917750366030000264e-02,0.000000000000000000e+00
1.684976215999999916e+00,-5.277382769040000809e+00,4.534388227230000901e+00,-6.038332654260000432e+00,3.176040649410000194e-01,1.728571414949999996e+00,-1.133587285880000017e-01,0.000000000000000000e+00
1.690071595000000038e+00,-6.309357918849999969e+00,4.459280671540000185e+00,-6.332084714439999651e+00,1.248290836809999999e-01,1.662158608439999741e+00,-2.391144037249999799e-01,0.000000000000000000e+00
1.694911043000000062e+00,-7.238947629939999295e+00,4.509434987759999736e+00,-6.433155563430000612e+00,9.932360611859999619e-03,1.588607311250000098e+00,-3.840480148789999770e-01,0.000000000000000000e+00
1.699931797000000078e+00,-8.001584445329999795e+00,4.446409207270000330e+00,-6.504781122230000712e+00,-6.935637444259999673e-02,1.530864000320000029e+00,-5.696495771410000630e-01,0.000000000000000000e+00
1.705071624999999980e+00,-8.565916948939999997e+00,4.386574039510000134e+00,-6.359629139450000856e+00,-1.378214657310000146e-01,1.450513362879999768e+00,-7.452893257139999728e-01,0.000000000000000000e+00
1.709918285000000093e+00,-8.888269665190000168e+00,3.968996862209999588e+00,-6.235737971369999855e+00,-2.073877453799999881e-01,1.299845933909999918e+00,-9.309144020080000193e-01,0.000000000000000000e+00
1.715108392999999953e+00,-9.213837251830000241e+00,3.318869112409999822e+00,-6.022303310479999894e+00,-2.511335611340000384e-01,1.118195056920000097e+00,-1.096490025520000078e+00,0.000000000000000000e+00
1.720056977000000042e+00,-9.411014605400000121e+00,2.778829338530000026e+00,-5.666401375850000477e+00,-3.444867134089999450e-01,8.984051346780000946e-01,-1.226124882699999974e+00,0.000000000000000000e+00
1.725047087000000090e+00,-9.457104740920000197e+00,2.503805067430000086e+00,-5.131117272060000012e+00,-4.955439269540000136e-01,6.825979948039999634e-01,-1.312570333479999851e+00,0.000000000000000000e+00
1.729916229999999944e+00,-8.984674275930000675e+00,2.261683971890000144e+00,-4.291399555079999928e+00,-6.917034387589999778e-01,4.422023594380000144e-01,-1.357022643089999869e+00,0.000000000000000000e+00
1.735078431999999893e+00,-8.225047163750000223e+00,1.826063919040000094e+00,-3.407522086119999738e+00,-9.533694386480000560e-01,1.775642335410000106e-01,-1.335843801500000039e+00,0.000000000000000000e+00
1.739930645999999914e+00,-7.208592823680000095e+00,1.240405280410000088e+00,-2.968009555870000149e+00,-1.226141691210000051e+00,-8.018437772989998880e-02,-1.226049780849999937e+00,0.000000000000000000e+00
1.745075748000000093e+00,-1.184264495569999909e+01,-8.435857321360000327e+00,-1.550236807119999938e+01,-1.778045773509999705e+00,-3.625299036500000405e-01,-1.130235433580000004e+00,0.000000000000000000e+00
1.750063415000000067e+00,-1.650922573089999901e+01,-2.161394073369999802e+01,-1.312600835719999992e+01,-3.298438787459999855e+00,-9.677429795270000579e-01,-4.004485905170000470e-01,0.000000000000000000e+00
1.755112959999999944e+00,-8.507060855349999784e+00,-6.785123665739999588e+00,-2.607758135409999767e+01,-4.441980838780000163e+00,-8.791798353200001026e-01,5.776284337039999661e-01,0.000000000000000000e+00
1.759926558999999946e+00,-2.952139026679999745e+01,1.012502153770000035e+01,-3.199548671690000035e+01,-5.989412307740000330e+00,-1.872911691669999934e+00,2.817775011059999724e-01,0.000000000000000000e+00
1.764943665999999967e+00,-1.836844606960000092e+01,1.169195638160000073e+01,-1.921050947290000011e+01,-6.775105953220000643e+00,-1.319454193120000118e+00,3.235827088359999881e-01,0.000000000000000000e+00
1.769820520999999980e+00,-1.837448944139999929e-01,1.701624937040000063e+01,-2.202530648920000278e+00,-4.754220485690000331e+00,5.870528221130000279e-01,8.397332578900000566e-02,0.000000000000000000e+00
1.774725448000000094e+00,5.427507279540000340e+00,1.499281462099999906e+01,-1.041450951070000031e+01,-2.581420183180000105e+00,2.973245143889999831e+00,2.850359082219999785e-01,0.000000000000000000e+00
1.780004605000000018e+00,-1.415977828149999951e+00,8.420770811380000609e+00,-1.755243597599999816e+01,-1.011681199070000092e+00,3.440775632860000322e+00,6.951858401299999546e-01,0.000000000000000000e+00
1.784923253999999959e+00,1.499994228089999826e+00,2.345160711999999759e+00,-1.311994102000000062e+01,3.036162257189999880e-01,3.201426744459999973e+00,1.207653403279999926e+00,0.000000000000000000e+00
1.790025611999999988e+00,1.367607911130000131e+00,-5.768118632989999162e-01,-1.090871458510000025e+01,1.113483071329999907e+00,2.127695560459999857e+00,1.038543701170000055e+00,0.000000000000000000e+00
1.795118275999999957e+00,4.392780785190000259e+00,-1.434065419639999783e+00,-9.645262337210001036e+00,1.321059107780000019e+00,6.073058843609999702e-01,2.965123951440000183e-01,0.000000000000000000e+00
1.799891461999999942e+00,2.199433413549999994e+00,1.342464848170000113e+00,-1.148193065240000088e+01,9.617863297459999794e-01,-8.561288118359999810e-01,-1.311562955380000117e-01,0.000000000000000000e+00
1.804895346999999983e+00,-4.131834431549999742e+00,5.196028427909999969e+00,-1.048297105249999994e+01,-8.147224783900000600e-02,-1.773648023609999624e+00,-1.187387704849999920e-01,0.000000000000000000e+00
1.809895134000000017e+00,-3.463818266090000098e+00,3.904466230109999714e+00,-9.040956135130000959e+00,-7.280432581899999311e-01,-1.975873470309999824e+00,-2.053752243519999798e-01,0.000000000000000000e+00
1.815093665000000023e+00,-3.951719271940000056e+00,2.127574338259999642e+00,-9.881161343369999628e+00,-8.367730379100001281e-01,-1.565811872479999867e+00,-4.255790710450000347e-01,0.000000000000000000e+00
1.820067973000000006e+00,-3.379724270870000158e+00,2.224360787929999805e+00,-9.053107176170000159e+00,-4.435802996159999845e-01,-8.551624417300001113e-01,-8.368975520129999790e-01,0.000000000000000000e+00
1.825028161999999954e+00,-7.310366852510000513e+00,1.323279378450000099e+00,-9.034408320920000790e+00,1.422104537490000153e-01,3.888576328750000255e-01,-4.851207435129999967e-01,0.000000000000000000e+00
1.829907136000000101e+00,-3.746993110420000050e+00,-3.640137102159999860e-01,-9.276188786320000546e+00,4.637775123120000398e-01,8.242032527920000184e-01,-1.164146289230000020e-01,0.000000000000000000e+00
1.834917616999999890e+00,-3.214835906479999839e+00,-5.235434336429999336e-01,-9.409117247350000213e+00,5.661045312879999791e-01,9.371221661570000583e-01,1.783507913349999807e-01,0.000000000000000000e+00
1.839906781000000047e+00,-3.087620854669999915e+00,-7.962189131269999942e-01,-8.531406776580000795e+00,3.548375964159999896e-01,6.418348550800000440e-01,1.740083843470000002e-01,0.000000000000000000e+00
1.845057230000000104e+00,-2.433888504509999606e+00,-7.338714702850001048e-01,-9.585724691099999362e+00,1.987455189229999919e-01,1.513446420429999939e-01,-1.338765211399999856e-02,0.000000000000000000e+00
1.850103086999999924e+00,-2.261472521099999966e+00,-7.366771022900000521e-01,-9.797620890370000168e+00,3.381364978850000171e-03,-1.943471580739999927e-01,-1.505186706780000105e-01,0.000000000000000000e+00
1.854953585999999932e+00,-2.854489559670000176e+00,-1.149430439629999912e+00,-9.111055507270000575e+00,-1.003799811009999932e-01,-3.812639713289999732e-01,-1.510983556509999937e-01,0.000000000000000000e+00
1.859905675999999897e+00,-3.654068743009999842e+00,-6.407225003359999782e-01,-9.134832104179999135e+00,-8.430148661139998112e-02,-2.840811312199999494e-01,-6.000191718339999841e-02,0.000000000000000000e+00
1.864908495000000110e+00,-3.149565854190000458e+00,1.565816872770000034e-01,-9.732059161660000512e+00,-1.365532446650000002e-02,-1.497152596709999950e-01,-1.818626420569999886e-03,0.000000000000000000e+00
1.870015505000000022e+00,-3.198703979110000262e+00,7.285253600169999677e-01,-9.655731124260000797e+00,2.815707214180000056e-02,6.815002113580000132e-02,3.064223565159999649e-02,0.000000000000000000e+00
1.875047141999999889e+00,-2.966606118809999693e+00,2.904739883610000239e-01,-9.724608845649999722e+00,-1.632074452940000114e-02,2.167852967979999879e-01,7.792989909649999936e-02,0.000000000000000000e+00
1.880054644999999969e+00,-2.782337054390000119e+00,1.043479001820000161e-02,-9.602871640730000991e+00,-7.161244750020000216e-02,2.619638144970000138e-01,8.651832491159999750e-02,1.000000000000000000e+00
1.884923083000000110e+00,-2.547762282579999926e+00,-4.134681345410000375e-02,-9.210230751769998392e+00,-9.133321791889999208e-02,1.826599687339999778e-01,4.193143174049999977e-02,1.000000000000000000e+00
1.890047594999999969e+00,-2.390785129709999790e+00,2.247241897300000235e-01,-9.465785475510001490e+00,-3.487858176230000662e-02,3.181696310640000358e-02,-7.755642291159999847e-03,0.000000000000000000e+00
1.894915769000000028e+00,-2.334389142620000079e+00,5.066326308530000322e-01,-1.022841995279999949e+01,-2.674958296120000245e-02,-1.262808144089999918e-01,-1.226650737229999927e-02,1.000000000000000000e+00
1.899921887000000087e+00,-2.798778778359999553e+00,4.022686951349999651e-01,-9.692020581260001322e+00,3.173043578859999908e-02,-1.714295148849999950e-01,-8.850093930959999911e-03,1.000000000000000000e+00
1.905043370000000014e+00,-3.153786979019999936e+00,3.719773825720000260e-01,-9.459379700119999512e+00,5.871771276000000567e-02,-1.043046042319999978e-01,3.342202305789999939e-02,1.000000000000000000e+00
1.910015328999999928e+00,-3.154349873600000187e+00,4.099794887080000505e-01,-9.504664364479999961e+00,6.909549236299999952e-02,-4.406028613449999853e-02,2.861764095719999956e-02,1.000000000000000000e+00
1.915084905999999920e+00,-3.175400844939999967e+00,4.883545948300000439e-01,-9.666769820139998970e+00,6.706460565330001067e-02,2.381501160559999775e-02,2.216805331409999608e-02,1.000000000000000000e+00
1.920020462000000094e+00,-2.878464601760000185e+00,4.848087754489999734e-01,-9.424617014289999872e+00,6.256091594700000091e-02,5.819759890440000250e-02,-9.672155603770000998e-03,1.000000000000000000e+00
1.924859144000000022e+00,-2.843564845549999998e+00,4.568155106949999822e-01,-9.462703876100000855e+00,7.383280992509999585e-02,2.621944807469999902e-02,-1.568957418199999967e-02,1.000000000000000000e+00
1.929984681000000091e+00,-2.665361364779999853e+00,1.743774379420000020e-01,-9.438193119700001077e+00,8.670271188019999797e-02,-3.039201535279999894e-02,-5.071318708360000004e-03,1.000000000000000000e+00
1.934943958000000075e+00,-2.539614631959999702e+00,-2.202473365769999913e-01,-9.509428802400000436e+00,1.000909358259999965e-01,-7.204098254439998683e-02,-1.494255103170000036e-02,1.000000000000000000e+00
1.939844278000000033e+00,-2.781448581119999819e+00,-3.580919189519999879e-01,-9.446085918779999702e+00,9.392821788789998405e-02,-7.930489629509999971e-02,-1.114212535319999975e-02,0.000000000000000000e+00
1.944994325999999996e+00,-3.107401659940000282e+00,4.504795582729999998e-02,-9.298665406550000512e+00,5.048565194009999729e-02,-6.725520640609999878e-02,1.292507722970000043e-02,0.000000000000000000e+00
1.950060308999999936e+00,-3.199396053029999631e+00,2.672325577770000016e-01,-9.242777515110001119e+00,2.368932962420000274e-02,-2.977375686170000146e-02,1.747571490709999911e-02,1.000000000000000000e+00
1.954947229999999925e+00,-3.208970813840000158e+00,2.975371864790000154e-01,-9.321254254979999487e+00,1.449499186129999881e-02,-1.261296495799999959e-02,1.850553601980000143e-02,0.000000000000000000e+00
1.959920459999999975e+00,-3.164549780579999805e+00,3.407353451550000356e-01,-9.261829421579999888e+00,3.008493222299999867e-02,-1.236984785649999918e-02,1.623653247950000017e-02,0.000000000000000000e+00
1.965081167999999989e+00,-3.169142953590000200e+00,3.301360635989999959e-01,-9.230865543520000216e+00,3.415235131980000338e-02,1.153786107899999920e-02,3.945937007669999413e-02,1.000000000000000000e+00
1.970055257000000060e+00,-3.033219694659999632e+00,2.663530167300000029e-01,-9.270640504550000216e+00,2.487455494700000283e-02,-2.585649024699999618e-03,5.014518648389999778e-02,1.000000000000000000e+00
1.975061125000000084e+00,-2.951477231000000145e+00,2.539397080219999991e-01,-9.321311538119999796e+00,2.256900444629999711e-02,-2.894388511780000232e-03,3.056273423140000098e-02,1.000000000000000000e+00
1.979907317000000111e+00,-2.979252834409999995e+00,2.348893724520000059e-01,-9.315759164690000205e+00,-4.134528804570000195e-03,2.638548379760000465e-03,3.475508838890000590e-02,1.000000000000000000e+00
1.984963977999999907e+00,-3.015524463500000252e+00,2.720036629029999875e-01,-9.301908918510001456e+00,-1.395361870529999992e-02,2.095389924940000217e-02,4.007802158590000052e-02,1.000000000000000000e+00
1.989896241000000066e+00,-3.003458470390000468e+00,2.043658768340000098e-01,-9.277951119819999093e+00,-1.081105135379999832e-02,2.503745257850000308e-02,4.605070129040000210e-02,1.000000000000000000e+00
1.995087119999999992e+00,-2.960976296229999694e+00,2.812564982860000229e-01,-9.317343219010000510e+00,-1.924505643550000061e-02,4.136388376359999980e-02,4.192271456119999601e-02,1.000000000000000000e+00
1.999864011000000108e+00,-2.936756631729999789e+00,3.908835969630000129e-01,-9.265301481610000778e+00,9.373039938510000944e-04,4.498945549129999832e-02,6.121089681979999947e-02,1.000000000000000000e+00
2.004907455000000116e+00,-2.817796490309999680e+00,3.466243666610000496e-01,-9.256879690219999901e+00,1.474883314220000116e-02,3.075279109180000317e-02,6.585688143969999075e-02,1.000000000000000000e+00
2.009872018999999899e+00,-2.772764923920000069e+00,3.704043245690000208e-01,-9.253763019510001797e+00,-1.167471427469999982e-02,2.984130196270000021e-02,5.261056125160000485e-02,1.000000000000000000e+00
2.015075990000000150e+00,-2.810246805579999840e+00,3.426495447460000121e-01,-9.294493089299999511e+00,1.083576306700000103e-02,2.160399220880000054e-02,6.490780413150000483e-02,1.000000000000000000e+00
2.019835260999999882e+00,-2.769481956729999972e+00,3.600107581849999461e-01,-9.352869874950000550e+00,6.869259523230000948e-04,2.642250619829999633e-02,5.281352624300000159e-02,1.000000000000000000e+00
2.024879208999999847e+00,-2.827060869999999948e+00,4.125685188200000075e-01,-9.342612100300000222e+00,-1.993434689940000101e-02,1.614704355599999933e-02,5.099634081130000746e-02,1.000000000000000000e+00
2.029857650999999930e+00,-2.915816135030000034e+00,2.549488485320000053e-01,-9.301517873370000800e+00,-3.066285513340000039e-03,1.947363279759999760e-02,6.331017613409999079e-02,1.000000000000000000e+00
2.034862545999999828e+00,-2.848388027920000010e+00,2.911734418679999825e-01,-9.356838778580000238e+00,8.735120296479999269e-03,5.779824219640000010e-03,6.525665521619999909e-02,1.000000000000000000e+00
2.039875445999999926e+00,-2.850644574679999987e+00,3.809857416749999892e-01,-9.428754844749999364e+00,2.107790205630000017e-03,1.452487660570000094e-03,6.288856267930000021e-02,1.000000000000000000e+00
2.045025799999999894e+00,-2.818913511640000369e+00,4.323884505230000119e-01,-9.380339481150000935e+00,4.629559349270000179e-03,1.422549784179999964e-02,6.741000711919999111e-02,1.000000000000000000e+00
2.049886270000000010e+00,-2.854197298719999942e+00,4.134299579550000381e-01,-9.396376423719999593e+00,1.901088631710000061e-03,1.710471697149999748e-02,5.984565988180000351e-02,1.000000000000000000e+00
2.054955291999999822e+00,-2.877491080550000024e+00,3.639031990459999921e-01,-9.360458138119998495e+00,1.200513355429999943e-02,1.717695966359999993e-02,4.732382297519999864e-02,1.000000000000000000e+00
2.059903402000000217e+00,-2.934592439430000255e+00,4.064789332410000400e-01,-9.393802773839999176e+00,-3.548898734150000324e-03,-3.058854024860000517e-03,5.751054361460000014e-02,1.000000000000000000e+00
2.065073968000000093e+00,-2.869441045089999864e+00,4.479111599560000045e-01,-9.404501862510000976e+00,5.619121249770000180e-03,-8.608386851850001117e-03,4.944171383980000556e-02,1.000000000000000000e+00
2.070042211000000076e+00,-2.911818005309999791e+00,4.250591670810000000e-01,-9.440818792030000850e+00,1.455074921249999848e-02,5.833165720109999806e-03,5.420296266670000113e-02,1.000000000000000000e+00
2.075052703999999970e+00,-2.907687189110000237e+00,4.351936441370000130e-01,-9.377112335799999698e+00,7.509620394560000828e-03,-1.780488295480000052e-03,4.726591333749999985e-02,1.000000000000000000e+00
2.080021985000000129e+00,-2.806596758640000022e+00,2.695152070879999751e-01,-9.370842754010000775e+00,2.267279475929999746e-02,-1.432400196790000000e-03,4.599626362319999412e-02,1.000000000000000000e+00
2.084961953000000090e+00,-2.710644860099999942e+00,2.042460133139999967e-01,-9.447412198949999507e+00,2.022016234699999804e-02,-4.421486519279999722e-03,4.945508390669999671e-02,1.000000000000000000e+00
2.089908104000000044e+00,-2.643807996880000122e+00,3.319685031900000416e-01,-9.511821835019999227e+00,1.278699655089999936e-02,3.011693479489999537e-03,4.419652000069999864e-02,1.000000000000000000e+00
2.095094706999999890e+00,-2.670506326449999968e+00,4.073725576120000302e-01,-9.461948089299999864e+00,2.566419914359999860e-02,-1.158152148129999899e-02,4.714081436399999991e-02,1.000000000000000000e+00
2.099923849000000065e+00,-2.655165841720000142e+00,3.232361480170000134e-01,-9.436710772190000540e+00,1.593188568949999856e-02,-2.280608937139999917e-02,2.878950722520000338e-02,1.000000000000000000e+00
2.105074686000000028e+00,-2.719152283939999748e+00,2.507415513010000097e-01,-9.434646825399999770e+00,1.701716519889999793e-02,-4.137678444389999988e-02,3.698483481999999961e-02,1.000000000000000000e+00
2.110054985000000105e+00,-2.673147196349999977e+00,2.552956892079999984e-01,-9.441798450720000346e+00,9.703059680760000444e-03,-3.472879156469999701e-02,4.188439249989999585e-02,1.000000000000000000e+00
2.115015638000000031e+00,-2.618402045209999862e+00,2.334919267440000168e-01,-9.473625083089999066e+00,1.310381293299999958e-02,-4.375439509750000261e-02,3.572820499540000500e-02,1.000000000000000000e+00
2.119955215000000059e+00,-2.614450092709999840e+00,2.342329178370000098e-01,-9.511590364349999049e+00,1.867540366950000072e-02,-6.166871264580000428e-02,4.460062459110000072e-02,1.000000000000000000e+00
2.125032742000000141e+00,-2.599088565190000200e+00,2.384703362110000002e-01,-9.576214519949999726e+00,1.875889860089999944e-02,-7.634798437360000578e-02,4.864478483799999919e-02,1.000000000000000000e+00
2.129911514999999866e+00,-2.526550567720000195e+00,2.521241830320000155e-01,-9.755002814870000094e+00,2.123560570179999774e-02,-7.925691455599999380e-02,5.278067663309999463e-02,1.000000000000000000e+00
2.134958790000000217e+00,-2.424258944770000035e+00,2.388220174590000022e-01,-9.876724822219999922e+00,3.884771093730000208e-02,-9.733361750839998605e-02,5.512094497680000010e-02,1.000000000000000000e+00
2.139914350999999826e+00,-2.341913400640000198e+00,1.190985361140000087e-01,-1.006364206309999965e+01,5.888124555350000150e-02,-1.306791901590000082e-01,6.549532711510000493e-02,1.000000000000000000e+00
2.144890026000000116e+00,-2.223771005350000163e+00,-1.333248216609999870e-01,-1.018778983630000035e+01,1.029035896060000038e-01,-1.494565904140000012e-01,6.949605047699999871e-02,1.000000000000000000e+00
2.149852373999999955e+00,-2.163573872409999765e+00,-3.941438043350000142e-01,-1.045407579739999981e+01,1.320957690479999946e-01,-2.021718770270000132e-01,1.007389277219999935e-01,0.000000000000000000e+00
2.155027025999999957e+00,-1.930079443179999910e+00,-6.927651145229999363e-01,-1.066574870929999896e+01,1.503779888150000021e-01,-2.312746942040000142e-01,1.010953262450000056e-01,0.000000000000000000e+00
2.159934981000000143e+00,-1.897113723769999982e+00,-7.071591121870001162e-01,-1.104921961880000048e+01,1.896537393330000043e-01,-3.010784387589999778e-01,1.371740251780000086e-01,0.000000000000000000e+00
2.164976282000000030e+00,-1.572367390389999953e+00,-8.658934839859999677e-01,-1.169815815890000188e+01,1.470129936929999992e-01,-4.036183953289999571e-01,1.314627081159999988e-01,0.000000000000000000e+00
2.169909650000000134e+00,-9.001444208949999082e-01,-1.171641467720000218e+00,-1.239516193390000076e+01,1.214260011910000131e-01,-5.351445674899999450e-01,1.186552047729999976e-01,0.000000000000000000e+00
2.175043700999999885e+00,-5.866079387129999878e-01,-1.602001481150000073e+00,-1.248674833069999934e+01,7.210550457239998934e-02,-7.971162796019999330e-01,1.429979503150000109e-01,0.000000000000000000e+00
2.180066383000000219e+00,1.132658753040000077e-01,-2.424671909479999776e+00,-1.320127022670000017e+01,8.811162412170001068e-02,-1.028926372529999966e+00,2.269767671819999943e-01,0.000000000000000000e+00
2.184930988000000074e+00,1.583272523020000211e+00,-3.217686912000000010e+00,-1.520537951329999871e+01,2.007545828819999878e-01,-1.440030694009999834e+00,4.341093003750000068e-01,0.000000000000000000e+00
2.189923037999999877e+00,1.519782339889999889e+00,-3.637807344040000501e+00,-1.429638133939999989e+01,2.774328291420000148e-01,-1.957978725429999844e+00,6.533087491989999496e-01,0.000000000000000000e+00
2.195086612999999964e+00,-6.733703859630000288e-01,-4.261721040650000347e+00,-1.438197287970000104e+01,2.831014096739999930e-01,-2.318482637409999825e+00,8.010213375089999532e-01,0.000000000000000000e+00
2.199893626999999796e+00,-3.479265718330000201e+00,-3.539461828359999451e+00,-1.565081325030000059e+01,5.938736349339999998e-02,-2.896885156629999791e+00,9.645483493799998920e-01,0.000000000000000000e+00
2.205067210999999805e+00,-3.017558891930000264e+00,-3.777845344800000227e+00,-1.359056765049999882e+01,-2.141092866660000149e-01,-3.266821622850000217e+00,1.150470137600000164e+00,0.000000000000000000e+00
2.209862180000000009e+00,-2.837507445209999535e+00,-7.996147222710000335e+00,-1.397915780269999964e+01,-3.016917407510000260e-01,-3.258961439129999693e+00,1.187745809559999977e+00,0.000000000000000000e+00
2.214972699000000045e+00,-4.195765051930000489e+00,-8.269112515449998924e+00,-1.308776542809999910e+01,-3.523160517220000343e-01,-3.002450466159999998e+00,1.401681780820000167e+00,0.000000000000000000e+00
2.219919371000000030e+00,-4.640302424599999753e+00,-4.724949669789999973e+00,-1.282520287140000192e+01,-3.477459251879999602e-01,-2.754266977309999920e+00,1.704163193700000134e+00,0.000000000000000000e+00
2.225063808999999893e+00,-6.024680561000000267e+00,-3.608027707319999777e+00,-1.215469781170000019e+01,-3.905312716960000485e-01,-2.556095838550000110e+00,2.009491443629999985e+00,0.000000000000000000e+00
2.229928557000000033e+00,-6.387538306119999731e+00,-4.192808540209999713e+00,-1.113237136480000089e+01,-3.155755698680000054e-01,-2.472829341890000254e+00,2.350030183789999949e+00,0.000000000000000000e+00
2.234942461999999797e+00,-6.644544982230000230e+00,-4.991670222930000733e+00,-1.083574404140000169e+01,-1.601088792089999935e-01,-2.363841772080000236e+00,2.619243383409999737e+00,0.000000000000000000e+00
2.239897179999999821e+00,-7.175598316580000358e+00,-4.603605263580000440e+00,-1.067956329959999984e+01,-2.466436661779999873e-02,-2.237486600880000065e+00,2.800042629240000469e+00,0.000000000000000000e+00
2.244893831999999811e+00,-7.720704141679999744e+00,-4.346044752980000148e+00,-1.088144430079999836e+01,7.470458000900000173e-02,-2.085763692859999630e+00,2.917397499079999790e+00,0.000000000000000000e+00
2.249890097000000200e+00,-7.946991854400000221e+00,-5.217464014649999982e+00,-1.137067392490000017e+01,8.066979050639999649e-02,-1.835739851000000034e+00,2.816058397290000404e+00,0.000000000000000000e+00
2.254940958999999800e+00,-7.590574371460000691e+00,-6.971332466049999788e+00,-1.162260285940000060e+01,5.478597804899999757e-02,-1.473196268079999927e+00,2.642640590670000122e+00,0.000000000000000000e+00
2.259915690999999782e+00,-5.133417950219999248e+00,-7.529069809189999241e+00,-1.154992223859999889e+01,-2.389220334590000036e-02,-9.664734601970000893e-01,2.465778589250000152e+00,0.000000000000000000e+00
2.265052466999999847e+00,-9.142658852280000303e+00,-7.416749251910000673e+00,-1.022079544929999884e+01,-1.730882972480000115e-01,-5.631322860719999435e-01,1.990976452830000021e+00,0.000000000000000000e+00
2.269909054999999842e+00,-7.668840683450000029e+00,-6.783208187509999654e+00,-1.061722287100000095e+01,-9.606397151949999658e-02,-1.736541390419999997e-01,1.683688163760000078e+00,0.000000000000000000e+00
2.274955979000000017e+00,-3.914279475859999469e+00,-8.474959497689999566e+00,-1.097047399890000108e+01,1.111887991430000056e-01,2.140167951579999839e-01,1.275559425349999998e+00,0.000000000000000000e+00
2.280067084000000133e+00,-1.228626725939999886e+00,-8.633077929549999752e+00,-7.999449186860001504e+00,5.286937952040000610e-01,6.259994506839999806e-01,9.482988715170000971e-01,0.000000000000000000e+00
2.284886558000000178e+00,4.862943743639999705e-01,-7.712344309610000614e+00,-5.928567626679999591e+00,8.097905516619999799e-01,8.179140090940000274e-01,7.609238624570000553e-01,0.000000000000000000e+00
2.289924453999999887e+00,6.556837034289999533e-01,-7.274682960189998937e+00,-4.916837977050000141e+00,9.649421572690000115e-01,7.154170870780000024e-01,5.542581081390000053e-01,0.000000000000000000e+00
2.295045008999999858e+00,-1.544882586609999942e-01,-7.052221527760000441e+00,-3.898116568830000350e+00,1.157748937610000084e+00,5.301972031589999856e-01,3.154076039790000285e-01,0.000000000000000000e+00
2.299909823000000131e+00,-1.167992005299999941e-01,-3.408727370249999833e+00,-3.393114206059999916e+00,1.344034433360000058e+00,4.870097041130000415e-01,1.339730322359999892e-01,0.000000000000000000e+00
2.305071519999999818e+00,8.959783872570000751e-01,-9.259747354610000647e-01,-2.219216410779999649e+00,1.567024230960000208e+00,4.976764917369999597e-01,-2.078638039530000120e-02,0.000000000000000000e+00
2.309895963999999857e+00,1.129630783529999905e+00,-1.726601820419999989e+00,-3.868199861730000411e+00,1.863356828690000189e+00,6.221942305559999831e-01,-1.038962230089999911e-01,0.000000000000000000e+00
2.315111425000000001e+00,2.365138683810000253e-01,-1.673204869009999873e+00,-4.310962333690000037e+00,2.088143348690000067e+00,8.001390099529999134e-01,-8.610998839139999417e-02,0.000000000000000000e+00
2.319869742999999929e+00,5.488633875349999691e-01,-6.229437556050000380e-01,-5.083522577200000114e+00,2.199085712430000061e+00,9.236743450159999869e-01,9.138848632569999617e-03,0.000000000000000000e+00
2.324970917999999998e+00,6.703213005899999466e-01,3.970381010050000326e-01,-4.816823359109999814e+00,2.217987537379999985e+00,9.835319519040000014e-01,1.124058067799999922e-01,0.000000000000000000e+00
2.329916680999999823e+00,2.351080932360000153e-01,1.782357171520000172e+00,-5.119810280630000321e+00,2.236547708509999843e+00,1.129512190820000095e+00,1.199575662610000010e-01,0.000000000000000000e+00
2.334910298000000051e+00,1.175502928920000023e-01,2.601072724740000286e+00,-5.265158078239999817e+00,2.219305753710000051e+00,1.198155999179999931e+00,1.240742728109999887e-01,0.000000000000000000e+00
2.339874915999999860e+00,-7.542314271489999888e-02,3.716583066850000172e+00,-5.089862886130000597e+00,2.275860786440000449e+00,1.308542251590000038e+00,1.322431564329999976e-01,0.000000000000000000e+00
2.344858116000000159e+00,-1.710779580049999818e-02,4.550684697519999489e+00,-4.890163028349999941e+00,2.326069831849999936e+00,1.368279457089999873e+00,1.452913582320000119e-01,0.000000000000000000e+00
2.349868045000000016e+00,-3.482669097039999828e-01,5.141509486740000412e+00,-5.077124985110000210e+00,2.339096784590000144e+00,1.359513878820000077e+00,1.425306200979999938e-01,0.000000000000000000e+00
2.354872438000000123e+00,-8.467368019650000077e-01,5.740370867430000246e+00,-5.238349566290000148e+00,2.329920053479999975e+00,1.329159855839999960e+00,1.122536733750000015e-01,0.000000000000000000e+00
2.359871656000000151e+00,-1.411844527739999799e+00,6.542429008099999166e+00,-5.448123366589999961e+00,2.317704439159999907e+00,1.306624770160000004e+00,5.666327476500000043e-02,0.000000000000000000e+00
2.365028655999999785e+00,-1.630690984539999944e+00,7.120462704810000432e+00,-5.720941944330000695e+00,2.279129266740000048e+00,1.309383630749999972e+00,-5.031876265999999515e-02,0.000000000000000000e+00
2.369914995999999885e+00,-1.910084410640000119e+00,7.298854693889999190e+00,-6.128227444720000250e+00,2.203706741329999996e+00,1.310898780820000109e+00,-1.753295809030000207e-01,0.000000000000000000e+00
2.374956350999999799e+00,-2.242108479940000176e+00,7.054975794899999819e+00,-6.533955194259999821e+00,2.085450410840000046e+00,1.325789451599999946e+00,-2.863180637359999947e-01,0.000000000000000000e+00
2.380069434999999789e+00,-2.444464989709999703e+00,6.835353385290000361e+00,-6.812586842209999993e+00,1.920943617820000116e+00,1.337138891220000181e+00,-3.597660660740000238e-01,0.000000000000000000e+00
2.384923442999999921e+00,-2.811295730109999891e+00,6.976836908689999284e+00,-7.120587792489999401e+00,1.702272772789999777e+00,1.367599248889999952e+00,-4.484252333640000310e-01,0.000000000000000000e+00
2.389878332999999966e+00,-3.265558962509999663e+00,7.021754493300000455e+00,-7.323609195920000481e+00,1.464086294169999913e+00,1.345013260839999836e+00,-5.176295042040000016e-01,0.000000000000000000e+00
2.395038029000000179e+00,-3.679629300719999829e+00,6.909930195110000284e+00,-7.344028299089998768e+00,1.195244073870000090e+00,1.335301995280000042e+00,-5.693304538729999642e-01,0.000000000000000000e+00
2.400076804999999869e+00,-3.783791685990000264e+00,6.791854435299999437e+00,-7.125875377510000774e+00,9.666199088099999281e-01,1.319115400310000075e+00,-5.934521555899999745e-01,0.000000000000000000e+00
2.405055190000000120e+00,-3.813282276630000300e+00,6.639992141230000477e+00,-6.920081002239999890e+00,7.324707508090000374e-01,1.250994324679999936e+00,-5.757722854610000107e-01,0.000000000000000000e+00
2.410088555000000188e+00,-3.631437224479999948e+00,6.393411582059999709e+00,-6.897816563460001049e+00,5.053469538689999707e-01,1.176869630809999956e+00,-5.735855102539999528e-01,0.000000000000000000e+00
2.415109117000000083e+00,-3.822837163700000040e+00,5.988011164780000506e+00,-6.948199427739999656e+00,2.942480742929999837e-01,1.066489100460000117e+00,-5.665347576139999619e-01,0.000000000000000000e+00
2.419924657999999784e+00,-4.523288156549999606e+00,5.371373888900000004e+00,-7.402752875260000032e+00,1.220953837039999990e-01,9.621565341949999128e-01,-5.226964354519999523e-01,0.000000000000000000e+00
2.425046420999999786e+00,-5.443590399330000551e+00,4.846882397289999922e+00,-8.201620695460000832e+00,-1.389779709279999852e-02,8.222904801369999017e-01,-4.953909814360000219e-01,0.000000000000000000e+00
2.430072666000000048e+00,-6.540336419730000905e+00,4.329013830940000140e+00,-8.876012241159999760e+00,-1.579185128210000011e-01,7.606640458110000003e-01,-5.056229829789999908e-01,0.000000000000000000e+00
2.435126932000000188e+00,-7.363471835230000373e+00,3.800356744080000571e+00,-9.130572108639999129e+00,-2.489438503979999884e-01,8.081835508349999309e-01,-5.011269450190000141e-01,0.000000000000000000e+00
2.439860574999999976e+00,-7.229858314550000387e+00,3.501204870680000081e+00,-9.028269672030001303e+00,-3.599304854869999626e-01,8.943969607350000794e-01,-5.216922760009999882e-01,0.000000000000000000e+00
2.445072450000000064e+00,-6.733599814730000688e+00,3.413015422830000034e+00,-8.437944064499999897e+00,-3.918125033380000510e-01,9.960882663729999642e-01,-5.503782033919999428e-01,0.000000000000000000e+00
2.449915845000000036e+00,-5.634880448430000577e+00,3.312778978839999944e+00,-7.601312623099999222e+00,-3.831072449679999714e-01,1.048437237739999972e+00,-5.691415071490000255e-01,0.000000000000000000e+00
2.455108323999999786e+00,-4.506246128589999955e+00,3.130257927130000173e+00,-6.769094321959999938e+00,-3.495783507820000025e-01,1.015307307239999846e+00,-5.689906477930000150e-01,0.000000000000000000e+00
2.460068275999999887e+00,-3.806307176919999868e+00,-4.433946908319999380e+00,-2.060873843999999977e+01,-8.005006909370000479e-01,8.254351019859998972e-01,-6.327971220020000009e-01,0.000000000000000000e+00
2.464907220000000176e+00,-1.638915792050000064e+01,-7.234825581569999109e+00,-1.664803798930000056e+01,-2.330131530759999681e+00,-1.815164983269999810e-01,-6.129920482640000001e-01,0.000000000000000000e+00
2.469906470000000187e+00,-1.586006478030000055e+00,-8.478155663380000817e+00,-8.172599183639999154e+00,-3.382941246029999682e+00,-4.131290912630000145e-01,1.626883000140000035e-01,0.000000000000000000e+00
2.474964872000000149e+00,-1.307154611470000027e+01,-6.181836285310000623e-01,-1.599396150180000120e+01,-4.727952957149999413e+00,-6.593965291979999588e-01,1.815933138129999791e-01,0.000000000000000000e+00
2.480048887000000146e+00,-1.421618259799999962e+01,-1.701908108670000086e+00,-2.028568254400000015e+01,-4.679265975949999934e+00,-1.114103078839999927e+00,6.108551621440000412e-01,0.000000000000000000e+00
2.484941124000000112e+00,-1.444845172319999982e+01,4.204420652069999598e+00,-1.495016322779999918e+01,-4.334642410280000746e+00,-5.514917969699999478e-01,6.618340611460000744e-01,0.000000000000000000e+00
2.489898039999999924e+00,-2.118982158750000178e+00,1.053740874510000047e+01,-1.413017721619999811e+01,-2.507584810260000019e+00,4.825136363509999748e-01,7.732222080230000127e-01,0.000000000000000000e+00
2.495051058000000044e+00,2.122394889799999795e+00,1.962781484759999984e+01,-1.623393930170000132e+01,-1.243966221810000050e+00,6.539503335949999885e-01,5.885831713679999799e-01,0.000000000000000000e+00
2.499895410999999790e+00,3.344943172609999849e+00,1.727932747539999880e+01,-1.440562263530000031e+01,-2.822286188600000023e-01,1.019418597220000056e+00,4.245503544809999807e-01,0.000000000000000000e+00
2.504940023000000071e+00,1.357066789499999926e+00,7.513278950339999263e+00,-8.525685476319999623e+00,1.783068627120000249e-01,6.831637024879999576e-01,3.425236344340000239e-01,0.000000000000000000e+00
2.510061642999999787e+00,-1.371764446279999827e+00,-1.256431409320000192e+00,-7.813257922210000928e+00,4.535354077820000218e-01,-1.397818028929999901e-01,3.317199647430000287e-01,0.000000000000000000e+00
2.515112955000000206e+00,-1.107399589429999942e+00,-3.296018690440000398e+00,-9.175144240819999908e+00,4.216850101950000429e-01,-7.071318626399999419e-01,3.302860856060000350e-01,1.000000000000000000e+00
2.520042371999999808e+00,-1.792124532299999906e+00,-2.042321820649999786e+00,-1.027733508260000050e+01,1.398718059060000130e-01,-1.150868058199999933e+00,3.346525430680000190e-01,0.000000000000000000e+00
2.524896707999999990e+00,-2.589872993080000185e+00,1.297266053729999868e-01,-1.025794415350000044e+01,-1.437004655599999903e-01,-1.183994293210000048e+00,7.275459915399999644e-02,0.000000000000000000e+00
2.529861438999999823e+00,-3.755035547099999871e+00,1.798289923060000017e+00,-1.055589249630000026e+01,-4.216521978380000091e-01,-8.621098399160000980e-01,-1.044302955270000055e-01,0.000000000000000000e+00
2.534855761999999846e+00,-3.322295871990000204e+00,2.964180060709999953e+00,-1.017279217359999954e+01,-4.725549817090000104e-01,-5.636609792710000066e-01,-2.370581626889999849e-01,0.000000000000000000e+00
2.539868919999999974e+00,-5.418035686840000587e+00,1.290912355589999949e+00,-8.553727913979999542e+00,-2.582222223280000173e-01,-1.316655725239999908e-01,-5.430954694749999534e-02,0.000000000000000000e+00
2.545059462999999855e+00,-4.420454681799999896e+00,-6.908280089810000524e-01,-9.223528624760000127e+00,-1.187129784379999803e-02,3.417171165349999762e-02,1.697930693629999821e-01,0.000000000000000000e+00
2.550022237999999941e+00,-4.609387354119999003e+00,-1.218622926060000111e+00,-8.535880707120000466e+00,6.761931627990000471e-02,5.442452058200000081e-02,2.778838574890000190e-01,0.000000000000000000e+00
2.555100490000000057e+00,-3.483188444740000556e+00,-6.899232421610000943e-01,-8.861022177300000635e+00,-1.292656734589999953e-02,-1.796459853649999827e-01,1.730419546370000061e-01,0.000000000000000000e+00
2.559871404999999989e+00,-3.722449328540000213e+00,-5.372784194090000076e-01,-9.617493455800000035e+00,-1.458228826519999966e-01,-2.471891939640000202e-01,4.779304563999998978e-02,0.000000000000000000e+00
2.564929484999999953e+00,-3.438868241489999811e+00,-1.499063285649999966e-01,-9.541661092960000090e+00,-2.545107007030000257e-01,-2.530274093150000070e-01,-7.399926334619999491e-02,0.000000000000000000e+00
2.569923849999999899e+00,-3.934365986080000432e+00,-2.233677792859999761e-02,-9.476572826980000031e+00,-2.416202276949999950e-01,-1.710366159679999887e-01,-7.529158145189999984e-02,0.000000000000000000e+00
2.575078237000000048e+00,-4.019110554160000071e+00,2.267984387210000008e-01,-9.653799279410000267e+00,-2.084344327450000089e-01,-5.725361779330000178e-02,8.998584002259999923e-03,0.000000000000000000e+00
2.580068443000000045e+00,-3.596202829499999698e+00,5.774574311929999704e-01,-9.519674302080000317e+00,-1.438131928439999874e-01,7.188812643289999027e-02,7.466763257979999735e-02,0.000000000000000000e+00
2.584951981000000121e+00,-3.467061193540000197e+00,9.864311769239999528e-01,-9.678912093360001023e+00,-1.297634840009999901e-01,1.133653000000000022e-01,7.460110634569999677e-02,0.000000000000000000e+00
2.590079677999999941e+00,-3.247684867639999862e+00,8.716052857619999150e-01,-9.708646137369999707e+00,-1.411115378140000154e-01,1.101268082860000080e-01,1.717505417759999931e-02,1.000000000000000000e+00
2.594964550999999897e+00,-3.226258633250000063e+00,6.293007234159999630e-01,-9.527109420519998650e+00,-1.328194588419999989e-01,5.380757525560000282e-02,-4.498133063319999930e-02,0.000000000000000000e+00
2.600052655999999907e+00,-3.138831401950000100e+00,3.290766176739999826e-01,-9.639263389059999909e+00,-1.253052055839999901e-01,7.321480661630000789e-03,-5.122649669649999293e-02,1.000000000000000000e+00
2.605053997999999815e+00,-3.233801888239999922e+00,2.344087127950000016e-01,-9.597033436100000259e+00,-3.364237025379999968e-02,-2.032224088910000032e-02,-2.623947523529999992e-02,0.000000000000000000e+00
2.610063921000000065e+00,-3.278130274790000520e+00,4.846750934659999760e-02,-9.521720713220000576e+00,-3.273851238190000207e-03,-8.248775266110000212e-03,3.967082593589999991e-04,0.000000000000000000e+00
2.615088306000000085e+00,-3.265251503990000082e+00,-6.547317364659999139e-02,-9.500147763839999371e+00,7.064485456789999611e-03,2.694656327369999993e-02,1.224537007510000108e-02,0.000000000000000000e+00
2.619927886999999789e+00,-3.218620977979999687e+00,-3.729385740199999549e-02,-9.526533081939998482e+00,-9.099018760030001124e-03,4.622722417119999594e-02,2.004119940099999969e-02,1.000000000000000000e+00
2.625045912000000037e+00,-3.154941117489999947e+00,1.135833072230000018e-01,-9.525578557689998505e+00,-1.396311260759999957e-02,4.186933860180000466e-02,2.223150059580000087e-02,0.000000000000000000e+00
2.630028153000000035e+00,-3.097210228540000276e+00,1.905926962159999738e-01,-9.415717084000000625e+00,-3.814746811990000347e-02,1.736161485309999780e-02,4.305202979589999555e-03,1.000000000000000000e+00
2.635053338000000078e+00,-3.160835436229999740e+00,7.965883492269999755e-02,-9.331436041769999079e+00,-2.771550230680000157e-02,1.748629286890000106e-02,-1.495804521259999891e-03,1.000000000000000000e+00
2.639930742000000219e+00,-3.255546979320000034e+00,1.333405763529999788e-01,-9.340628817529999850e+00,-1.154392957690000138e-02,1.604915969070000101e-02,7.260899525140000407e-03,1.000000000000000000e+00
2.644904171999999942e+00,-3.350734907749999714e+00,3.416107032169999891e-01,-9.346690309530000462e+00,1.111680362369999939e-02,5.171350762249999483e-02,4.004937782880000491e-02,1.000000000000000000e+00
2.649906168999999867e+00,-3.252514479750000298e+00,4.877847225199999914e-01,-9.364233564999999260e+00,-7.418418768789999951e-03,8.684387058019998884e-02,1.906951516870000057e-02,1.000000000000000000e+00
2.655112331999999853e+00,-3.203005475699999938e+00,4.380239721920000107e-01,-9.321180020699999957e+00,-1.884039491420000031e-02,8.910307288170001006e-02,-1.885385019700000150e-03,1.000000000000000000e+00
2.660087271000000086e+00,-3.164469701079999808e+00,2.665859669689999989e-01,-9.305643428869998957e+00,9.557847864930000409e-03,1.314213126900000139e-01,-5.005334969609999667e-04,1.000000000000000000e+00
2.664893156999999846e+00,-3.121021019969999699e+00,2.426213732099999909e-01,-9.297906112610000662e+00,-8.983586914840000631e-03,1.470554620030000148e-01,1.332841254769999949e-02,1.000000000000000000e+00
2.670071389999999933e+00,-3.158085260740000066e+00,4.571646529260000036e-01,-9.269211348529999839e+00,6.178676150739999609e-03,1.367050707340000115e-01,1.796554028990000190e-02,0.000000000000000000e+00
2.675083646000000037e+00,-3.076409432570000213e+00,5.291020541509999786e-01,-9.322316915770000989e+00,1.666884496809999811e-02,1.343902796510000053e-01,3.440161235630000060e-03,0.000000000000000000e+00
2.680038742999999890e+00,-3.094851390450000128e+00,4.612396838130000121e-01,-9.349098539710000821e+00,4.274426959459999738e-03,1.248505190009999988e-01,-2.547954767940000323e-02,1.000000000000000000e+00
2.685048183999999782e+00,-3.176768918420000087e+00,4.366740554199999846e-01,-9.309020211820000057e+00,2.149650361389999868e-03,1.362581849099999964e-01,-2.191579528150000220e-02,0.000000000000000000e+00
2.689917950999999974e+00,-3.145146868709999932e+00,3.966259400069999663e-01,-9.281246069710000768e+00,2.274644002320000066e-02,1.631934344769999934e-01,-5.604578927159999807e-02,1.000000000000000000e+00
2.694947763000000052e+00,-3.257463918859999641e+00,4.394149150940000470e-01,-9.292910204020000009e+00,2.296043187380000100e-02,1.784208565949999825e-01,-4.292282089590000044e-02,1.000000000000000000e+00
2.699876739000000025e+00,-3.070171414959999900e+00,3.757579240240000451e-01,-9.302751799079999273e+00,1.774571463470000013e-02,2.002692818640000039e-01,-4.953242465850000303e-02,1.000000000000000000e+00
2.705083811000000171e+00,-3.020617402720000122e+00,1.842466881900000075e-01,-9.274816913449999589e+00,4.139252007009999734e-02,1.917203217740000021e-01,-4.511801525949999531e-02,1.000000000000000000e+00
2.709912993000000103e+00,-3.022799715199999682e+00,1.129860171829999982e-01,-9.260164118720000559e+00,2.194656617940000248e-02,1.891279071570000081e-01,-3.652387857440000246e-02,0.000000000000000000e+00
2.715095085000000186e+00,-2.969213378700000128e+00,5.920911741630000003e-02,-9.263953574129999424e+00,7.825993932779998913e-03,1.932591795919999800e-01,-2.398555353279999830e-02,0.000000000000000000e+00
2.720069202999999991e+00,-2.955905276570000240e+00,2.087320178879999988e-01,-9.308820305339999379e+00,-5.463728215549999885e-03,1.807156652210000214e-01,-2.442237734790000253e-02,1.000000000000000000e+00
2.725028694000000140e+00,-2.843978394790000142e+00,3.779791072039999644e-01,-9.229304285549998710e+00,-1.762670464809999726e-02,1.716272830960000051e-01,-3.347173705699999641e-02,0.000000000000000000e+00
2.729909330999999995e+00,-2.859016973970000208e+00,3.020041758260000320e-01,-9.330323696619998941e+00,-1.811564154919999975e-02,1.548748165369999985e-01,-1.125095412139999994e-02,0.000000000000000000e+00
2.734950881000000056e+00,-2.878037023999999722e+00,1.237334111070000076e-01,-9.339172773499999636e+00,-2.021994814279999900e-02,1.308435946700000074e-01,-1.073895208540000083e-02,1.000000000000000000e+00
2.739920403000000171e+00,-2.849090623239999953e+00,8.223687785029999697e-02,-9.315590237860000400e+00,-2.091214433309999607e-02,1.406359970570000006e-01,-1.491011306639999923e-02,1.000000000000000000e+00
2.744887700000000041e+00,-2.883768261119999732e+00,2.173393036430000258e-01,-9.363709833390000625e+00,-1.329190004620000101e-02,1.261973977089999865e-01,9.390410035850000128e-03,1.000000000000000000e+00
2.749892442999999798e+00,-2.859714016320000329e+00,3.943315089270000295e-01,-9.406791434749999681e+00,-3.348956629629999682e-02,1.085043177009999971e-01,1.438912935549999756e-03,1.000000000000000000e+00
2.755090649000000003e+00,-2.895369559329999731e+00,4.767932998409999956e-01,-9.370938615600000077e+00,-2.491839975120000231e-02,7.567209750410000546e-02,1.724441535770000256e-04,1.000000000000000000e+00
2.759879629999999917e+00,-2.891950398540000133e+00,3.486568223370000164e-01,-9.319705856489999718e+00,-1.320151146500000115e-02,8.788610994820000855e-02,1.449765823780000025e-02,1.000000000000000000e+00
2.764925127999999788e+00,-2.846134988299999780e+00,2.867396058720000362e-01,-9.325370458119998318e+00,-1.129676494750000114e-02,8.018234372139999844e-02,7.989900186659999390e-03,1.000000000000000000e+00
2.769815799999999939e+00,-2.854467932359999960e+00,3.163249803889999767e-01,-9.340086965739999414e+00,2.593570854510000422e-03,8.579202741380000108e-02,9.014476090669999719e-03,1.000000000000000000e+00
2.774865209000000110e+00,-2.911255695249999942e+00,4.624714175649999870e-01,-9.366754023389999517e+00,-3.915345296260000670e-03,8.388838917020000063e-02,2.795608714219999930e-02,1.000000000000000000e+00
2.779923414000000204e+00,-2.878914391349999935e+00,4.173807048749999526e-01,-9.360060078710001008e+00,6.528151687229999736e-03,7.231128960850000120e-02,2.332959882920000380e-02,1.000000000000000000e+00
2.784916561999999818e+00,-2.780178415049999963e+00,3.595475976529999840e-01,-9.405424822569999677e+00,6.841613911089999313e-03,8.386080712080000443e-02,1.785409078000000163e-02,1.000000000000000000e+00
2.790066887000000051e+00,-2.779908950459999861e+00,4.093255183110000028e-01,-9.431631861489998769e+00,1.081091072410000041e-02,6.714318692680000533e-02,5.279158707710000786e-03,1.000000000000000000e+00
2.794967402000000156e+00,-2.807992596909999694e+00,3.702133320409999873e-01,-9.415824051510000459e+00,2.931924723090000018e-02,6.190945580599999803e-02,6.725733634079999676e-03,1.000000000000000000e+00
2.800048799999999893e+00,-2.796696419129999889e+00,3.549612197099999977e-01,-9.385145420129999749e+00,1.511243078860000089e-02,6.434525549410000100e-02,1.025882735850000040e-02,1.000000000000000000e+00
2.805061011999999909e+00,-2.763968454009999576e+00,3.346620896559999725e-01,-9.393409975129999978e+00,2.775555849080000095e-02,6.294026225809999653e-02,-1.850990811359999860e-03,1.000000000000000000e+00
2.810081575999999970e+00,-2.763233417729999974e+00,3.727007284099999596e-01,-9.380469245010001345e+00,1.553318556399999918e-02,3.675250709059999649e-02,4.887345712630000553e-03,1.000000000000000000e+00
2.815109193000000065e+00,-2.809806076070000103e+00,3.216005827050000265e-01,-9.382008291150000900e+00,2.905013971030000197e-02,1.587020605800000192e-02,2.701540663840000175e-02,1.000000000000000000e+00
2.819928292999999808e+00,-2.711209508240000066e+00,2.812990587860000335e-01,-9.357276000949999784e+00,2.726044505830000145e-02,2.239346690479999957e-02,9.555740281940000927e-03,1.000000000000000000e+00
2.824897046999999883e+00,-2.800445542530000331e+00,2.646479846440000228e-01,-9.371643548999999851e+00,2.573086507620000324e-02,1.600742526349999834e-02,1.974459551270000071e-02,1.000000000000000000e+00
2.829932111000000194e+00,-2.790284798520000109e+00,3.137422704199999690e-01,-9.352764661010001035e+00,1.615198887879999712e-02,7.661670446400000063e-03,1.386527437720000248e-03,1.000000000000000000e+00
2.834943770000000196e+00,-2.848493534129999727e+00,3.232404953990000163e-01,-9.355188673280000700e+00,2.835239283740000407e-02,5.605422891679999464e-03,1.217254996300000044e-02,1.000000000000000000e+00
2.840055157000000108e+00,-2.835505749999999825e+00,3.245123419660000397e-01,-9.359027813049999978e+00,8.515211753550000137e-03,9.360192343590000019e-03,-1.309313811359999957e-04,1.000000000000000000e+00
2.845059063999999971e+00,-2.853320515889999687e+00,3.421807216579999533e-01,-9.361578082060001194e+00,3.075156547129999710e-02,1.185304857790000013e-02,1.814638264480000068e-02,1.000000000000000000e+00
2.849936621999999975e+00,-2.824221554919999821e+00,4.500833163629999745e-01,-9.406090008479999653e+00,3.122474811970000000e-02,-8.026234805580000423e-03,1.447679288690000010e-02,1.000000000000000000e+00
2.855126730999999918e+00,-2.751845762279999885e+00,4.250193465270000193e-01,-9.525953820739998079e+00,3.863824531440000071e-02,-7.280964404339999863e-03,7.691918406640000164e-03,1.000000000000000000e+00
2.860055607000000055e+00,-2.748335416069999759e+00,3.029650019480000234e-01,-9.593113632299999693e+00,5.832662805909999415e-02,-1.868603564800000102e-02,2.058912627400000250e-02,1.000000000000000000e+00
2.865069468000000175e+00,-2.582113757250000141e+00,2.765752451350000363e-01,-9.708433371399999956e+00,6.125914305449999681e-02,-1.409144885839999813e-02,7.529404480009999588e-03,1.000000000000000000e+00
2.869947316000000193e+00,-2.462880059580000225e+00,1.310095669889999870e-01,-9.838097277670000196e+00,8.731425553560000219e-02,-3.001282736659999922e-02,7.936472073199999852e-03,0.000000000000000000e+00
2.874923220999999973e+00,-2.342562804459999981e+00,-6.044856868400000360e-02,-9.920219096030001182e+00,8.341092616320000541e-02,-7.681392133239998976e-02,9.366624057290001346e-03,0.000000000000000000e+00
2.880041008000000069e+00,-2.202345501609999978e+00,-1.965114370069999949e-01,-1.005673067620000083e+01,1.299466937779999998e-01,-9.797807037830000287e-02,6.914906669410000699e-03,0.000000000000000000e+00
2.884886498999999827e+00,-1.967473062029999831e+00,-1.744863964749999996e-01,-1.029666171440000078e+01,1.080337390299999922e-01,-1.420924663539999966e-01,9.327365085479998735e-03,0.000000000000000000e+00
2.889874214999999857e+00,-1.617467930349999916e+00,-3.882835339999999857e-01,-1.052180201060000009e+01,1.215961202980000017e-01,-2.507183551789999854e-01,2.106972225009999533e-02,0.000000000000000000e+00
2.894955884999999896e+00,-1.808938158320000156e+00,-8.551551592849999661e-01,-1.025881626009999970e+01,1.251158863309999869e-01,-3.500611186029999877e-01,3.447033092380000219e-02,0.000000000000000000e+00
2.900051577000000158e+00,-1.945718326339999971e+00,-9.900020211480000665e-01,-1.049876834109999990e+01,1.116442903879999865e-01,-4.447636902329999975e-01,5.428931117059999922e-02,0.000000000000000000e+00
2.905084844000000110e+00,-1.625568088569999903e+00,-1.208888444640000115e+00,-1.117479596349999937e+01,8.426138758659999783e-02,-5.937642455100000660e-01,9.864632785319998876e-02,0.000000000000000000e+00
2.909966510999999922e+00,-1.838088118829999784e+00,-2.073909383569999765e+00,-1.125598956109999982e+01,7.942840456960001405e-02,-7.711102962489999602e-01,1.960060596469999916e-01,0.000000000000000000e+00
2.915109450000000102e+00,-2.817939113650000049e+00,-3.177347595090000087e+00,-1.105253035079999968e+01,1.242390275000000016e-01,-9.911139607430000664e-01,3.181934952739999822e-01,0.000000000000000000e+00
2.920019684000000115e+00,-2.152230786740000124e+00,-4.187295914269999919e+00,-1.143293368950000044e+01,1.627413481470000034e-01,-1.096468925479999967e+00,4.975219666960000175e-01,0.000000000000000000e+00
2.925058232000000036e+00,-2.151885042049999974e+00,-3.933350671549999511e+00,-1.191875671999999931e+01,1.826393753290000144e-01,-1.220320105550000145e+00,6.723833084110000247e-01,0.000000000000000000e+00
2.930117212999999943e+00,-1.832070758239999986e+00,-2.777890304110000042e+00,-1.225184301170000012e+01,1.097346320749999909e-01,-1.288149833679999912e+00,8.791003823280000296e-01,0.000000000000000000e+00
