t,ax,ay,az,wx,wy,wz,zv
5.028727000000000197e-03,-3.998077118490000359e+00,-1.388719234350000109e+00,-8.843426314860000303e+00,-1.787930727010000019e-03,1.258250325920000010e-02,-7.067492231729998776e-03,1.000000000000000000e+00
1.000592200000000043e-02,-4.008068643409999687e+00,-1.415062759129999792e+00,-8.849043570219999211e+00,-1.592174172400000112e-03,-9.799223393199999604e-03,7.293021306400000216e-03,1.000000000000000000e+00
1.500696600000000006e-02,-4.004888552069999719e+00,-1.388632286720000275e+00,-8.833848923699999744e+00,1.405772287400000294e-03,8.521407842639999383e-03,1.359686953950000081e-03,1.000000000000000000e+00
1.999921400000000127e-02,-3.997218748090000329e+00,-1.408857913140000084e+00,-8.817022876579999391e+00,-3.673535073179999728e-03,-2.487541176380000246e-03,1.272537466139999837e-02,1.000000000000000000e+00
2.495102800000000010e-02,-3.970612188459999636e+00,-1.431758604000000101e+00,-8.860390309139999587e+00,-7.896505296229998708e-03,-1.035428233440000012e-02,-9.581237100060000260e-05,1.000000000000000000e+00
2.990156299999999906e-02,-3.960662456850000179e+00,-1.386260150760000087e+00,-8.820511303219999988e+00,7.452374557030000141e-04,-1.304787583649999992e-02,-1.145850215109999945e-02,1.000000000000000000e+00
3.492382699999999757e-02,-4.016035384500000305e+00,-1.387303814589999851e+00,-8.807136273339999377e+00,-4.277888685460000048e-03,-5.531398113820000170e-03,1.150458352640000136e-03,1.000000000000000000e+00
3.992708100000000315e-02,-3.987035499990000176e+00,-1.395909584240000001e+00,-8.841524865149999357e+00,-2.762980526309999872e-03,-3.651878796519999592e-03,-3.586002625519999973e-03,1.000000000000000000e+00
4.498030599999999768e-02,-3.967695424230000434e+00,-1.383957134510000131e+00,-8.832248502760000619e+00,-5.293303634970001129e-03,-4.981525707990000496e-04,-1.502107270059999979e-02,1.000000000000000000e+00
5.000168499999999711e-02,-4.038818878719999894e+00,-1.410267195419999897e+00,-8.854327063579999546e+00,7.869279943409999826e-05,-1.023165136579999926e-02,2.848365576940000386e-03,1.000000000000000000e+00
5.493075299999999883e-02,-3.985013346509999721e+00,-1.414640442070000281e+00,-8.812367159729999955e+00,-4.255773499610000093e-03,2.621396444739999831e-03,-9.742462076249999714e-03,1.000000000000000000e+00
6.002643900000000088e-02,-4.028589745649999720e+00,-1.423207341010000127e+00,-8.835316658160001779e+00,6.447707302869999484e-03,1.393510587509999912e-02,5.884127691390000220e-03,1.000000000000000000e+00
6.500621900000000397e-02,-3.960992127200000379e+00,-1.393606860260000024e+00,-8.853262064700000877e+00,2.282399218530000145e-03,-2.114510163660000049e-03,-1.578817889089999954e-02,1.000000000000000000e+00
6.999734500000000248e-02,-4.039854943769999984e+00,-1.408882024670000011e+00,-8.836129728110000414e+00,-7.060616277159999406e-03,-7.639258401469999722e-04,-2.844277536500000331e-03,1.000000000000000000e+00
7.494913500000000006e-02,-3.942612713159999949e+00,-1.398370859789999976e+00,-8.842135106000000633e+00,-9.583782404659998977e-03,-5.354532971979998612e-03,-1.926901936529999693e-02,1.000000000000000000e+00
7.999605899999999437e-02,-4.062866109259999803e+00,-1.413546363220000046e+00,-8.825358158729999403e+00,-2.798039058690000012e-04,5.803703796119999252e-03,5.385004915300000382e-03,1.000000000000000000e+00
8.500878300000000443e-02,-3.989569694639999664e+00,-1.413524443650000073e+00,-8.821849273819999837e+00,1.221012603489999952e-02,-1.274819113309999877e-02,-6.107365712520000482e-03,1.000000000000000000e+00
8.999384300000000392e-02,-3.988191392030000060e+00,-1.406633953479999866e+00,-8.834913922580000190e+00,-5.469038733280000373e-04,1.143740862609999957e-02,6.483390461649999378e-04,1.000000000000000000e+00
9.502818500000000113e-02,-4.006854299180000467e+00,-1.418443341479999953e+00,-8.828613945649999906e+00,-2.183365635570000320e-03,1.680264715109999751e-03,1.256112847479999919e-02,1.000000000000000000e+00
9.994796999999999709e-02,-3.962067062950000107e+00,-1.401937612360000029e+00,-8.849898725739999250e+00,6.444783415650000465e-03,-2.415688522159999824e-02,-3.745821304619999671e-03,1.000000000000000000e+00
1.049994249999999935e-01,-3.987060049910000181e+00,-1.398107240419999897e+00,-8.815613594300000244e+00,6.054628640410000470e-03,-9.665677323940000815e-03,-2.351190894840000239e-03,1.000000000000000000e+00
1.099786019999999948e-01,-4.044267207249999885e+00,-1.435087748419999976e+00,-8.845157668689999753e+00,-3.512071445579999836e-03,7.063895929599999998e-03,7.124327123169999984e-03,1.000000000000000000e+00
1.149738990000000044e-01,-3.986479911930000064e+00,-1.412543762050000096e+00,-8.843503471749999179e+00,3.363269846889999862e-03,-3.867293242369999450e-03,-2.915772842240000034e-03,1.000000000000000000e+00
1.199909670000000039e-01,-3.940432446509999576e+00,-1.418574128249999955e+00,-8.836294563280000958e+00,-4.722621291879999968e-03,-5.229244939979999299e-03,-1.573039591309999957e-02,1.000000000000000000e+00
1.249350409999999967e-01,-3.988163627240000508e+00,-1.414967189799999803e+00,-8.838253880660001727e+00,-5.835315678270000701e-03,-1.772318966690000080e-02,-1.211166661229999900e-02,1.000000000000000000e+00
1.300585479999999960e-01,-4.045694609709999945e+00,-1.393358000060000101e+00,-8.827968048960000758e+00,-2.992109628389999932e-03,-1.388494670389999949e-02,5.170271731910000210e-03,1.000000000000000000e+00
1.349576399999999898e-01,-3.993597342719999332e+00,-1.415932966100000190e+00,-8.819829166169999013e+00,1.260536536570000012e-02,5.228272173550000713e-03,2.426106249909999735e-03,1.000000000000000000e+00
1.399883789999999961e-01,-4.018414388590000108e+00,-1.379037067639999892e+00,-8.819903400450000319e+00,4.408555105329999696e-03,-1.465233229100000069e-02,8.978341706100000444e-03,1.000000000000000000e+00
1.449983099999999914e-01,-3.980490023869999838e+00,-1.391042562730000043e+00,-8.827351378370000390e+00,-9.615308605129999422e-03,-1.763668656350000224e-02,2.796536078680000089e-03,1.000000000000000000e+00
1.499980660000000132e-01,-4.009629901369999416e+00,-1.425684690909999830e+00,-8.847190635830001426e+00,2.904979744929999438e-03,-5.400442983960000373e-03,8.107396773989999916e-03,1.000000000000000000e+00
1.549098379999999942e-01,-3.955905325450000287e+00,-1.403982708320000272e+00,-8.812798536880000810e+00,-6.739315576850000121e-03,-5.732650868589999997e-03,-1.313656102870000043e-02,1.000000000000000000e+00
1.599497239999999876e-01,-4.051391360040000222e+00,-1.442353063249999900e+00,-8.851660474719999172e+00,-1.650384860110000115e-03,4.611182957890000629e-04,1.027333457020000035e-02,1.000000000000000000e+00
1.650008330000000134e-01,-3.962079630169999422e+00,-1.399309017420000245e+00,-8.823500548160000179e+00,8.058935636650000007e-04,-1.557927578689999835e-02,-9.018888697030000637e-03,1.000000000000000000e+00
1.700215220000000083e-01,-4.004134518829999934e+00,-1.402731393089999834e+00,-8.805650418689999981e+00,7.607935927810000401e-03,-9.561581537129999753e-03,-5.652989726510000354e-03,1.000000000000000000e+00
1.749592150000000013e-01,-4.007409010459999976e+00,-1.393405200209999917e+00,-8.824982895669998939e+00,-7.235042750839999239e-03,-1.419047825040000051e-02,2.483286662030000178e-03,1.000000000000000000e+00
1.799195470000000130e-01,-4.046175963480000526e+00,-1.434914583810000144e+00,-8.827125752919998902e+00,4.761788994070000232e-03,-2.186479512600000060e-03,1.051913946870000095e-02,1.000000000000000000e+00
1.849261399999999889e-01,-3.982679350609999780e+00,-1.413467306629999864e+00,-8.814727459120000219e+00,2.720777411010000518e-03,-2.268177270890000402e-02,-3.863944672050000084e-03,1.000000000000000000e+00
1.899739480000000036e-01,-4.026611139049999899e+00,-1.406335993449999933e+00,-8.814816890970000429e+00,-5.197082646189999516e-03,1.694456487890000015e-02,4.820581525560000032e-03,1.000000000000000000e+00
1.949414170000000057e-01,-4.058561105539999936e+00,-1.379111594179999845e+00,-8.843870551489999343e+00,1.064024120570000037e-02,2.145977690820000030e-03,1.289694663140000114e-02,1.000000000000000000e+00
1.999965220000000099e-01,-3.963455010180000126e+00,-1.426727185699999900e+00,-8.823779365100000049e+00,7.834317162630000109e-03,-7.865870138629999907e-04,2.619774779300000026e-03,1.000000000000000000e+00
2.050095710000000016e-01,-4.014807888530000035e+00,-1.436255330889999904e+00,-8.832725472619999962e+00,9.908246574920000389e-04,-1.247798651460000144e-02,9.284630417819999398e-03,1.000000000000000000e+00
2.099740160000000133e-01,-3.985947412490000286e+00,-1.438585819670000099e+00,-8.830111490730001123e+00,1.276101684200000013e-03,-1.523671112949999927e-02,-2.441447693849999826e-03,1.000000000000000000e+00
2.149822249999999990e-01,-4.027959631049999878e+00,-1.394694070969999977e+00,-8.846904804619999396e+00,6.078686099499999197e-03,1.114997826520000047e-02,3.320688148960000176e-03,1.000000000000000000e+00
2.199534810000000062e-01,-4.023752242490000519e+00,-1.400745918359999953e+00,-8.861033283219999390e+00,-3.592989174650000183e-03,-4.698683042079999581e-04,4.426243714990000210e-03,1.000000000000000000e+00
2.249649930000000020e-01,-3.975214129290000287e+00,-1.370779819160000024e+00,-8.819366809360001724e+00,2.079722238700000298e-03,-7.679992355410000110e-03,-6.091836839909999185e-04,1.000000000000000000e+00
2.300031969999999926e-01,-4.036343428520000387e+00,-1.378728732339999929e+00,-8.789698231799999206e+00,3.053728723900000185e-03,-1.562767289579999885e-02,8.419231511649999389e-03,1.000000000000000000e+00
2.349705800000000122e-01,-3.981432273159999813e+00,-1.382681853879999867e+00,-8.832717873840000067e+00,-9.462227113540002191e-03,-9.171648882329999988e-03,-8.813120424749999737e-03,1.000000000000000000e+00
2.399696390000000124e-01,-4.020616574810000010e+00,-1.409024063489999978e+00,-8.846125636939998316e+00,8.137733675540000425e-05,4.325856454669999886e-03,2.237844513730000064e-03,1.000000000000000000e+00
2.450063759999999979e-01,-4.020178475659999862e+00,-1.378052002120000230e+00,-8.841521942540000012e+00,-1.650384813550000163e-02,-1.499698497349999989e-03,1.210738066579999939e-02,1.000000000000000000e+00
2.499690440000000013e-01,-3.984189755169999625e+00,-1.397030404970000195e+00,-8.832077822369999609e+00,8.272890001540000524e-03,4.068419337270000324e-03,7.755278609689999006e-03,1.000000000000000000e+00
2.549317890000000197e-01,-3.971607336969999569e+00,-1.399649501420000108e+00,-8.853949462439999252e+00,2.204312942920000264e-03,-7.996411062780000092e-03,4.255174659189999917e-03,1.000000000000000000e+00
2.600920090000000129e-01,-3.988228216910000068e+00,-1.388459998889999936e+00,-8.801303329400001374e+00,-5.940825212749999314e-03,1.089408062399999967e-02,5.125950090589999689e-03,1.000000000000000000e+00
2.650291430000000226e-01,-3.981801983250000010e+00,-1.398304516550000098e+00,-8.839400712599999821e+00,-6.174209527669999656e-03,-1.250150031410000038e-03,2.584762172769999693e-03,1.000000000000000000e+00
2.700324230000000214e-01,-3.999831560940000585e+00,-1.406495275660000210e+00,-8.828286613390000426e+00,-2.564238384370000172e-03,1.993765588849999784e-03,3.694130340590000110e-03,1.000000000000000000e+00
2.750022039999999723e-01,-4.003079749080000305e+00,-1.394751354120000064e+00,-8.845112075990000378e+00,-1.903066039090000119e-02,-1.123759150509999992e-02,7.144061848520000951e-03,1.000000000000000000e+00
2.799890930000000222e-01,-3.998629783930000237e+00,-1.388692492470000150e+00,-8.828702792979999714e+00,6.396410753949999597e-05,8.999172598120001171e-03,1.266861241309999962e-02,1.000000000000000000e+00
2.850407549999999790e-01,-3.957996744769999964e+00,-1.437666951260000214e+00,-8.850008031339999803e+00,1.582747697830000008e-02,-1.503712381240000003e-03,7.015310693530000434e-04,1.000000000000000000e+00
2.900369099999999811e-01,-4.015267907260000158e+00,-1.412474934600000065e+00,-8.834065781319999644e+00,5.689420504499999602e-05,-4.515186883510000429e-04,7.184008136390000396e-03,1.000000000000000000e+00
2.950222800000000256e-01,-3.996052626919999629e+00,-1.382799927299999787e+00,-8.841416144080000095e+00,9.218759834769999634e-03,1.601173542440000042e-02,3.495521610599999947e-03,1.000000000000000000e+00
3.000209930000000136e-01,-3.966100556249999798e+00,-1.387772747279999885e+00,-8.856391010369998540e+00,1.079918537289999841e-02,-5.928834434600000099e-03,-3.328477963810000384e-03,1.000000000000000000e+00
3.050991699999999751e-01,-4.025209455559999761e+00,-1.368124774610000038e+00,-8.798339803419999328e+00,-1.072467421179999856e-03,1.107682473960000015e-04,3.757492406290000204e-03,1.000000000000000000e+00
3.099946270000000226e-01,-3.979056191669999798e+00,-1.395643772910000191e+00,-8.812757035829999808e+00,-1.507304329429999881e-02,2.338665071869999723e-03,-7.445039227600000128e-03,1.000000000000000000e+00
3.150019550000000002e-01,-4.009048594360000273e+00,-1.417196848549999944e+00,-8.825958462710000063e+00,3.018512856219999953e-03,9.016827680169999361e-04,7.190771866589998210e-04,1.000000000000000000e+00
3.199813089999999915e-01,-3.985148663329999952e+00,-1.406452897829999937e+00,-8.822392294660000189e+00,3.922598436470000130e-03,-2.523555420340000029e-03,-4.429243505000000393e-03,1.000000000000000000e+00
3.250099759999999782e-01,-3.993497681740000083e+00,-1.393391317810000141e+00,-8.820421286849999376e+00,3.011839929969999975e-03,4.370937123890000775e-03,2.801846712829999977e-04,1.000000000000000000e+00
3.300483639999999830e-01,-3.991580449940000275e+00,-1.401981305370000097e+00,-8.848001367689999341e+00,4.691139794890000596e-03,4.533743020149999525e-03,7.563536055389999922e-03,1.000000000000000000e+00
3.350138999999999756e-01,-4.006011710880000187e+00,-1.379155287189999912e+00,-8.833059234620000311e+00,-8.102479390800000972e-03,2.737974282349999941e-03,8.382360450920001149e-03,1.000000000000000000e+00
3.400601460000000076e-01,-4.010170876380000138e+00,-1.387429925189999969e+00,-8.837068470260000197e+00,-2.835017163309999644e-03,2.159907016900000035e-03,-9.535392746330000361e-04,1.000000000000000000e+00
3.450017670000000147e-01,-3.992131946349999794e+00,-1.399503955470000172e+00,-8.849497743729999755e+00,-3.804363310340000501e-03,-2.726407255979999920e-03,-9.232814423740000331e-03,1.000000000000000000e+00
3.500184370000000156e-01,-4.053664273409999907e+00,-1.406360104979999859e+00,-8.829485467789998765e+00,1.683519780639999852e-02,1.295901276169999887e-02,-1.416189363230000104e-03,1.000000000000000000e+00
3.550123749999999911e-01,-4.028470503180000328e+00,-1.390919666999999915e+00,-8.827532580159999753e+00,5.044926423579999993e-03,-1.474580541250000015e-02,-8.267690427600000612e-04,1.000000000000000000e+00
3.600389099999999898e-01,-4.016398080340000121e+00,-1.405126033140000175e+00,-8.812440224960001345e+00,-5.579847842450000144e-03,-5.716850049789999264e-03,2.662301762030000029e-03,1.000000000000000000e+00
3.650231829999999733e-01,-4.046501834439999890e+00,-1.407348677619999933e+00,-8.806778545940000313e+00,-4.148695617909999196e-03,-9.161189198489998881e-03,6.239278241990000098e-03,1.000000000000000000e+00
3.700181819999999733e-01,-4.026171578590000522e+00,-1.411035841699999960e+00,-8.816572794720000772e+00,-1.283548958600000053e-02,-3.268147818739999735e-03,4.286400973799999944e-03,1.000000000000000000e+00
3.750309580000000254e-01,-4.012883350210000089e+00,-1.402724524949999996e+00,-8.812283573100000211e+00,-8.988753892479999993e-03,2.647982444610000406e-03,2.953101648019999716e-03,1.000000000000000000e+00
3.800568289999999849e-01,-3.958043214259999942e+00,-1.375503778939999977e+00,-8.813505223849999126e+00,-3.312171436850000223e-03,1.465575769539999990e-02,-8.426052518189999438e-03,1.000000000000000000e+00
3.850445299999999960e-01,-4.017681690409999895e+00,-1.376634536539999898e+00,-8.818623882029999805e+00,8.562867529689998508e-03,6.063161883499999794e-03,-4.056381061670000232e-03,1.000000000000000000e+00
3.899453829999999788e-01,-4.006983478519999586e+00,-1.451755243970000109e+00,-8.830673800790000527e+00,4.362623672930000286e-03,3.425678703929999503e-03,6.424588151279999985e-03,1.000000000000000000e+00
3.949266300000000007e-01,-4.006947238159999536e+00,-1.394491095749999854e+00,-8.826417312389999381e+00,6.812496110800000601e-03,-3.199703991410000024e-03,-2.157971262929999669e-03,1.000000000000000000e+00
4.000194280000000102e-01,-4.029809058309999692e+00,-1.395554194930000103e+00,-8.809848454900000903e+00,-5.705817136910000011e-03,-2.429614542050000017e-03,3.370788646860000022e-03,1.000000000000000000e+00
4.050228100000000109e-01,-3.975788714310000138e+00,-1.412731831969999963e+00,-8.853848924670000287e+00,3.477313555780000252e-03,-1.281755603850000085e-02,1.895141554999999877e-03,1.000000000000000000e+00
4.099728559999999966e-01,-3.971730086569999596e+00,-1.393535840850000040e+00,-8.832663513299999991e+00,1.090579759329999947e-02,-1.212437450890000053e-02,9.777916129680001324e-04,1.000000000000000000e+00
4.150445899999999910e-01,-4.016119555659999563e+00,-1.387721163219999942e+00,-8.854884697460001064e+00,4.109547007829999522e-03,-3.175603691489999741e-03,1.417021173979999930e-02,1.000000000000000000e+00
4.200819869999999900e-01,-3.947931570090000175e+00,-1.418297795530000016e+00,-8.810791288709999947e+00,2.631853800269999977e-03,1.312165753919999900e-03,-2.713956637309999920e-03,1.000000000000000000e+00
4.250431170000000258e-01,-4.042307305360000491e+00,-1.408909351069999927e+00,-8.840796550880000382e+00,-3.306533908470000137e-03,-9.417055407539999924e-04,9.644313715399999501e-03,1.000000000000000000e+00
4.300379420000000064e-01,-3.954123702730000023e+00,-1.410379569749999895e+00,-8.852953437140000048e+00,2.596720121800000051e-03,-4.755920730529999627e-03,2.023255685339999874e-03,1.000000000000000000e+00
4.350273860000000159e-01,-4.026468515709999529e+00,-1.385059250530000119e+00,-8.836032697469999420e+00,2.635953482239999576e-03,-4.946057684720000548e-03,3.458082443099999743e-03,1.000000000000000000e+00
4.400525860000000233e-01,-4.010373120959999760e+00,-1.376785781579999979e+00,-8.833147497429999717e+00,3.197280690070000101e-03,-3.374156076459999907e-03,7.740053348240000415e-03,1.000000000000000000e+00
4.450216659999999824e-01,-3.998960915580000108e+00,-1.387117059850000222e+00,-8.793456707549999862e+00,3.608694532890000212e-04,-6.456328555939999658e-03,1.903522992509999907e-03,1.000000000000000000e+00
4.500347359999999908e-01,-4.008686483039999970e+00,-1.399211694529999717e+00,-8.812729563299999569e+00,-1.921159564519999948e-03,-4.991667345170000200e-03,5.779534578319999762e-03,1.000000000000000000e+00
4.550533520000000220e-01,-4.007551633800000346e+00,-1.405137431310000018e+00,-8.814756100689999485e+00,1.632851362229999909e-02,-2.002547867599999837e-02,3.534942166879999955e-03,1.000000000000000000e+00
4.599139039999999845e-01,-4.026861314419999616e+00,-1.364918087519999990e+00,-8.844573146810001063e+00,-8.839176152830000195e-04,-1.162534207110000120e-02,5.934318527580000578e-03,1.000000000000000000e+00
4.649652719999999850e-01,-3.978281407909999956e+00,-1.412332895779999875e+00,-8.819612308550000890e+00,2.914628712460000121e-03,-9.208272676910001561e-04,-8.859986439350001075e-03,1.000000000000000000e+00
4.699420730000000157e-01,-4.024493123990000143e+00,-1.403105048700000079e+00,-8.846380488490000360e+00,1.574071124200000088e-02,1.638167910280000084e-02,7.879388518629999380e-03,1.000000000000000000e+00
4.749582199999999865e-01,-3.992237452549999954e+00,-1.423149911739999940e+00,-8.837108802270000396e+00,-5.695451982320000111e-04,1.001158962029999972e-03,-5.403691437100000688e-03,1.000000000000000000e+00
4.799905130000000075e-01,-4.026200512429999989e+00,-1.421955002860000095e+00,-8.822587524970000317e+00,6.082272622730000057e-03,-9.002484381200000219e-03,1.574287936089999868e-02,1.000000000000000000e+00
4.849497110000000055e-01,-3.977780764909999878e+00,-1.401889535429999833e+00,-8.847303448550000837e+00,1.159663964060000073e-02,5.331823136660000448e-03,3.791206749159999750e-03,1.000000000000000000e+00
4.900326130000000058e-01,-3.973566069819999935e+00,-1.384008864699999952e+00,-8.842669359009999397e+00,-9.953252971169999561e-03,-1.559871807689999952e-02,-1.015505753460000000e-02,1.000000000000000000e+00
4.949500419999999790e-01,-4.052038425780000175e+00,-1.409074478500000005e+00,-8.859881775099999857e+00,-1.112530473620000106e-02,-3.815171774480000111e-03,7.136228494349999840e-03,1.000000000000000000e+00
4.999227860000000079e-01,-4.026548595209999526e+00,-1.412499046120000212e+00,-8.857649485999999683e+00,2.091553295029999898e-03,3.459097817540000060e-03,-6.285460200160000212e-03,1.000000000000000000e+00
5.049406429999999668e-01,-4.042680230319999346e+00,-1.398380066010000089e+00,-8.868948878650000367e+00,7.819146849220000653e-03,-3.019199939439999938e-03,-3.451717551800000203e-03,1.000000000000000000e+00
5.098951419999999679e-01,-4.034145626209999946e+00,-1.370741971369999979e+00,-8.826879084679999821e+00,-1.438824110660000049e-03,2.861022949220000221e-06,6.908859126270000366e-03,1.000000000000000000e+00
5.149284950000000416e-01,-4.039253178480000095e+00,-1.384861974399999918e+00,-8.821160707040000659e+00,-8.646288886669999812e-03,-7.215779740359999292e-03,5.124413408340000239e-03,1.000000000000000000e+00
5.199018899999999777e-01,-4.021624875069999661e+00,-1.364827486629999864e+00,-8.827169007540000223e+00,7.820365950470000577e-03,-5.862535908820000257e-04,1.342065911739999916e-02,1.000000000000000000e+00
5.249503800000000497e-01,-3.964671107970000108e+00,-1.387296946460000013e+00,-8.813770596779999522e+00,5.292859394099999615e-03,3.538370132449999636e-03,-9.318685159090000017e-03,1.000000000000000000e+00
5.300563360000000168e-01,-4.039153809760000158e+00,-1.393212454110000165e+00,-8.819060519889999838e+00,1.940320059659999749e-02,-1.180553692390000136e-03,-5.119615700100000645e-03,1.000000000000000000e+00
5.350278689999999893e-01,-4.044911642639999805e+00,-1.365810506319999895e+00,-8.807760542709999640e+00,6.672699004409999961e-03,-4.759368486699999679e-03,9.577741846440000414e-03,1.000000000000000000e+00
5.400208779999999820e-01,-4.030039359939999954e+00,-1.418298964570000154e+00,-8.829743241939999265e+00,-2.513119019570000424e-03,1.440058927980000054e-03,1.134935487059999908e-02,1.000000000000000000e+00
5.450491720000000262e-01,-4.011627797190000067e+00,-1.417368697989999982e+00,-8.856239619200000135e+00,1.020530052479999908e-02,-3.006035927679999876e-03,7.973798550669999874e-03,1.000000000000000000e+00
5.499921020000000382e-01,-4.013279656049999922e+00,-1.391909554820000006e+00,-8.805948524859999793e+00,-1.016091275960000033e-02,-1.850454322990000358e-02,-9.880862198770000698e-04,1.000000000000000000e+00
5.550523219999999869e-01,-3.997620022370000026e+00,-1.387129627070000204e+00,-8.787981491010000923e+00,1.540314499289999889e-02,5.830978509039999938e-03,1.040904549879999872e-03,1.000000000000000000e+00
5.600129689999999716e-01,-4.044218399680000964e+00,-1.407583801549999958e+00,-8.823053388910000905e+00,-1.294133532789999881e-02,6.511393468829999864e-03,1.685070618989999852e-02,1.000000000000000000e+00
5.650303500000000145e-01,-3.998285208280000003e+00,-1.387441469499999913e+00,-8.834926782060000150e+00,1.961738802489999996e-03,4.046994727099999939e-03,5.728700198229999888e-03,1.000000000000000000e+00
5.699950080000000252e-01,-4.004123997430000692e+00,-1.424451788120000062e+00,-8.844639782299999808e+00,-5.644320044669999883e-03,1.060101762409999988e-02,5.196103826170000127e-03,1.000000000000000000e+00
5.750217469999999720e-01,-3.979722254369999934e+00,-1.361209150000000090e+00,-8.817898490370000175e+00,3.347191959620000011e-03,-4.851644858720000064e-03,-3.560326993469999785e-03,1.000000000000000000e+00
5.800038709999999487e-01,-4.025769719790000423e+00,-1.413662244680000013e+00,-8.836267675269999344e+00,-1.346238190309999999e-03,-8.718852885069999087e-03,5.213621072470000367e-03,1.000000000000000000e+00
5.850490919999999928e-01,-4.032715885670000056e+00,-1.393479580619999991e+00,-8.848950631239999254e+00,2.188278594990000184e-04,7.747777272020001105e-03,7.307044230399998945e-03,1.000000000000000000e+00
5.900257679999999505e-01,-4.055787841439999930e+00,-1.346809307120000021e+00,-8.812572911429999323e+00,5.323957651850000014e-03,4.901206586510000254e-03,2.587310597300000042e-02,1.000000000000000000e+00
5.949935849999999915e-01,-3.966634224740000381e+00,-1.387388570259999954e+00,-8.827839454150000265e+00,3.450375981630000258e-03,6.831297185270000794e-03,-1.559213269499999785e-04,1.000000000000000000e+00
6.000212150000000522e-01,-3.973996570199999745e+00,-1.400505387599999985e+00,-8.821314436289998895e+00,2.298145089300000256e-03,8.401973173019998799e-04,-9.719355963169999321e-03,1.000000000000000000e+00
6.049843369999999831e-01,-4.027595766180000147e+00,-1.385505240739999921e+00,-8.871741139719999225e+00,-2.051367424429999947e-03,6.887275259939999207e-03,1.175872609020000084e-02,1.000000000000000000e+00
6.100166399999999989e-01,-3.983272055799999656e+00,-1.367202691329999942e+00,-8.832696831050000696e+00,-5.686539225280000279e-06,4.933532793070000318e-03,-6.848693359640001255e-03,1.000000000000000000e+00
6.149730169999999552e-01,-4.031208988240000402e+00,-1.380362909410000061e+00,-8.842104126339998871e+00,6.534066051239999923e-03,4.559364169840000348e-03,-1.746568246739999952e-03,1.000000000000000000e+00
6.200322249999999924e-01,-3.955787252029999923e+00,-1.378321466710000109e+00,-8.860286848770000390e+00,7.967949844899999134e-03,4.094677045939999760e-03,-9.485440328719998634e-03,1.000000000000000000e+00
6.250234970000000390e-01,-3.998153106330000206e+00,-1.387648974770000043e+00,-8.850991781679999448e+00,-8.159703575069999354e-03,5.714767146859999793e-03,-1.093897595999999972e-02,1.000000000000000000e+00
6.300397519999999529e-01,-4.015675611279999835e+00,-1.379143742879999968e+00,-8.835200922829999470e+00,2.881556283679999591e-03,-1.414037309589999923e-02,-9.466257877650000041e-03,1.000000000000000000e+00
6.350257990000000019e-01,-4.035581504230000505e+00,-1.386305889590000007e+00,-8.834231785529999215e+00,1.392336748540000044e-02,1.095962524410000125e-02,6.980175152420000154e-03,1.000000000000000000e+00
6.400403270000000200e-01,-3.999863417380000286e+00,-1.375449564540000003e+00,-8.827581679989998875e+00,5.477090366179999947e-03,6.805775221439999169e-03,-8.108314126729998170e-03,1.000000000000000000e+00
6.450238659999999458e-01,-3.973435429180000256e+00,-1.411115044420000020e+00,-8.813831971579999092e+00,4.376657307149999822e-03,1.997363567349999883e-02,-2.230034582320000042e-02,1.000000000000000000e+00
6.500384139999999533e-01,-4.055027670719999477e+00,-1.400615277720000051e+00,-8.844438706769999214e+00,9.313497692350000690e-03,-1.882086275150000052e-03,-3.394261468199999583e-03,1.000000000000000000e+00
6.549932800000000110e-01,-4.048546492009999831e+00,-1.394725050629999963e+00,-8.850483247630000605e+00,1.288212090729999766e-02,9.035833179950001140e-03,1.286019291729999930e-02,1.000000000000000000e+00
6.601091999999999516e-01,-3.977331852099999843e+00,-1.401784029229999673e+00,-8.842044505109999619e+00,9.505353868010000054e-03,6.619646679610000084e-03,-7.852874696249999634e-03,1.000000000000000000e+00
6.650755109999999526e-01,-4.030236928329999913e+00,-1.432691939320000163e+00,-8.832788016469999448e+00,8.265274576840000650e-03,7.394298445429999846e-03,7.318076677619999790e-03,1.000000000000000000e+00
6.700697030000000165e-01,-4.001526966680000186e+00,-1.409739810539999860e+00,-8.801284040180000545e+00,4.251180216669999887e-03,1.330067636450000005e-03,-3.507844405249999770e-03,1.000000000000000000e+00
6.750984249999999465e-01,-4.034330042869999744e+00,-1.377658765020000065e+00,-8.808443264279999241e+00,-2.539831213649999808e-03,1.240067370240000022e-02,-1.624289434400000027e-03,1.000000000000000000e+00
6.800531699999999846e-01,-4.039243826130000770e+00,-1.387189248300000122e+00,-8.810720561560000164e+00,4.545413423329999411e-03,7.015592418610000144e-04,2.072168746960000030e-03,1.000000000000000000e+00
6.850321339999999593e-01,-3.973778543530000373e+00,-1.405285315350000008e+00,-8.825910531910000856e+00,6.600419525060000417e-03,-6.233138032260000273e-03,-1.008862257000000054e-02,1.000000000000000000e+00
6.900482930000000348e-01,-4.006959805380000184e+00,-1.394749016029999789e+00,-8.847323906819999806e+00,1.158898696299999996e-02,2.135538496079999755e-03,-7.715095765890000665e-03,1.000000000000000000e+00
6.950268579999999696e-01,-3.972224884350000096e+00,-1.393504861189999833e+00,-8.829084485770000157e+00,1.597452210259999806e-03,8.569180965420000046e-03,-8.373980410400000060e-03,1.000000000000000000e+00
7.000461839999999603e-01,-4.037216119700000050e+00,-1.383818456690000032e+00,-8.825621193579999968e+00,-7.786549627779999240e-03,-1.179293915629999953e-02,4.056715406480000501e-03,1.000000000000000000e+00
7.049733799999999828e-01,-3.977183091280000138e+00,-1.414643803070000150e+00,-8.811278779969999420e+00,6.007681135090000776e-03,8.329931646590000779e-03,-1.069376338270000212e-02,1.000000000000000000e+00
7.099864200000000070e-01,-4.058767149509999506e+00,-1.412343271040000126e+00,-8.829719276539998774e+00,1.519432384520000116e-02,5.566823761909999758e-03,4.554179497060000144e-03,1.000000000000000000e+00
7.149765909999999947e-01,-3.999051224220000034e+00,-1.387692521650000010e+00,-8.853551987550000391e+00,9.432080201799999258e-03,2.947436179969999733e-03,6.605515256520000725e-03,1.000000000000000000e+00
7.199806290000000386e-01,-4.023426079280000067e+00,-1.373294724590000015e+00,-8.846015746830000026e+00,-8.321883156900000342e-03,-2.389200590549999878e-02,1.267651375379999848e-02,1.000000000000000000e+00
7.249714529999999879e-01,-3.996241719750000421e+00,-1.417416921040000055e+00,-8.854377332460000360e+00,4.637251608069999087e-03,1.695028319949999987e-02,1.061189826579999815e-02,1.000000000000000000e+00
7.299750830000000246e-01,-3.957533511169999851e+00,-1.420882843590000055e+00,-8.834629844940000254e+00,-5.680431611839999347e-03,1.188609981910000116e-03,-1.431780867279999888e-03,1.000000000000000000e+00
7.349410450000000150e-01,-4.029269836870000177e+00,-1.410232708630000165e+00,-8.856293979740000211e+00,2.507054712619999782e-03,-4.110141191630000378e-03,4.245956428349999950e-03,1.000000000000000000e+00
7.399776550000000119e-01,-4.014016153640000084e+00,-1.403078745220000201e+00,-8.856209224060000551e+00,-9.681802242989999419e-03,-5.871649365870000581e-03,-2.348625566809999779e-04,1.000000000000000000e+00
7.449857730000000178e-01,-4.001213662950000582e+00,-1.405445766610000202e+00,-8.849417664229999758e+00,-9.341530501840000777e-03,-1.119052176359999892e-03,-4.542957991359999545e-03,1.000000000000000000e+00
7.500044399999999944e-01,-4.034759958719999595e+00,-1.421916278289999891e+00,-8.831207469279998890e+00,1.783590763809999886e-03,5.029002204539999846e-05,4.812238737939999837e-03,1.000000000000000000e+00
7.549994370000000510e-01,-4.002397027509999816e+00,-1.386083625149999943e+00,-8.819169240960000877e+00,-4.826755728569999751e-03,1.440391410140000154e-03,-8.731889538469999115e-03,1.000000000000000000e+00
7.599618110000000426e-01,-4.019572034200000310e+00,-1.412218475620000024e+00,-8.812055025039999379e+00,2.050686161970000098e-04,-1.095208898189999926e-02,-9.454138576979999320e-03,1.000000000000000000e+00
7.649551639999999653e-01,-4.046899601580000727e+00,-1.409683842570000012e+00,-8.801972606960001499e+00,-9.080057032409999049e-03,-3.082734299820000159e-03,-5.969201214609999410e-03,1.000000000000000000e+00
7.699826789999999477e-01,-4.034375927840000209e+00,-1.389864897249999842e+00,-8.840821685319999901e+00,2.553042955699999766e-03,-6.594886071979999542e-03,3.892064560199999870e-04,1.000000000000000000e+00
7.750434980000000529e-01,-4.056001776449999596e+00,-1.372960231940000053e+00,-8.814498326539998985e+00,1.173347979779999946e-02,1.155838370320000016e-02,1.429325435310000066e-02,1.000000000000000000e+00
7.799935080000000021e-01,-4.023656965419999842e+00,-1.393114108300000042e+00,-8.813854183410001042e+00,-1.994348131119999794e-03,-5.496004596350001145e-03,2.997335279360000253e-03,1.000000000000000000e+00
7.849023250000000118e-01,-3.975482717099999785e+00,-1.394667913620000199e+00,-8.832219861189999577e+00,2.150700427590000047e-03,-6.165818311270000220e-03,-3.617567243050000183e-03,1.000000000000000000e+00
7.899905689999999758e-01,-4.021007619959999779e+00,-1.418571936300000003e+00,-8.854107867869998927e+00,6.789606995879999890e-04,2.991858869790000024e-03,2.380795078349999885e-03,1.000000000000000000e+00
7.950004769999999832e-01,-3.997548710699999841e+00,-1.393249425120000051e+00,-8.812654744499999637e+00,-1.002899557349999984e-02,-2.125374972820000263e-02,-1.482345862310000028e-03,1.000000000000000000e+00
7.999946119999999938e-01,-3.996615813760000080e+00,-1.400484929329999906e+00,-8.821158953470000341e+00,1.170947798530000026e-03,1.480711251499999999e-02,-2.233237959440000000e-03,1.000000000000000000e+00
8.050194250000000107e-01,-4.018999787270000290e+00,-1.363664580329999820e+00,-8.837409246529999152e+00,-4.879918415100000829e-03,-1.818036474289999940e-02,-4.102587699889999676e-03,1.000000000000000000e+00
8.099916470000000368e-01,-4.015680287459999498e+00,-1.396811501519999998e+00,-8.815926898039998960e+00,4.982844926419999904e-03,-5.897495895620000032e-03,-3.638034686449999767e-03,1.000000000000000000e+00
8.151535260000000171e-01,-4.023825307730000134e+00,-1.394575120770000121e+00,-8.830398490980000403e+00,-2.724019577729999957e-03,-9.022722952069999825e-04,3.417736152190000397e-03,1.000000000000000000e+00
8.199338139999999830e-01,-3.985441216540000386e+00,-1.411286017070000121e+00,-8.836304500149999797e+00,1.411563251170000130e-02,2.961114980279999902e-03,-8.022361434999999985e-03,1.000000000000000000e+00
8.285092549999999445e-01,-4.031441627950000495e+00,-1.372206344829999702e+00,-8.866851614110000668e+00,-7.219873368740000255e-03,5.329366307710000153e-03,-9.151577949520000102e-03,1.000000000000000000e+00
8.298802280000000531e-01,-4.066162228199999618e+00,-1.385116825939999741e+00,-8.836470504369998480e+00,-5.856902338560000115e-03,2.423387020829999988e-03,2.017185278240000296e-02,1.000000000000000000e+00
8.349229870000000053e-01,-3.989526440019999676e+00,-1.381421624679999960e+00,-8.832187127959999273e+00,-1.924875378609999799e-02,1.252867840230000029e-02,-2.355593489479999945e-03,1.000000000000000000e+00
8.400041329999999862e-01,-3.988835242890000465e+00,-1.384910489710000192e+00,-8.812613827959999924e+00,-5.975955631579999913e-03,-6.223705597220000399e-03,-1.242484152320000139e-02,1.000000000000000000e+00
8.449477930000000026e-01,-3.999805841969999776e+00,-1.402972216100000225e+00,-8.834227109360000441e+00,2.964975778010000510e-03,-9.038390591739999327e-03,-1.219949591900000054e-02,1.000000000000000000e+00
8.499716889999999747e-01,-4.039118446189999823e+00,-1.393229843639999910e+00,-8.815849741150000085e+00,-7.012690883130000795e-03,9.957572445269999295e-03,-1.584889483640000143e-03,1.000000000000000000e+00
8.549696660000000170e-01,-3.986559699169999860e+00,-1.383611097550000002e+00,-8.798414622219999259e+00,3.019774099809999918e-03,6.606740411369999531e-03,-1.095309760420000098e-02,1.000000000000000000e+00
8.599483079999999946e-01,-4.049980324199999870e+00,-1.400319655770000171e+00,-8.815445836520000356e+00,8.783932775259999798e-03,-1.414673868569999967e-03,-9.589628316459999479e-04,1.000000000000000000e+00
8.649824449999999887e-01,-4.024116984149999965e+00,-1.376557818039999992e+00,-8.808011887130000162e+00,-5.852272734049999980e-03,3.394423518329999726e-03,8.866053074600000264e-03,1.000000000000000000e+00
8.699772679999999703e-01,-3.968534505400000079e+00,-1.398360776789999926e+00,-8.847629027239999999e+00,1.098009198899999907e-02,3.081864211709999923e-03,-2.563375746829999868e-03,1.000000000000000000e+00
8.749700839999999813e-01,-4.005321682790000004e+00,-1.408908474289999990e+00,-8.832989092000000042e+00,1.495335018259999829e-03,-1.925413310529999755e-02,4.280216526239999809e-04,1.000000000000000000e+00
8.800153870000000378e-01,-4.040601085959999672e+00,-1.421831376479999909e+00,-8.828332790619999315e+00,2.518578432499999839e-03,4.066646099090000244e-03,4.225249402230000541e-03,1.000000000000000000e+00
8.850395229999999946e-01,-4.047141885909999459e+00,-1.401474671019999896e+00,-8.812947005439999870e+00,9.827072732149999545e-03,-1.263197511430000017e-02,1.093700714409999962e-02,1.000000000000000000e+00
8.900310249999999757e-01,-4.018980498040000349e+00,-1.393382403850000006e+00,-8.835953202500000714e+00,6.494698580350000833e-03,2.456287853420000174e-03,8.204700425270000305e-03,1.000000000000000000e+00
8.949919640000000287e-01,-4.007091030549999822e+00,-1.394636933959999991e+00,-8.837555377000001045e+00,-6.502778269350000494e-03,6.496171932670000496e-03,6.717954762280000346e-03,1.000000000000000000e+00
9.000056889999999976e-01,-4.012526791860000053e+00,-1.428024385909999916e+00,-8.851335480549998636e+00,1.158751174810000034e-02,1.843387447299999968e-02,2.831171499570000333e-03,1.000000000000000000e+00
9.050072420000000450e-01,-4.005608683030000172e+00,-1.380427352949999964e+00,-8.835907609790000450e+00,1.215162919829999811e-03,-2.806894248350000169e-03,1.168917492029999776e-02,1.000000000000000000e+00
9.100358889999999867e-01,-3.967480612430000164e+00,-1.363436470660000177e+00,-8.810044269740000544e+00,1.586644724010000118e-02,2.479597460480000102e-03,-1.518729701639999832e-02,1.000000000000000000e+00
9.149583869999999841e-01,-4.050874642690000194e+00,-1.422013747310000076e+00,-8.841977285089999583e+00,1.129087409940000104e-03,-7.681937888260000936e-03,2.977475756780000038e-03,1.000000000000000000e+00
9.199972229999999751e-01,-3.984947003280000288e+00,-1.382824184959999814e+00,-8.849400713089998760e+00,-3.169373667329999705e-04,3.630563151090000383e-04,-1.276955567299999962e-02,1.000000000000000000e+00
9.249755100000000008e-01,-4.042469217919999913e+00,-1.375517515209999875e+00,-8.829211911539999846e+00,2.594007179139999879e-03,2.000958658750000025e-03,1.510383794079999797e-03,1.000000000000000000e+00
9.299980289999999483e-01,-3.987301749709999399e+00,-1.362559103300000185e+00,-8.834712262530000970e+00,-1.311257947239999853e-02,1.143160462379999923e-02,-1.257849857210000151e-03,1.000000000000000000e+00
9.350380459999999561e-01,-4.016026616669999605e+00,-1.377948980140000002e+00,-8.831824139869999257e+00,6.816023495050000172e-03,-5.596521310509999791e-03,3.786520799619999805e-03,1.000000000000000000e+00
9.399905910000000420e-01,-4.006068701760000295e+00,-1.411303260470000209e+00,-8.830863770399998813e+00,1.210755947979999872e-02,2.276387996969999987e-03,1.202259864659999990e-02,1.000000000000000000e+00
9.449786380000000374e-01,-3.952077583859999965e+00,-1.394718328630000004e+00,-8.837060871480000301e+00,-3.100446658210000150e-03,8.429123554380001278e-04,-5.312787368890000382e-03,1.000000000000000000e+00
9.500363040000000536e-01,-4.030622712780000505e+00,-1.419410286820000033e+00,-8.818000197179999944e+00,1.239591091870000106e-02,4.562107846140000221e-03,1.419261097910000044e-04,1.000000000000000000e+00
9.550056900000000182e-01,-3.974883289900000172e+00,-1.398113085640000142e+00,-8.823459047110000952e+00,1.190808834510000098e-04,5.854148883370000403e-03,-1.350411865859999991e-02,1.000000000000000000e+00
9.600114560000000408e-01,-4.022920467840000569e+00,-1.374235512570000095e+00,-8.814029539979999939e+00,8.559920825059999863e-03,-4.630039911719999700e-03,-3.669303841890000049e-03,1.000000000000000000e+00
9.649773520000000104e-01,-4.004586646509999959e+00,-1.397118813899999923e+00,-8.849465010499999451e+00,1.594738289709999798e-02,5.914493929589999428e-03,-6.469658575949999157e-03,1.000000000000000000e+00
9.699658319999999723e-01,-4.020375459530000306e+00,-1.374370829390000104e+00,-8.830658018699999445e+00,-3.228013869369999664e-03,7.827384397390000845e-03,8.234845008700000758e-04,1.000000000000000000e+00
9.750008489999999473e-01,-3.963666899359999718e+00,-1.449608295069999997e+00,-8.859199638049998882e+00,2.647520275789999773e-03,-7.861101999880000524e-03,-1.291570812459999842e-02,1.000000000000000000e+00
9.799739809999999940e-01,-4.016324722840000305e+00,-1.440014829559999932e+00,-8.848642003680000201e+00,1.699541229750000000e-03,-9.385608136649998753e-03,2.117039868609999712e-03,1.000000000000000000e+00
9.849489249999999751e-01,-4.011134168459999927e+00,-1.387271958149999929e+00,-8.813580042649999058e+00,7.623542100190000038e-03,9.219614788889999440e-03,-2.635032869879999889e-04,1.000000000000000000e+00
9.899558809999999820e-01,-3.995398546930000183e+00,-1.420715670329999902e+00,-8.824442797450000597e+00,1.077382173389999920e-02,-8.513843640689999423e-03,-4.248206503689999462e-03,1.000000000000000000e+00
9.949083359999999487e-01,-3.991280005690000188e+00,-1.403771988179999930e+00,-8.791137324690000199e+00,1.657755672929999910e-02,1.023402670399999916e-03,-1.075557246800000130e-02,1.000000000000000000e+00
9.999588109999999475e-01,-4.030439757429999936e+00,-1.444784674309999906e+00,-8.856502069530000298e+00,7.255232892930000253e-03,-3.864040365440000319e-03,3.492692718280000080e-03,1.000000000000000000e+00
1.004937358000000058e+00,-3.991149949569999578e+00,-1.382740452199999970e+00,-8.834277962759999880e+00,6.503726821390000759e-03,-7.106901612129999136e-03,-2.359347417949999616e-03,1.000000000000000000e+00
1.009989712999999956e+00,-3.992973073349999957e+00,-1.389817404850000049e+00,-8.819943732460000518e+00,1.116936933249999993e-02,1.499675214289999817e-03,-6.709444336589999967e-03,1.000000000000000000e+00
1.014958974000000014e+00,-3.995156262600000119e+00,-1.410104406069999872e+00,-8.824768960660000161e+00,1.980375125999999861e-02,-9.516199119389999114e-03,-6.460733711720000397e-03,1.000000000000000000e+00
1.019956314000000086e+00,-3.998752533530000264e+00,-1.431833568930000133e+00,-8.865285095439999097e+00,-2.603553235530000221e-03,-1.914781983940000171e-03,-8.884207345549999940e-03,1.000000000000000000e+00
1.025170670000000062e+00,-4.023482777899999974e+00,-1.402965932489999901e+00,-8.832948175460000328e+00,8.383035659789999164e-03,-8.053218945860000574e-03,-4.516271408649999777e-03,1.000000000000000000e+00
1.030021118999999929e+00,-4.045629143259999339e+00,-1.395799109599999976e+00,-8.842796784780000863e+00,1.284538116309999999e-02,-2.883397974070000007e-04,-5.282787140460000128e-03,1.000000000000000000e+00
1.034976724999999931e+00,-4.092321044069999303e+00,-1.364480719020000121e+00,-8.806586822759999933e+00,1.858803210780000026e-03,2.083531953390000205e-02,6.478402763609999310e-03,1.000000000000000000e+00
1.039951222000000008e+00,-4.015452031659999754e+00,-1.364617497139999802e+00,-8.808755983490000219e+00,-9.789437754079998756e-04,-5.264385603369999694e-03,-3.879057243469999361e-03,1.000000000000000000e+00
1.044985790999999997e+00,-4.023308590380000105e+00,-1.401446760099999800e+00,-8.801490376400000315e+00,1.459166407589999968e-03,-5.878128111360000040e-03,-7.473304867739999705e-03,1.000000000000000000e+00
1.050006025999999926e+00,-4.042052161550000022e+00,-1.390941440440000010e+00,-8.826502652589999443e+00,1.067607942969999932e-02,2.241981402040000085e-02,-3.895723260940000317e-03,1.000000000000000000e+00
1.055022429000000095e+00,-4.017930404469999495e+00,-1.414902746260000121e+00,-8.837682218250000332e+00,1.145075168460000029e-02,4.206444136800000302e-03,-1.852967427109999997e-03,1.000000000000000000e+00
1.059990130999999947e+00,-3.981704075830000189e+00,-1.404054896770000171e+00,-8.812150886630000457e+00,1.904593780640000122e-02,-7.757899817079999538e-03,-7.175338454540000112e-03,1.000000000000000000e+00
1.065010149999999989e+00,-3.986940222919999943e+00,-1.394123139220000196e+00,-8.768933091670000124e+00,6.147983483969999587e-03,-1.570028997960000103e-02,-1.578414253890000202e-02,1.000000000000000000e+00
1.070010029999999945e+00,-4.113977580080000251e+00,-1.353828976620000013e+00,-8.814898139510001229e+00,2.071764692660000087e-02,7.796600926670000167e-03,4.652917385100000837e-03,1.000000000000000000e+00
1.075014662999999926e+00,-3.913612828640000263e+00,-1.418623374220000288e+00,-8.822100033710000844e+00,-1.015534158800000071e-03,4.000672139229999313e-03,-5.627370439470000783e-03,1.000000000000000000e+00
1.080055004999999957e+00,-4.078655214549999464e+00,-1.402464120449999907e+00,-8.806877914660001139e+00,1.459122076630000112e-02,-1.171674579380000032e-02,-1.213103532789999890e-02,1.000000000000000000e+00
1.085015698999999945e+00,-4.049834193730000642e+00,-1.406223472990000056e+00,-8.798279013139998384e+00,-9.250518865879998887e-03,-3.332566935570000291e-03,4.474828019739999704e-03,1.000000000000000000e+00
1.090039097000000012e+00,-4.035239266669999658e+00,-1.435121650689999973e+00,-8.838647848409999952e+00,-3.660400630909999443e-03,-1.824397034940000023e-02,1.391428802159999992e-02,1.000000000000000000e+00
1.095077371999999993e+00,-3.974612656269999711e+00,-1.457552093679999938e+00,-8.822724303089998443e+00,4.496068228039999844e-03,1.670589856799999801e-02,-1.198991481210000092e-02,1.000000000000000000e+00
1.099968907999999912e+00,-4.008764516720000337e+00,-1.410165926999999986e+00,-8.831188180050000724e+00,3.795146476480000205e-04,5.362720694390000001e-03,-3.633721265940000403e-03,1.000000000000000000e+00
1.105008140000000028e+00,-3.977485581359999856e+00,-1.439965875850000021e+00,-8.834816891939999195e+00,-4.766846075649999216e-03,3.779043909160000048e-03,-6.595719140019999822e-03,1.000000000000000000e+00
1.109957561999999953e+00,-4.033920877539999950e+00,-1.452686095079999795e+00,-8.805217287969998807e+00,8.617449551819998665e-03,-5.192286334929999700e-04,3.902624594050000100e-03,1.000000000000000000e+00
1.114963434000000086e+00,-3.937150356100000081e+00,-1.411496444950000040e+00,-8.840051869989999034e+00,-7.688122801479999914e-03,-8.508373051879999927e-03,-1.512636244299999863e-02,1.000000000000000000e+00
1.120055703000000014e+00,-4.035788424980000677e+00,-1.400455703240000016e+00,-8.813054557470000105e+00,4.098776727909999792e-03,8.518865332010001554e-03,1.623871037739999966e-03,1.000000000000000000e+00
1.125074627999999910e+00,-3.982191859349999863e+00,-1.414031954779999767e+00,-8.869086241289998895e+00,-9.230126161129999923e-04,8.889880031350000031e-03,-7.923520170149999861e-03,1.000000000000000000e+00
1.130036500000000110e+00,-4.006600032159999714e+00,-1.428020440379999867e+00,-8.832278313379999801e+00,1.660824287680000028e-03,5.146486684679999792e-03,-2.093315124509999747e-04,1.000000000000000000e+00
1.135046696999999938e+00,-3.997559524350000171e+00,-1.418446410220000065e+00,-8.827440810219998824e+00,-2.047192770989999903e-03,2.703489270060000296e-03,5.407182034109999941e-04,1.000000000000000000e+00
1.139992883999999984e+00,-3.995361137530000217e+00,-1.461366537409999999e+00,-8.841286380219999685e+00,2.191418316219999503e-03,4.507805686439999605e-03,-2.642930019649999875e-03,1.000000000000000000e+00
1.145052570999999908e+00,-3.981615520769999694e+00,-1.415989956979999853e+00,-8.809037138520000809e+00,-5.766279529779999406e-03,-1.587173528970000150e-02,1.616279361770000004e-03,1.000000000000000000e+00
1.150031824000000036e+00,-3.997987102119999747e+00,-1.423095697329999743e+00,-8.819898139750000254e+00,-9.903815574939999963e-03,1.182288629929999961e-03,-3.543977160010000280e-03,1.000000000000000000e+00
1.155054650000000072e+00,-4.005020361749999758e+00,-1.420753956510000027e+00,-8.815738097469999701e+00,-1.634040265339999987e-03,-5.093335174019999849e-03,5.278085358439999104e-03,1.000000000000000000e+00
1.160045924999999922e+00,-3.993482484169999847e+00,-1.431371650510000038e+00,-8.811659888239999461e+00,-5.597059149300000029e-03,1.711540296669999961e-02,8.165806066239999659e-04,1.000000000000000000e+00
1.164995138999999957e+00,-4.017916375940000506e+00,-1.420846749359999883e+00,-8.826474011010001064e+00,-7.904708385470001278e-03,-5.281253717839999758e-03,1.619949936870000023e-02,1.000000000000000000e+00
1.170055932999999992e+00,-3.967008903269999553e+00,-1.413676419339999768e+00,-8.828495872230000430e+00,-1.462685316799999975e-02,-2.301571425050000057e-03,-1.639542402699999991e-03,1.000000000000000000e+00
1.175035545000000070e+00,-4.026391066559999565e+00,-1.384970549339999746e+00,-8.807418597410000771e+00,3.958204295489999545e-03,-8.755527436729998447e-03,1.411585975439999877e-02,1.000000000000000000e+00
1.180036177000000075e+00,-3.980016268880000041e+00,-1.400424723579999808e+00,-8.809476114460000673e+00,-5.130280740560000559e-03,-1.366950804369999883e-03,2.434687921780000468e-03,1.000000000000000000e+00
1.185039893999999983e+00,-4.001232952169999635e+00,-1.452847569260000027e+00,-8.825390307430000192e+00,-4.337872960600000147e-04,-8.320089429620000296e-03,-5.593378562479999622e-03,1.000000000000000000e+00
1.190023735000000027e+00,-4.009291755459999607e+00,-1.427828863330000031e+00,-8.818563676280000152e+00,-7.158717606219999752e-03,1.852114219219999983e-03,-6.856835447250000416e-03,1.000000000000000000e+00
1.195050976000000098e+00,-3.996968572719999724e+00,-1.415867207380000048e+00,-8.800303212450000245e+00,-1.552638318389999890e-02,-1.165564544500000133e-02,-1.467286609109999789e-03,1.000000000000000000e+00
1.200056632999999984e+00,-3.992234529940000165e+00,-1.433759276299999996e+00,-8.811710741649999790e+00,-1.709551736710000075e-02,7.491433527319999765e-03,-5.366505123670000169e-03,1.000000000000000000e+00
1.205040236999999959e+00,-4.021349273000000224e+00,-1.407820825179999957e+00,-8.837031060860001119e+00,-2.525537088509999598e-02,1.633559353649999962e-02,6.976691074670000360e-03,1.000000000000000000e+00
1.210024560999999999e+00,-4.065055728259999945e+00,-1.399137752510000166e+00,-8.816544153149999730e+00,-1.073841936889999987e-02,-6.114074029030000350e-03,1.608454994860000070e-02,1.000000000000000000e+00
1.215044828999999993e+00,-3.986604122840000208e+00,-1.367427001599999858e+00,-8.847692740130000288e+00,-7.024555932730000042e-03,-5.016571842130000333e-03,4.319803789260000769e-03,1.000000000000000000e+00
1.220053963000000019e+00,-4.029294094529999981e+00,-1.373164814600000172e+00,-8.834916260669999133e+00,-1.890019699929999797e-02,-4.202812910079999423e-03,2.606390044090000301e-04,1.000000000000000000e+00
1.225023624000000089e+00,-4.031217463800000012e+00,-1.380626236520000161e+00,-8.859625169990000160e+00,-1.261137332769999946e-02,-5.849818699060000543e-03,1.294835377479999945e-02,1.000000000000000000e+00
1.230018822999999983e+00,-4.046493066610000078e+00,-1.421992558399999940e+00,-8.841734708510001539e+00,-4.566309042270000167e-03,8.597705513239999736e-03,1.785925589499999869e-02,1.000000000000000000e+00
1.235106052999999982e+00,-4.023341323600000408e+00,-1.381355719839999940e+00,-8.819345766569998801e+00,-8.024529553949999450e-03,1.276123896239999937e-02,1.072094403210000109e-02,1.000000000000000000e+00
1.240039770999999957e+00,-3.992756215719999613e+00,-1.373226920050000022e+00,-8.824244644530001125e+00,-6.711064837869999168e-03,6.152195390309999658e-03,1.000949367879999836e-02,1.000000000000000000e+00
1.245054901000000047e+00,-3.980490023869999838e+00,-1.411460789119999948e+00,-8.840895919600001207e+00,1.535899937150000255e-03,-6.761799566450000382e-03,6.975648924709999636e-03,1.000000000000000000e+00
1.250055565999999896e+00,-4.033201038839999697e+00,-1.368658735349999933e+00,-8.853577706519999424e+00,1.167179923500000042e-02,9.047241881490000054e-03,1.773340441290000360e-02,1.000000000000000000e+00
1.255036416999999904e+00,-4.017740142590000119e+00,-1.392269328039999809e+00,-8.842032230150000061e+00,-6.284249480809999885e-03,2.572202123699999891e-03,9.446720592680001027e-03,1.000000000000000000e+00
1.260058597000000002e+00,-4.005022407580000277e+00,-1.405341137189999756e+00,-8.831824139869999257e+00,-9.345977567139998263e-03,1.841877028349999876e-02,5.564172752199999378e-03,1.000000000000000000e+00
1.265005211999999934e+00,-3.977494349180000555e+00,-1.403062378610000049e+00,-8.831486870739999162e+00,1.392953004689999850e-02,-7.416500244290000037e-03,2.304822439330000104e-03,1.000000000000000000e+00
1.270025957999999955e+00,-3.962520067409999847e+00,-1.379032245329999906e+00,-8.806410881669998858e+00,-4.604065907190000380e-04,-1.543664559720000010e-02,-1.201514434070000137e-02,1.000000000000000000e+00
1.275075579999999986e+00,-4.069819289399999818e+00,-1.417072637649999800e+00,-8.811559935000000010e+00,-1.020038407299999998e-02,7.741675246510000725e-03,1.890284568070000129e-02,1.000000000000000000e+00
1.280020917999999952e+00,-3.944065250049999971e+00,-1.437371913829999848e+00,-8.824281469400000688e+00,1.299336086960000075e-03,-1.478276960550000026e-02,-1.875195465979999712e-02,1.000000000000000000e+00
1.285030654999999911e+00,-4.032009198699999963e+00,-1.409907860589999951e+00,-8.810282170149999814e+00,-7.133808685470000043e-05,4.766919650140000533e-03,-9.493316523729998513e-03,1.000000000000000000e+00
1.290010821999999946e+00,-4.089528198480000931e+00,-1.393324536179999962e+00,-8.826516096589999805e+00,3.340148366989999836e-03,-5.459414795040000087e-03,1.883666217329999990e-02,1.000000000000000000e+00
1.294984109000000050e+00,-3.974165204760000236e+00,-1.393434572429999907e+00,-8.822895567999999855e+00,-1.137542910869999979e-02,2.068673726170000039e-03,8.481634780760000103e-03,1.000000000000000000e+00
1.299937520000000069e+00,-4.020708929269999565e+00,-1.368468473479999892e+00,-8.836529541080000882e+00,4.818995483220000001e-03,2.736293245109999999e-04,6.792414933439999865e-03,1.000000000000000000e+00
1.305001333999999957e+00,-4.007304088779999773e+00,-1.383894882929999737e+00,-8.838377214770000379e+00,2.596640260890000027e-03,-1.195969060060000054e-02,-9.181516245010000812e-03,1.000000000000000000e+00
1.309967075000000092e+00,-4.056488975440000644e+00,-1.349209207869999982e+00,-8.815978335960000578e+00,1.964333001520000236e-03,-1.632166095079999862e-03,2.385575789959999617e-04,1.000000000000000000e+00
1.314977089000000099e+00,-4.073761012759999467e+00,-1.355264416250000048e+00,-8.833475998730000001e+00,-3.527784720059999862e-03,1.588990446180000042e-03,1.229086983950000017e-02,1.000000000000000000e+00
1.319972670999999931e+00,-4.008644397469999454e+00,-1.401742382050000124e+00,-8.837187128210000964e+00,-1.219402719289999944e-02,1.722212880849999933e-02,-7.043119985610000544e-04,1.000000000000000000e+00
1.325003565999999910e+00,-3.989664094930000182e+00,-1.364883308470000056e+00,-8.824168656679999501e+00,-2.182474825530000048e-03,1.773542724550000033e-02,-5.362691357729999428e-03,1.000000000000000000e+00
1.329996740999999982e+00,-4.000930462089999473e+00,-1.423499309699999937e+00,-8.863084370530000200e+00,3.482410218570000226e-03,1.090539805590000008e-02,-4.814878106119999807e-03,1.000000000000000000e+00
1.335037344999999931e+00,-4.056706417590000058e+00,-1.403048496209999829e+00,-8.853668307410000438e+00,-9.418357163669999893e-03,1.519966870550000168e-02,3.000565106050000121e-03,1.000000000000000000e+00
1.339959727999999961e+00,-4.010677364599999351e+00,-1.412277366200000106e+00,-8.810193322820000006e+00,-3.703887574369999804e-03,-4.175994545219999937e-03,1.430956181139999910e-04,1.000000000000000000e+00
1.344966773999999976e+00,-4.036232953879999918e+00,-1.391890850120000023e+00,-8.805724068450000885e+00,-1.358672976489999976e-02,3.954551182690000007e-03,-7.812088355419999873e-03,1.000000000000000000e+00
1.349940469000000087e+00,-4.039709690080000470e+00,-1.395595111470000038e+00,-8.814533982369999521e+00,2.413783455270000159e-03,1.730483025309999864e-03,-5.496610887349999766e-03,1.000000000000000000e+00
1.354963944000000087e+00,-4.037258789800000081e+00,-1.419439512910000145e+00,-8.813682918499999630e+00,-8.919376996349999811e-04,8.026231080290000333e-03,4.525464028120000128e-03,1.000000000000000000e+00
1.359967711999999995e+00,-4.039167546030000722e+00,-1.430415957219999923e+00,-8.858020657400000886e+00,2.131903916599999990e-02,3.851882182059999937e-03,-4.930316936219999004e-04,1.000000000000000000e+00
1.364954977000000014e+00,-4.023048185869999571e+00,-1.405515324720000070e+00,-8.855436486120000339e+00,-8.455810602749999237e-04,1.219481788579999948e-02,5.096376407890000539e-04,1.000000000000000000e+00
1.369966465000000078e+00,-3.985636739110000271e+00,-1.389467714630000073e+00,-8.779772465589999797e+00,7.586475461720000417e-03,9.532555937770000390e-03,-7.562354207040000893e-03,1.000000000000000000e+00
1.374940806999999987e+00,-4.028065429509999795e+00,-1.394638687520000087e+00,-8.824115465189999341e+00,-3.149371827019999993e-03,-8.417999371890000360e-03,1.016315165909999901e-02,1.000000000000000000e+00
1.380045462000000001e+00,-4.004771939950000359e+00,-1.438408855670000097e+00,-8.808625635110001184e+00,4.389719571920000334e-03,1.515897549690000019e-02,1.033582491799999933e-03,1.000000000000000000e+00
1.384980738000000100e+00,-4.043358567980000373e+00,-1.431326934579999932e+00,-8.812433210700000075e+00,7.094449363649999937e-03,-1.441220939160000117e-02,1.468066032979999970e-02,1.000000000000000000e+00
1.390004723999999969e+00,-4.044283281600000279e+00,-1.424228939149999817e+00,-8.831719510450000143e+00,2.385991625489999705e-03,1.891369465740000118e-03,1.052844151849999937e-02,1.000000000000000000e+00
1.394976699000000098e+00,-4.016223892809999363e+00,-1.414854377079999947e+00,-8.835085187489999825e+00,-7.504032924770000050e-03,1.054745540020000233e-02,8.003451861439999163e-03,1.000000000000000000e+00
1.399977092999999950e+00,-3.986401001479999984e+00,-1.380216925070000045e+00,-8.810824021939998474e+00,-8.478894829750000320e-03,-1.390302670190000011e-03,-2.581069711599999917e-04,1.000000000000000000e+00
1.405007668999999959e+00,-4.037665324769999842e+00,-1.394550424720000015e+00,-8.826786730220000265e+00,-1.529475953429999986e-02,7.496059406550000491e-03,6.496783345940000502e-03,1.000000000000000000e+00
1.409962162000000019e+00,-4.033533339529999928e+00,-1.377812055889999776e+00,-8.807298770419999201e+00,-8.163433521989999289e-03,3.267900086940000136e-03,2.290424518290000086e-02,1.000000000000000000e+00
1.414967555000000043e+00,-3.996361546740000215e+00,-1.418203395250000165e+00,-8.803304732349999995e+00,6.470678839829999487e-03,8.209636434909999697e-03,1.820250414309999842e-02,1.000000000000000000e+00
1.419957319999999967e+00,-4.006355702009999575e+00,-1.423104903549999856e+00,-8.828882825720000938e+00,-9.653758024799999641e-04,6.050772499290000238e-03,7.536637596789999907e-03,1.000000000000000000e+00
1.424979183000000038e+00,-3.978214772409999878e+00,-1.399321292380000026e+00,-8.817939406900000776e+00,-1.525223255160000147e-03,2.197372168300000192e-02,-3.232788294550000170e-03,1.000000000000000000e+00
1.429963587999999897e+00,-4.026632181840000158e+00,-1.393350985800000164e+00,-8.823374875949999918e+00,-3.819977166130000389e-03,1.149396784599999825e-02,6.762284319850000351e-04,1.000000000000000000e+00
1.434989808999999950e+00,-3.991126568699999932e+00,-1.395971251299999993e+00,-8.841911818639999865e+00,-1.119802985339999821e-02,6.749492604290000149e-03,-1.975214807319999790e-03,1.000000000000000000e+00
1.439963109000000019e+00,-4.004899657980000249e+00,-1.377915370129999761e+00,-8.821456475110000639e+00,-1.382479676979999879e-03,1.030407100920000159e-02,-2.916834782810000075e-03,1.000000000000000000e+00
1.445024423000000002e+00,-4.012175494200000081e+00,-1.389849553549999950e+00,-8.817221614019999265e+00,-1.219271589069999967e-02,1.581274904310000021e-02,1.074051950130000023e-02,1.000000000000000000e+00
1.449997747999999920e+00,-3.954372124530000310e+00,-1.374475897199999963e+00,-8.831375811579999180e+00,-1.451866794379999895e-02,1.796118728820000204e-02,-9.848094545299999544e-03,1.000000000000000000e+00
1.455011948999999971e+00,-4.001462669269999495e+00,-1.379422121429999981e+00,-8.842807306180000992e+00,-1.543796807529999870e-02,1.682617142800000090e-02,6.326755508779999780e-03,1.000000000000000000e+00
1.459998836000000022e+00,-4.033009900179999718e+00,-1.408988261520000007e+00,-8.849113712839999479e+00,6.909770425409999736e-03,8.726589381690000660e-03,6.612472236160000724e-03,1.000000000000000000e+00
1.465002917999999932e+00,-4.040885455859999809e+00,-1.397314336470000251e+00,-8.867586358119998735e+00,-1.525825634599999904e-02,3.988421987739999841e-03,1.952493935819999901e-02,1.000000000000000000e+00
1.470006176999999914e+00,-3.976245518169999826e+00,-1.395761554070000132e+00,-8.814685958060001880e+00,-3.354548709469999841e-03,6.137202959510000555e-03,1.298785302789999888e-02,1.000000000000000000e+00
1.474992064000000047e+00,-4.013940458050000437e+00,-1.383870917529999911e+00,-8.834852547780000620e+00,5.725516472010000468e-03,5.466854665430000322e-03,1.336458837609999810e-03,1.000000000000000000e+00
1.480058319999999927e+00,-4.043481609830000600e+00,-1.401741359140000087e+00,-8.838294212670000150e+00,-1.072209421550000125e-02,1.080856099719999970e-02,4.594889469439999465e-03,1.000000000000000000e+00
1.485025067999999893e+00,-4.041331738319999367e+00,-1.405157743449999996e+00,-8.819286145339999550e+00,-5.413964856419999430e-03,5.529019981619999512e-04,8.586378768090000002e-03,1.000000000000000000e+00
1.490016398999999936e+00,-3.987251773090000118e+00,-1.413652600070000043e+00,-8.824970620710001157e+00,-1.405177265410000043e-02,2.344458177690000172e-02,2.009007381279999914e-03,1.000000000000000000e+00
1.495017929000000079e+00,-3.990309407089999816e+00,-1.411111391159999950e+00,-8.803692270360000904e+00,-5.629126681009999182e-04,6.278038490560000282e-03,9.034853428600000079e-05,1.000000000000000000e+00
1.500015011999999981e+00,-4.007157666040000343e+00,-1.398335057820000005e+00,-8.840666202489998682e+00,-4.162782803180000227e-03,5.559080746020001081e-03,4.984912462529999741e-03,1.000000000000000000e+00
1.504986724999999970e+00,-4.026265686619999506e+00,-1.404155434540000025e+00,-8.837432042879999727e+00,-2.143184095620000174e-02,5.678295623510000445e-03,5.546814762060000778e-03,1.000000000000000000e+00
1.510001968999999944e+00,-4.018923214900000040e+00,-1.397030112700000215e+00,-8.838679997110000741e+00,-1.150964107360000037e-02,2.240368165079999543e-02,2.423912053929999644e-03,1.000000000000000000e+00
1.515053967999999918e+00,-4.015466644700000032e+00,-1.369617789639999916e+00,-8.826187595289999521e+00,-1.920812577010000063e-02,5.244032014160000463e-03,5.100529640909999898e-03,1.000000000000000000e+00
1.519995659999999971e+00,-4.017060051380000552e+00,-1.350693308939999948e+00,-8.839384930510000515e+00,-2.141191158440000023e-03,1.970451883970000123e-02,7.509421557189999499e-03,1.000000000000000000e+00
1.524954732000000091e+00,-3.987211441080000363e+00,-1.319767132539999999e+00,-8.839587175089999249e+00,-3.498331457380000203e-02,8.191395550969999412e-03,-5.660034716130000337e-03,1.000000000000000000e+00
1.529966705000000093e+00,-3.999090094919999672e+00,-1.353187756110000084e+00,-8.841361199019999617e+00,-1.570304110650000071e-02,2.289522811769999916e-02,1.593026099730000074e-03,1.000000000000000000e+00
1.535019718000000033e+00,-4.014891767429999980e+00,-1.392296946699999927e+00,-8.831099332730000029e+00,-7.612304762010000531e-03,1.623141206800000208e-02,9.275457821790001472e-03,1.000000000000000000e+00
1.539977417000000015e+00,-3.957484995859999799e+00,-1.380923319769999935e+00,-8.871914158200000955e+00,-6.942538078870000642e-03,3.053575940429999885e-02,1.151969935749999965e-02,1.000000000000000000e+00
1.544956898999999995e+00,-3.974391122469999704e+00,-1.377301622139999848e+00,-8.877103543529999641e+00,-1.466315146539999906e-02,-5.228105001150000486e-04,8.370327763260000664e-03,1.000000000000000000e+00
1.549987750000000108e+00,-3.993911815500000184e+00,-1.361759185099999936e+00,-8.873259727589999812e+00,-1.032217219470000190e-02,1.023012399670000100e-02,8.596679195760001391e-03,1.000000000000000000e+00
1.554983025000000074e+00,-3.996454777980000372e+00,-1.355489457180000024e+00,-8.841873240199999984e+00,3.989925142380000220e-03,1.506703905760000024e-02,2.896445104849999872e-03,1.000000000000000000e+00
1.559943242999999979e+00,-4.013446537050000096e+00,-1.367302206179999979e+00,-8.834485468029999566e+00,-1.418153010310000024e-02,1.116667687890000003e-02,3.330650972199999862e-03,1.000000000000000000e+00
1.564969698000000076e+00,-4.003813324049999345e+00,-1.359346424870000236e+00,-8.875245348440000015e+00,-7.395074237140000090e-03,1.683101989329999866e-03,1.301320968200000115e-03,1.000000000000000000e+00
1.570021856000000104e+00,-3.985786961230000092e+00,-1.347196552870000064e+00,-8.842181283230001299e+00,-4.416721407319999099e-03,2.204672992230000128e-02,-5.499523133039999241e-03,1.000000000000000000e+00
1.575007107000000017e+00,-4.006716059750000447e+00,-1.421045340670000101e+00,-8.849156382939998622e+00,-8.060934022069999108e-03,-2.020697575059999737e-03,4.461141303180000267e-03,1.000000000000000000e+00
1.579945198000000106e+00,-4.027608625660000108e+00,-1.405271286829999910e+00,-8.823492949380000283e+00,-8.869133889680001076e-03,1.699574664240000033e-02,1.243125926700000029e-02,1.000000000000000000e+00
1.585016807999999999e+00,-3.975457582659999822e+00,-1.389801476629999977e+00,-8.819083900760000816e+00,4.592218436299999942e-03,-1.756864832710000037e-03,-1.786719076340000057e-03,1.000000000000000000e+00
1.589967697000000069e+00,-3.976803736569999526e+00,-1.392175366150000038e+00,-8.814574314380001496e+00,-8.877757936720000187e-03,1.290032081310000037e-02,-1.045051403339999907e-02,1.000000000000000000e+00
1.594963992999999913e+00,-4.015327528490000297e+00,-1.357892134410000118e+00,-8.829780651340000119e+00,-1.514919009060000134e-02,1.361191086470000047e-02,1.176937390120000142e-02,1.000000000000000000e+00
1.599975774000000017e+00,-3.984110844709999544e+00,-1.402006293679999960e+00,-8.848109504239998202e+00,-1.757382974029999753e-02,1.180938817560000034e-02,1.036323886360000085e-02,1.000000000000000000e+00
1.604979037000000108e+00,-3.996081268490000227e+00,-1.381836342970000242e+00,-8.859774223069999621e+00,-9.452763944860000447e-03,4.779692273589999929e-03,7.889105938370000182e-03,1.000000000000000000e+00
1.609967338999999997e+00,-3.983831735509999916e+00,-1.375782011360000112e+00,-8.843400011369999092e+00,-6.856241263449999561e-03,1.453335583210000129e-02,4.123309627180000124e-03,1.000000000000000000e+00
1.614974118999999986e+00,-4.004675786099999968e+00,-1.371059220620000074e+00,-8.850383294389999378e+00,-1.022621896120000026e-02,-7.284834515299999300e-03,7.353535853329999129e-03,1.000000000000000000e+00
1.619948511000000035e+00,-4.004501598580000099e+00,-1.365123108569999966e+00,-8.860536439610001480e+00,-5.640603136270000602e-03,1.079878769810000035e-02,-4.517780616880000418e-04,1.000000000000000000e+00
1.624966957000000045e+00,-4.024530241130000796e+00,-1.367364165500000173e+00,-8.837185374640000646e+00,-1.024796976710000114e-03,2.729922533040000238e-03,1.112067513170000160e-02,1.000000000000000000e+00
1.630011620000000105e+00,-3.942901174709999346e+00,-1.349726509739999969e+00,-8.847772235109999883e+00,-1.807281002400000156e-02,1.054967381060000105e-02,-2.936205361039999871e-03,1.000000000000000000e+00
1.635007984000000025e+00,-3.944610024449999752e+00,-1.328180594490000033e+00,-8.827937069299998996e+00,-8.740492165089999710e-03,1.622753776609999962e-02,-1.103462558239999905e-02,1.000000000000000000e+00
1.639970527000000011e+00,-3.998262411930000315e+00,-1.373588154579999943e+00,-8.863765338530001259e+00,1.954993465919999986e-03,1.050646230579999930e-02,-6.233691237869999277e-03,1.000000000000000000e+00
1.644967712999999998e+00,-3.965848042790000250e+00,-1.355601831510000022e+00,-8.831585070419999184e+00,-2.735479921099999781e-02,8.465256541970000992e-03,1.143601024519999912e-03,1.000000000000000000e+00
1.649942986999999972e+00,-3.989510657930000370e+00,-1.412689308000000032e+00,-8.836726524960001328e+00,-4.526391625400000285e-03,1.505297236139999974e-02,1.340146642180000021e-02,1.000000000000000000e+00
1.655004657999999962e+00,-3.950783160130000304e+00,-1.380729550770000147e+00,-8.860411351930000734e+00,-4.022768698629999688e-03,9.513381868600000527e-03,-1.179254380989999988e-03,1.000000000000000000e+00
1.659990255999999942e+00,-3.993123879990000180e+00,-1.417631002180000044e+00,-8.865953203960000195e+00,-2.073895558709999698e-02,1.770107261839999960e-02,3.075729822739999529e-03,1.000000000000000000e+00
1.664993587999999969e+00,-4.015354708759999447e+00,-1.389900114689999855e+00,-8.830977752169999917e+00,-8.230576291680001197e-03,1.309483498329999836e-02,8.573297411199999954e-03,1.000000000000000000e+00
1.670004974999999892e+00,-3.964562679160000158e+00,-1.390266902180000042e+00,-8.860512474220000101e+00,-9.277160861530000776e-04,-6.811406929050000877e-03,3.989495337010000656e-03,1.000000000000000000e+00
1.674988184000000047e+00,-3.994416257890000210e+00,-1.383134419949999971e+00,-8.868394167379999971e+00,1.061790622770000022e-03,3.194792661819999963e-03,5.523844622080000336e-03,1.000000000000000000e+00
1.680028840000000079e+00,-3.975638784450000074e+00,-1.355760090810000040e+00,-8.861761012969999740e+00,-1.214126357809999996e-03,1.854904741050000111e-02,3.211309900510000200e-03,1.000000000000000000e+00
1.685000268000000023e+00,-3.944644218980000172e+00,-1.362871822520000054e+00,-8.851493885980000087e+00,4.487434867770001036e-03,3.953608684240000112e-04,-5.799843464050000522e-03,1.000000000000000000e+00
1.689953386000000002e+00,-4.010508145510000233e+00,-1.373585378100000032e+00,-8.876922341749999390e+00,1.968351379040000210e-02,-5.887505598369999725e-03,5.835282616320000039e-03,1.000000000000000000e+00
1.694950460999999908e+00,-3.956752589930000230e+00,-1.347261580929999925e+00,-8.850281587579999609e+00,1.791528984899999968e-02,-2.671743044630000511e-03,6.877656560389998298e-04,1.000000000000000000e+00
1.699956011999999905e+00,-3.958886387089999737e+00,-1.397269766679999803e+00,-8.854107283350000301e+00,1.683561503889999950e-02,-1.462688203900000148e-03,-7.382757030429999440e-04,1.000000000000000000e+00
1.704974052000000073e+00,-3.994941450809999850e+00,-1.357780929120000035e+00,-8.835853249250000374e+00,-2.936285454779999730e-06,-4.548867233100000081e-03,4.978425800800000828e-03,1.000000000000000000e+00
1.709971549000000035e+00,-3.995346232219999294e+00,-1.361150551679999765e+00,-8.828746047599999258e+00,1.430382952089999946e-03,1.818576827650000101e-03,-8.637523278590001144e-03,1.000000000000000000e+00
1.714929563999999962e+00,-4.031815721960000154e+00,-1.388745099440000130e+00,-8.850424795439998604e+00,-3.468751092440000377e-04,-2.331376075739999797e-03,3.403720678760000298e-03,1.000000000000000000e+00
1.719929695999999897e+00,-4.025740201439999666e+00,-1.371968298289999888e+00,-8.838414624180000345e+00,2.764495555310000300e-03,-1.218784041699999890e-02,8.842523209750000057e-03,1.000000000000000000e+00
1.724929995000000105e+00,-3.993570162459999739e+00,-1.364049341859999931e+00,-8.879453906050001066e+00,-1.043818518520000030e-02,-6.057632155720000557e-03,5.206783302130000256e-03,1.000000000000000000e+00
1.729916514999999988e+00,-3.980889836840000306e+00,-1.386598735060000198e+00,-8.868855939670000410e+00,-1.276334561410000061e-02,9.073957800870001075e-03,1.035100081940000093e-03,1.000000000000000000e+00
1.734947397000000002e+00,-3.979236224419999690e+00,-1.364814042619999945e+00,-8.820463372419999004e+00,-1.467824168499999929e-02,-3.765640081840000274e-03,2.368469489739999639e-03,1.000000000000000000e+00
1.739896528000000053e+00,-4.000203316859999525e+00,-1.354193864410000225e+00,-8.844583083679999902e+00,-8.275700733069999218e-03,-7.936701178550000305e-03,-3.245666623119999959e-03,1.000000000000000000e+00
1.744943861000000096e+00,-3.976118676919999650e+00,-1.367079064949999978e+00,-8.811780884270000058e+00,1.273932401090000117e-02,-3.441421547900000173e-03,-8.998882025479999769e-03,1.000000000000000000e+00
1.749969067999999961e+00,-3.980060108019999987e+00,-1.379179544850000161e+00,-8.827754698470000605e+00,2.929918002340000261e-03,1.297993026670000126e-02,-3.102382179349999578e-03,1.000000000000000000e+00
1.754986616999999915e+00,-3.999313966799999953e+00,-1.370902714889999929e+00,-8.834871252480001047e+00,-5.495842546220000568e-03,1.313583180310000029e-02,1.083911303429999778e-02,1.000000000000000000e+00
1.759963536999999967e+00,-3.953372007580000069e+00,-1.385222478270000224e+00,-8.846271182889999807e+00,-1.132460962979999798e-02,-2.633432624860000335e-03,-6.099583581090000338e-03,1.000000000000000000e+00
1.764958172000000047e+00,-3.994358682480000144e+00,-1.335032360079999814e+00,-8.821430171630000316e+00,1.628237217660000180e-02,2.679240424190000125e-04,-4.742698743939999934e-03,1.000000000000000000e+00
1.769935891000000039e+00,-3.985377503650000097e+00,-1.373581724839999962e+00,-8.870568004279999030e+00,-1.784168928859999892e-02,4.372089635580000098e-03,7.985585834830000824e-04,1.000000000000000000e+00
1.774918647000000016e+00,-3.956511182390000325e+00,-1.375922442750000085e+00,-8.855775508819998976e+00,-6.275691557680000178e-03,1.705592032520000063e-03,4.435236565770000680e-03,1.000000000000000000e+00
1.779960892999999933e+00,-4.025334250990000307e+00,-1.399753107929999851e+00,-8.886019840439999484e+00,2.855936065320000168e-03,1.378505025060000003e-03,1.181179843840000042e-02,1.000000000000000000e+00
1.784971521999999977e+00,-4.013081210869999360e+00,-1.367482531180000072e+00,-8.872795617199999541e+00,1.659420505169999921e-02,3.449381794780000555e-03,7.124779745939999361e-03,1.000000000000000000e+00
1.789974155999999983e+00,-3.940422801900000049e+00,-1.360296419069999985e+00,-8.850180465289998466e+00,1.412255037579999983e-02,1.326378993689999834e-02,-1.377345807850000048e-02,1.000000000000000000e+00
1.794932799999999995e+00,-4.025780533449999865e+00,-1.387543760830000084e+00,-8.848045206830001064e+00,1.853007823230000059e-02,3.744510468099999782e-04,-4.186072386799999899e-03,1.000000000000000000e+00
1.799968167999999924e+00,-3.991050580849999641e+00,-1.363774908829999966e+00,-8.847244411839998435e+00,1.469308882949999992e-02,1.215550582860000067e-04,-8.448923006650000539e-03,1.000000000000000000e+00
1.804942274999999929e+00,-3.964205828540000365e+00,-1.362834413109999865e+00,-8.863632067539999326e+00,1.209379266950000135e-02,5.127812270079999853e-03,-1.116244122389999961e-02,1.000000000000000000e+00
1.809953270000000058e+00,-4.004368912109999457e+00,-1.349618080930000019e+00,-8.852683388019999100e+00,1.719296351079999813e-02,9.117307141419998817e-03,1.236084615809999922e-03,1.000000000000000000e+00
1.814906727999999969e+00,-4.000058939949999726e+00,-1.344612966120000142e+00,-8.833006627650000553e+00,1.583793386819999996e-02,1.160160079600000040e-02,5.258449818940000558e-04,1.000000000000000000e+00
1.819970996999999979e+00,-3.968072148580000569e+00,-1.363694829339999748e+00,-8.831033281749999020e+00,-3.143440932039999816e-03,1.791202463210000073e-03,-6.889002397659999520e-03,1.000000000000000000e+00
1.824979490000000037e+00,-3.985291871190000279e+00,-1.380731158199999919e+00,-8.875075252569999407e+00,7.928247563539998766e-03,3.366977442059999881e-03,-5.116276908670000685e-03,1.000000000000000000e+00
1.829997421999999929e+00,-3.934667891630000636e+00,-1.352281016529999880e+00,-8.881571628859999734e+00,1.042226236310000130e-02,-9.074958506969999558e-04,-2.343748696150000158e-02,1.000000000000000000e+00
1.834937872000000025e+00,-4.029996397579999723e+00,-1.341407594200000108e+00,-8.866991899360000318e+00,9.142344817519999778e-03,1.423147134480000006e-02,8.551923092450001117e-04,1.000000000000000000e+00
1.839984268999999895e+00,-3.992073201899999813e+00,-1.381785197299999934e+00,-8.871807775209999747e+00,1.616060733799999996e-02,-1.448188442740000036e-03,-9.169861674309999836e-03,1.000000000000000000e+00
1.844934918000000090e+00,-3.960308821109999933e+00,-1.394882433150000045e+00,-8.859563210669998412e+00,3.264999017119999628e-03,7.609817665069999564e-03,-1.839784532790000177e-02,1.000000000000000000e+00
1.849971556000000072e+00,-3.970632354459999735e+00,-1.399510092949999951e+00,-8.844054675889999828e+00,1.613207906479999926e-02,5.735950544480001309e-04,-2.176819182930000290e-02,1.000000000000000000e+00
1.854982555999999949e+00,-4.021283806549999618e+00,-1.364910342609999994e+00,-8.830110321689998543e+00,1.604224741459999923e-02,7.919989526270000343e-03,2.820582361889999602e-03,1.000000000000000000e+00
1.859938633999999924e+00,-3.931347515040000129e+00,-1.367418379900000147e+00,-8.845564495930000604e+00,3.091778839010000252e-03,2.022950444369999920e-03,-1.909798197450000151e-02,1.000000000000000000e+00
1.864989304000000070e+00,-3.983564901269999847e+00,-1.391202283329999956e+00,-8.843134638430001360e+00,1.265431661160000207e-02,-3.477085381750000086e-03,-1.214636955409999913e-02,1.000000000000000000e+00
1.870007492000000049e+00,-4.026758146309999731e+00,-1.380340259190000030e+00,-8.835328348600000936e+00,1.592351496219999996e-02,5.142258014529999845e-03,4.118070006369999730e-03,1.000000000000000000e+00
1.874967213999999993e+00,-4.015160062969999721e+00,-3.412733391020000173e+00,-8.258854740810001260e+00,-4.225982725619999852e-02,-1.142399758099999774e-01,-5.017125047739999337e-03,1.000000000000000000e+00
1.879974819999999935e+00,-3.658486267190000252e+00,-1.215530366870000156e+00,-9.020112084539999131e+00,-6.611716002230000333e-02,-3.441082313660000225e-02,8.824251592159999824e-03,1.000000000000000000e+00
1.884976199000000019e+00,-3.283852159570000318e+00,6.269355286550000461e-02,-7.842980860299999968e+00,-2.336260676379999998e-02,-6.557458639139999990e-02,-1.035160850729999887e-02,1.000000000000000000e+00
1.889985350999999980e+00,-4.412308784750000434e+00,-1.012174836120000032e+00,-8.518369600349998905e+00,4.914075881240000110e-02,2.304268442089999966e-02,-3.880266100170000169e-03,1.000000000000000000e+00
1.894993195000000075e+00,-4.299868984999999810e+00,-9.304984964960000271e-01,-8.806371134179999061e+00,9.374009817839998315e-02,6.579995155329999845e-02,-1.477269455789999991e-02,1.000000000000000000e+00
1.899998996999999967e+00,-3.867798002930000312e+00,-1.559885948350000051e+00,-9.342360171370000188e+00,2.977547794579999893e-02,3.591291233899999991e-02,-3.597849980000000086e-02,1.000000000000000000e+00
1.905017111999999901e+00,-3.748450323490000180e+00,-2.038274883350000177e+00,-8.869111375730000191e+00,-3.481290116909999816e-02,4.995960742240000176e-03,-9.684484452009999023e-03,1.000000000000000000e+00
1.909964234999999899e+00,-3.730339497260000137e+00,-1.633384607540000033e+00,-8.822506860949999918e+00,-3.537139622489999559e-03,-2.828648127619999911e-02,-3.252935362980000425e-03,1.000000000000000000e+00
1.914959684000000051e+00,-4.165337764960000300e+00,-1.009117494379999869e+00,-8.745432389099999426e+00,1.840352639559999712e-02,-2.409802563489999924e-02,8.763383142649999041e-03,1.000000000000000000e+00
1.919979427999999988e+00,-4.088559645700000189e+00,-1.050601597410000032e+00,-8.848926081320000137e+00,2.719475701450000185e-02,-5.820966791359999566e-03,2.496490022169999858e-03,1.000000000000000000e+00
1.924973115000000012e+00,-3.958563438740000162e+00,-1.470119460440000081e+00,-8.765380952150000127e+00,5.233771633359999773e-03,1.736657693979999986e-02,-1.786638237540000285e-02,1.000000000000000000e+00
1.929902841000000091e+00,-3.967666490390000522e+00,-1.519723449310000030e+00,-8.837161993769999668e+00,3.981682937589999839e-03,1.929731480779999994e-02,-2.986060688269999604e-03,1.000000000000000000e+00
1.934912640000000073e+00,-3.939408071899999975e+00,-1.465749136399999930e+00,-8.923395923630000226e+00,9.013311937450000852e-03,4.733514040709999905e-03,-3.413594327869999643e-03,1.000000000000000000e+00
1.940030509999999930e+00,-3.954790057679999915e+00,-1.385303872949999793e+00,-8.841318528920000475e+00,-1.434382330629999959e-02,-2.181336050849999857e-03,-1.931721461009999882e-03,1.000000000000000000e+00
1.944998637999999946e+00,-3.882307297540000146e+00,-1.375985571109999972e+00,-8.832854067439999568e+00,-1.770300045609999803e-02,-1.176456548270000090e-02,1.116892090070000041e-03,1.000000000000000000e+00
1.949980134999999892e+00,-4.063504699430000144e+00,-1.336607208179999784e+00,-8.756239029790000572e+00,-1.106916274879999988e-02,-8.292919024830000194e-03,3.645499469710000023e-03,1.000000000000000000e+00
1.954986376999999997e+00,-4.098926725940000182e+00,-1.386859139560000065e+00,-8.801607280780000764e+00,4.330952651800000150e-03,1.524258777500000009e-02,1.033810526129999921e-02,1.000000000000000000e+00
1.959950977999999955e+00,-3.878087926280000097e+00,-1.406829329920000093e+00,-8.836481025760001273e+00,-9.479724802079999776e-03,1.759789697829999833e-02,-4.884731955830000014e-03,1.000000000000000000e+00
1.965015785999999931e+00,-3.930866745779999949e+00,-1.508868293289999940e+00,-8.800434729870000083e+00,-2.106012776490000238e-02,-1.294644922020000109e-02,1.516626123339999931e-02,1.000000000000000000e+00
1.970010465999999960e+00,-3.982141882730000138e+00,-1.394501909399999962e+00,-8.821008731339999187e+00,-2.539323642849999809e-03,2.478441689159999965e-03,1.041625067589999933e-02,1.000000000000000000e+00
1.975007469999999987e+00,-3.981202556050000396e+00,-1.363224727610000020e+00,-8.776198698760000028e+00,-7.429793477060001169e-04,7.215612102299999789e-03,1.038865651940000003e-02,1.000000000000000000e+00
1.980037781999999913e+00,-3.989091263480000649e+00,-1.339416858779999941e+00,-8.790701855889999194e+00,1.486495602880000049e-03,-6.901557091619999786e-03,-6.184050813319999854e-03,1.000000000000000000e+00
1.984998612999999912e+00,-4.065944493790000003e+00,-1.441491039590000023e+00,-8.897698003269999489e+00,1.133850682529999841e-02,2.511518541719999931e-03,2.276080287990000020e-02,1.000000000000000000e+00
1.989983223999999939e+00,-3.955298883989999847e+00,-1.393646023219999863e+00,-8.867015280239998631e+00,-5.468182731419999471e-03,9.080143645410000339e-03,-4.884459543969999970e-03,1.000000000000000000e+00
1.994931910000000030e+00,-4.006874757450000324e+00,-1.407586285770000112e+00,-8.814239967860000746e+00,-5.334956571459999186e-03,9.660890325899999798e-03,1.141886319970000091e-02,1.000000000000000000e+00
2.000003850000000138e+00,-3.986894337950000367e+00,-1.336523037029999861e+00,-8.862716121739998343e+00,3.302065655590000117e-03,-1.191843487320000047e-02,9.690241422500000526e-04,1.000000000000000000e+00
2.004991282999999846e+00,-4.024269252099999861e+00,-1.490297302210000119e+00,-8.770492011549999134e+00,-6.048415321859999284e-03,-2.224496798590000404e-03,1.729053677990000006e-03,1.000000000000000000e+00
2.009956281000000011e+00,-4.009298185199999587e+00,-1.333556442310000145e+00,-8.794743824750000272e+00,-6.738574244079999914e-03,1.889832317829999789e-02,2.823780057949999960e-03,1.000000000000000000e+00
2.014954529999999799e+00,-4.083725357419999646e+00,-1.343797850340000100e+00,-8.769974709680001368e+00,-1.021884102370000137e-02,1.808555237949999867e-02,6.433842703699998826e-03,1.000000000000000000e+00
2.019967638999999870e+00,-3.984712025480000364e+00,-1.365601539740000092e+00,-8.910029661579999427e+00,-2.541916817429999698e-02,2.173339948059999777e-02,1.225727889689999864e-02,1.000000000000000000e+00
2.024963189000000163e+00,-3.983080917149999678e+00,-1.379556853730000032e+00,-8.876311516370000376e+00,-2.329483628270000162e-02,2.412063069640000418e-02,1.352241355929999916e-02,1.000000000000000000e+00
2.029926468000000206e+00,-3.979676953919999427e+00,-1.398930247240000035e+00,-9.050535864380000461e+00,-2.415432408449999860e-02,2.579349558800000074e-03,1.630623079840000031e-02,1.000000000000000000e+00
2.035015491999999870e+00,-3.938094358949999929e+00,-1.415065097220000068e+00,-8.846880254700000279e+00,-5.772812757639999778e-03,1.388207636769999906e-02,5.974088795479999374e-03,1.000000000000000000e+00
2.039982206999999992e+00,-4.030679119140000211e+00,-1.368795659609999937e+00,-8.616032686719998779e+00,-1.454300433399999953e-02,2.289598248899999897e-02,5.731868557629999673e-03,1.000000000000000000e+00
2.044987648999999852e+00,-3.973385452559999642e+00,-1.358177965609999926e+00,-8.877807892410000790e+00,-4.759015515449999643e-03,1.895724050700000121e-02,4.667784087359999785e-03,1.000000000000000000e+00
2.049980285000000180e+00,-4.022319871600000596e+00,-1.335873779339999956e+00,-8.932579347040000783e+00,1.608137274160000192e-03,2.342666126790000219e-02,3.039355156940000153e-03,1.000000000000000000e+00
2.054979845000000083e+00,-3.943837871040000387e+00,-1.353433693689999773e+00,-8.854539829550001073e+00,-1.604588702320000268e-02,1.758887059990000071e-02,1.748473383490000213e-02,1.000000000000000000e+00
2.059921629000000198e+00,-3.952756213769999860e+00,-1.363464381579999829e+00,-8.801421987339999475e+00,-2.647589659320000177e-03,8.103488013149999156e-03,5.965787917380000263e-03,1.000000000000000000e+00
2.064966361999999833e+00,-3.859874808719999884e+00,-1.635322735999999999e+00,-8.841425496430000308e+00,1.884961035099999831e-03,-9.744673967359999966e-03,-7.620445452630000317e-03,1.000000000000000000e+00
2.069983673999999940e+00,-4.064682218769999800e+00,-1.316630441949999897e+00,-8.918836652889998717e+00,1.326972804960000092e-02,1.714104786520000145e-02,-8.938517421480000414e-04,1.000000000000000000e+00
2.074990607000000153e+00,-3.912570041590000436e+00,-1.465210061090000071e+00,-8.705197993860000594e+00,7.837573997679999835e-03,8.239021524790000536e-03,7.880326360460000387e-03,1.000000000000000000e+00
2.079873806999999797e+00,-4.332178724719999430e+00,-2.248182246889999902e+00,-1.042109122709999980e+01,-8.384528011080000232e-02,-1.246055215599999912e-02,2.286050841209999809e-02,1.000000000000000000e+00
2.084989556000000022e+00,-3.571600595420000079e+00,-1.456114169839999972e+00,-9.039836191190000036e+00,-3.394882753490000016e-02,-1.178666390479999812e-02,1.295370329169999966e-02,1.000000000000000000e+00
2.089915453000000145e+00,-3.807467745130000303e+00,-1.258637541060000142e+00,-8.446300973959999681e+00,-9.267228655520000011e-03,-2.733467705550000210e-02,4.371511749920000030e-03,1.000000000000000000e+00
2.094947046999999785e+00,-3.928766558630000461e+00,-9.987737219509998932e-01,-9.400846847130001294e+00,1.199229154739999900e-02,1.226906850929999904e-02,-1.417247299099999927e-02,1.000000000000000000e+00
2.099938070999999962e+00,-4.119943210480000673e+00,-1.452392080570000132e+00,-8.555477387989999016e+00,1.213533058759999964e-02,1.425730995830000111e-03,-1.586928591129999760e-02,1.000000000000000000e+00
2.105006803000000204e+00,-3.841588625919999611e+00,-1.358265351629999840e+00,-8.824984064720000632e+00,-2.492962172249999896e-03,3.961690515280000269e-02,-6.575210019949999721e-03,1.000000000000000000e+00
2.109907195999999985e+00,-3.935765623740000052e+00,-1.518456059720000084e+00,-8.823206533649999628e+00,4.303726367649999759e-03,1.364112272860000183e-02,-1.830564928240000075e-03,1.000000000000000000e+00
2.114925415000000086e+00,-4.005892760670000108e+00,-1.462475375429999724e+00,-8.853085539080000288e+00,1.575301960109999969e-02,2.820163592700000027e-02,-9.100345894690000173e-03,1.000000000000000000e+00
2.119953342000000074e+00,-4.054176899109999788e+00,-1.113323791850000077e+00,-8.780333022080000660e+00,1.794960349800000035e-02,2.462693490090000006e-02,6.342968903480000059e-03,1.000000000000000000e+00
2.124912774999999865e+00,-4.001026031419999462e+00,-1.364911511649999909e+00,-8.844605880030000478e+00,-2.318656072019999875e-03,-1.985622569920000163e-02,2.891643205660000045e-03,1.000000000000000000e+00
2.129970865000000213e+00,-4.001353363680000719e+00,-1.408834678400000096e+00,-8.691960911149999802e+00,7.646523416039999882e-03,8.595101535320000957e-03,6.171656772489999242e-03,1.000000000000000000e+00
2.134960732000000139e+00,-3.953713368359999869e+00,-1.281209146089999917e+00,-9.043788143680000502e+00,-1.315856538710000016e-02,1.340016350150000091e-02,8.896466344589999339e-03,1.000000000000000000e+00
2.139959742999999914e+00,-4.041463840269999608e+00,-1.208312982839999883e+00,-8.783996805289998377e+00,-1.266418374140000072e-03,2.277563698590000241e-02,-1.038432121280000002e-02,1.000000000000000000e+00
2.144987211000000116e+00,-3.942793914940000199e+00,-1.458613439309999871e+00,-8.634553262799999018e+00,4.585500340910000049e-03,1.299698092040000100e-02,8.464230224489999177e-03,1.000000000000000000e+00
2.149930986999999849e+00,-3.969807594069999279e+00,-1.369223383499999835e+00,-8.918212383510001118e+00,1.490488927810000065e-02,2.701954729859999682e-02,4.212765954429999703e-03,1.000000000000000000e+00
2.155012574000000125e+00,-4.031820105869999615e+00,-1.396951494510000114e+00,-8.837132183150000486e+00,1.487240288409999965e-02,9.089674800629998774e-03,1.499021705240000113e-02,1.000000000000000000e+00
2.159962718000000059e+00,-3.894941445919999357e+00,-1.305294808950000052e+00,-8.929852552419999867e+00,-1.096346322450000160e-02,1.955662854019999883e-02,1.133644720539999902e-03,1.000000000000000000e+00
2.164904304999999862e+00,-3.910157427490000170e+00,-1.533953926969999992e+00,-8.809995169900000533e+00,-1.480627804989999817e-02,7.478654850270000619e-03,1.406414341179999979e-02,1.000000000000000000e+00
2.169974496000000030e+00,-3.963232599599999961e+00,-1.407660958439999721e+00,-8.815921052820000270e+00,4.697089316319999486e-04,1.403646543620000117e-02,1.665576361120000085e-02,1.000000000000000000e+00
2.174954814999999986e+00,-3.972319869160000128e+00,-1.338312404670000122e+00,-8.793584717849999066e+00,-3.531823866070000345e-03,1.940031349659999960e-02,7.966370321810000213e-05,1.000000000000000000e+00
2.179961618000000101e+00,-4.012929527439999866e+00,-1.373240071789999961e+00,-8.838995638929999288e+00,-6.843965034930000330e-03,2.598763629790000126e-02,9.959441609680000362e-03,1.000000000000000000e+00
2.185020091000000164e+00,-3.921826237980000407e+00,-1.476575066319999907e+00,-8.795951446980000199e+00,-5.038508679720000473e-03,1.245185174049999975e-02,5.539603531359999986e-03,1.000000000000000000e+00
2.189973450000000099e+00,-3.974830098409999568e+00,-1.405550542159999861e+00,-8.851410883869998969e+00,-5.543920677159999873e-03,2.444224059580000011e-02,8.521190844479999485e-03,1.000000000000000000e+00
2.194986296000000170e+00,-3.903708982009999939e+00,-1.395425892380000032e+00,-8.897127509909999787e+00,-1.944874599579999794e-02,1.745312660929999871e-02,1.488303067160000282e-03,1.000000000000000000e+00
2.199970482999999977e+00,-3.937631417609999573e+00,-1.387478002109999942e+00,-8.936833497349999433e+00,-2.157446742059999922e-02,2.744544856250000220e-02,1.664387248460000301e-02,1.000000000000000000e+00
2.204984012000000160e+00,-3.991522582280000453e+00,-1.397546537789999821e+00,-8.894032466500000567e+00,-1.364501425999999984e-03,-7.727742195130000329e-05,2.143102884290000107e-02,1.000000000000000000e+00
2.209982001000000196e+00,-3.924659415580000310e+00,-1.375954445320000108e+00,-8.860476818380000452e+00,4.703362472360000067e-03,1.690770126880000029e-02,7.603502832349999518e-03,1.000000000000000000e+00
2.215011041999999986e+00,-3.967820804170000049e+00,-1.368677732310000117e+00,-8.851658721150000630e+00,-6.649874616410000362e-03,1.199337467549999904e-02,6.702039390800000780e-03,1.000000000000000000e+00
2.219985332999999894e+00,-3.894761997699999867e+00,-1.378627756179999997e+00,-8.881644109570000722e+00,3.736665472389999638e-03,1.884626969700000168e-02,-6.559866480529999606e-03,1.000000000000000000e+00
2.224963473999999941e+00,-3.983333430600000113e+00,-1.364423874259999891e+00,-8.907897325720000481e+00,1.186983194199999966e-02,1.125933416189999967e-02,2.844633767380000313e-03,1.000000000000000000e+00
2.229904518000000113e+00,-3.965507558790000164e+00,-1.320036743259999978e+00,-8.862977403019998590e+00,2.372918184849999793e-03,-1.109755481589999896e-03,4.807383753359999526e-03,1.000000000000000000e+00
2.234985926999999872e+00,-3.932354938510000064e+00,-1.323791565750000121e+00,-8.881086475689999205e+00,1.347408397119999887e-03,5.669617094099999770e-04,-5.919523537159999960e-03,1.000000000000000000e+00
2.239998626999999853e+00,-4.001847576940000373e+00,-1.390203189289999974e+00,-8.860192740739998740e+00,9.254866279660000500e-03,1.584380492569999882e-02,1.644239574669999898e-02,1.000000000000000000e+00
2.244951711000000127e+00,-3.942914618709999708e+00,-1.391463564620000204e+00,-8.880781939780000300e+00,2.473093941809999599e-02,5.730142351240000327e-03,-6.536810658869999027e-03,1.000000000000000000e+00
2.249960660000000168e+00,-3.982275738239999807e+00,-1.389458654540000060e+00,-8.912616170939999805e+00,1.604627352210000061e-03,-1.131541840729999825e-02,4.554342478510000139e-03,1.000000000000000000e+00
2.254930662000000030e+00,-3.986804321580000643e+00,-1.400667300160000073e+00,-8.839344013979999914e+00,4.915022756899999935e-03,2.121745143089999886e-03,1.064588129520000273e-02,1.000000000000000000e+00
2.259979298000000192e+00,-3.919690102730000181e+00,-1.414021433389999860e+00,-8.851340156719999186e+00,-1.292665675279999933e-02,8.604304865000000566e-03,6.182810291649999679e-03,1.000000000000000000e+00
2.264985593000000019e+00,-3.957774918709999756e+00,-1.381477008129999851e+00,-8.819317124999999535e+00,4.029629286379999425e-03,3.526173532010000358e-03,-5.110336933279999768e-04,1.000000000000000000e+00
2.269934651999999886e+00,-3.997224593309999907e+00,-1.415345813860000135e+00,-8.890247102740000074e+00,1.537675317379999865e-02,1.199280098079999989e-02,5.821642465889999458e-03,1.000000000000000000e+00
2.274982161000000058e+00,-3.895317293500000222e+00,-1.353198569760000192e+00,-8.829351612279999983e+00,-7.902562618260000615e-03,9.020773693920000613e-03,-6.876530125739999631e-03,1.000000000000000000e+00
2.279987753999999978e+00,-3.981792630899999796e+00,-1.355557846239999753e+00,-8.841442447560000417e+00,-1.276384107769999937e-03,1.712839305400000109e-02,6.789738312359999001e-03,1.000000000000000000e+00
2.284993361000000167e+00,-3.920876097639999891e+00,-1.377056853600000075e+00,-8.846433679980000520e+00,3.632282372559999910e-03,4.848001990469999857e-04,-4.078491590919999625e-03,1.000000000000000000e+00
2.289918274000000142e+00,-3.986497447590000132e+00,-1.422113846690000072e+00,-8.846162461819998768e+00,2.525818534199999760e-03,1.234731823210000017e-02,-1.379556255419999919e-03,1.000000000000000000e+00
2.294903021000000098e+00,-3.964334423359999526e+00,-1.387810887329999909e+00,-8.855649252090000090e+00,-2.367091830820000024e-03,6.241667550060000375e-03,5.538485944269999975e-03,1.000000000000000000e+00
2.299957998000000003e+00,-3.979790643430000330e+00,-1.389141113020000207e+00,-8.873427485369999701e+00,-1.274712570010000205e-02,1.436361111700000005e-02,1.847293414179999871e-02,1.000000000000000000e+00
2.304943875999999836e+00,-3.983498265769999769e+00,-1.386613640370000011e+00,-8.870084020160000193e+00,-1.331632258369999785e-03,1.449711434540000045e-02,1.624257303770000258e-02,1.000000000000000000e+00
2.310021975999999810e+00,-3.927979499910000172e+00,-1.365241766520000066e+00,-8.856032698450000851e+00,-9.895975701510000694e-03,8.734855800869999361e-04,8.470279164609999939e-03,1.000000000000000000e+00
2.315039180999999946e+00,-3.922436771090000107e+00,-1.368537885449999880e+00,-8.812707935989999797e+00,2.568034688009999955e-03,-9.298809804019999778e-03,1.254786457869999997e-02,1.000000000000000000e+00
2.319983158999999961e+00,-3.888873231919999895e+00,-1.360459354550000111e+00,-8.840276326389998829e+00,8.521329611540000293e-03,-4.473965615029999905e-03,7.591142784800000969e-04,1.000000000000000000e+00
2.324995261000000202e+00,-3.971400123959999640e+00,-1.422235281110000082e+00,-8.849315372899999588e+00,-5.418595857920000675e-03,-8.109152317050000516e-03,9.175572544340000053e-03,1.000000000000000000e+00
2.329950442999999982e+00,-4.056881481890000529e+00,-1.460649036789999800e+00,-8.935310233310000072e+00,-3.730500349769999731e-03,-1.216206350359999968e-03,5.223197862509999789e-03,1.000000000000000000e+00
2.335019222000000116e+00,-4.393329066730000676e+00,-4.315741019329999983e-01,-8.238921375329999464e+00,-2.150021120909999944e-02,-4.225039854649999954e-02,-1.354844402519999984e-02,1.000000000000000000e+00
2.339936057000000069e+00,-4.045274046210000307e+00,-1.282311262110000127e+00,-8.108309959079999629e+00,-5.864480044689999137e-03,-3.249783441420000391e-02,-8.577209897339999750e-03,1.000000000000000000e+00
2.345001072000000075e+00,-4.027216411469999535e+00,-1.426206376699999945e+00,-8.932589283909999622e+00,5.826903134580000559e-02,-9.335071081299999409e-04,-1.699552126229999724e-02,1.000000000000000000e+00
2.350011857999999787e+00,-4.207524463299999518e+00,-1.389359870340000080e+00,-8.985410773519999950e+00,1.315369736400000093e-02,3.924403712150000001e-02,5.142554640770000129e-03,1.000000000000000000e+00
2.355019159999999889e+00,-3.737299983929999847e+00,-1.371312756990000103e+00,-8.646182325790000789e+00,-3.310995921490000188e-02,4.355434700849999952e-02,7.157885469499999757e-03,1.000000000000000000e+00
2.359929452999999899e+00,-3.986908658740000000e+00,-1.663405213400000138e+00,-9.097624947810000862e+00,-5.533568933609999546e-02,1.716417726130000125e-03,1.504516135900000121e-02,1.000000000000000000e+00
2.364970052999999961e+00,-3.967745108590000402e+00,-1.347146576249999894e+00,-8.828594656430000853e+00,-8.126059547070000125e-03,-1.066485792399999959e-02,2.529916167260000057e-02,1.000000000000000000e+00
2.369990771999999968e+00,-3.836536895490000099e+00,-1.076091793300000043e+00,-8.827021123499999788e+00,-1.527906022970000090e-02,3.705363254989999747e-03,-9.595122188330000232e-03,1.000000000000000000e+00
2.375000791000000167e+00,-4.017343252230000772e+00,-1.348499598289999879e+00,-8.873290707249999798e+00,2.636659517879999873e-02,-1.215125434099999929e-02,-5.855246447029999537e-03,1.000000000000000000e+00
2.379977618999999933e+00,-3.888040580490000231e+00,-1.405703979160000117e+00,-8.963036444620000154e+00,-3.131690900769999730e-03,-2.113701030609999726e-02,6.399756297470000389e-03,1.000000000000000000e+00
2.384973988000000045e+00,-4.013268550140000279e+00,-1.322215987000000093e+00,-8.863670645990000097e+00,-2.613700926299999949e-02,-1.248912885789999969e-02,3.414446720849999718e-03,1.000000000000000000e+00
2.390031791999999822e+00,-4.011246396659999824e+00,-1.411977944860000056e+00,-8.790249435939999856e+00,-2.740901336070000055e-02,5.222847685219999744e-03,-6.294187624010000488e-04,1.000000000000000000e+00
2.395019496999999831e+00,-3.978748733159999773e+00,-1.339363667290000004e+00,-8.896300411429999500e+00,1.098071131860000119e-02,2.412828151139999929e-03,9.099324233829999414e-03,1.000000000000000000e+00
2.400050697000000177e+00,-4.142685495909999460e+00,-2.097604147409999786e+00,-6.867349529010000175e+00,2.772331610319999848e-02,-4.709525778889999542e-02,-2.540496550499999825e-02,1.000000000000000000e+00
2.405024652999999901e+00,-3.815642868279999878e+00,-1.577061539550000058e+00,-8.969158142370000419e+00,-3.336071094959999739e-04,-6.933383177970000276e-03,-4.659402370450000525e-02,1.000000000000000000e+00
2.409975407000000125e+00,-3.823649356859999848e+00,-9.918965296580000146e-01,-8.660010360139999364e+00,5.321199819450000285e-02,-4.774005711080001046e-02,-1.514637190849999968e-02,1.000000000000000000e+00
2.415007015000000035e+00,-4.092712673730000361e+00,-1.242905718920000124e+00,-8.786746396259999869e+00,1.422381773589999863e-02,-1.118494383989999952e-02,2.391273388639999706e-03,1.000000000000000000e+00
2.420023526000000036e+00,-3.997179292860000288e+00,-1.471357477810000258e+00,-8.628536194460000530e+00,-1.376732718199999948e-02,1.650297082959999986e-03,7.997292093930000526e-03,1.000000000000000000e+00
2.425030639000000043e+00,-4.012468047409999627e+00,-1.592468952039999941e+00,-8.883802164389999589e+00,-1.805391162630000032e-02,1.222011260689999899e-02,1.516210380939999984e-02,1.000000000000000000e+00
2.429975683999999969e+00,-4.002638142790000408e+00,-1.141826394359999997e+00,-8.893609272650000008e+00,-1.845153421160000001e-02,2.387458644810000127e-02,2.772440761330000059e-02,1.000000000000000000e+00
2.434990267999999958e+00,-3.916716932139999940e+00,-1.265098553770000134e+00,-8.851616051049999712e+00,-9.136017411950001638e-03,-1.449777744709999927e-02,-1.302087493239999921e-02,1.000000000000000000e+00
2.439991948999999938e+00,-3.923359438889999939e+00,-1.451092542279999842e+00,-8.862629612499999254e+00,-1.239778473970000114e-02,-6.397136487069999232e-03,-1.293225446720000027e-03,1.000000000000000000e+00
2.444969711000000157e+00,-3.955361135570000020e+00,-1.366629275350000006e+00,-8.880932746430000080e+00,-1.021157205099999972e-02,-3.950245678419999663e-03,2.407928695900000103e-03,1.000000000000000000e+00
2.449926505000000088e+00,-4.023994234549999938e+00,-1.349811265410000072e+00,-8.748149831360001016e+00,1.092404243539999960e-03,1.233323477209999873e-02,1.186723448339999966e-02,1.000000000000000000e+00
2.454926094999999808e+00,-3.955971084160000206e+00,-1.382426856199999943e+00,-8.796313850549999813e+00,-7.913406938310000444e-03,4.664164036510000041e-03,-1.493826275690000090e-03,1.000000000000000000e+00
2.459939011999999980e+00,-4.027737805000000115e+00,-1.213920958909999959e+00,-8.857292927650000536e+00,3.845664905380000620e-04,-3.757783910260000405e-03,2.904709195719999779e-03,1.000000000000000000e+00
2.464849887000000184e+00,-3.944051806050000053e+00,-1.227121728199999984e+00,-9.110215549310000327e+00,-2.188505604860000071e-03,-1.156048476699999931e-02,8.093667216600000658e-03,1.000000000000000000e+00
2.469865589999999944e+00,-3.897469503089999954e+00,-1.361029701779999934e+00,-8.766469916429999287e+00,6.517359521239999426e-03,-1.272573950699999994e-03,3.556018462400000000e-03,1.000000000000000000e+00
2.474973739999999811e+00,-3.881890241169999811e+00,-1.378624249050000028e+00,-9.002105887729999978e+00,3.975509665909999352e-03,-5.451975390319999809e-03,4.018431529399999792e-03,1.000000000000000000e+00
2.479989676999999837e+00,-4.016238213600000329e+00,-1.290036157279999873e+00,-8.585640471070000501e+00,7.102985866370000075e-03,-1.112365536390000006e-02,-2.569029107690000164e-03,1.000000000000000000e+00
2.485025043999999905e+00,-3.910132585309999520e+00,-9.945881068299999850e-01,-9.039303107220000300e+00,-1.534347701820000000e-02,1.145056448879999992e-03,-1.144132670020000034e-02,1.000000000000000000e+00
2.490015617000000070e+00,-3.917298239159999973e+00,-1.559742009829999887e+00,-7.680317770750000328e+00,2.049856632949999952e-02,-1.250182092189999934e-02,-1.085102465000000078e-02,1.000000000000000000e+00
2.494992949999999876e+00,-3.976590093819999616e+00,-1.408684164009999851e+00,-9.082374187190000114e+00,-6.950160022830000409e-03,-6.702831014989999933e-04,-1.492930576210000151e-02,1.000000000000000000e+00
2.499998021000000126e+00,-4.086186486829999964e+00,-1.905588414390000151e+00,-7.981449419789999666e+00,6.749398075040000458e-03,4.676997661590000244e-03,-1.045573968440000013e-03,1.000000000000000000e+00
2.504972033000000042e+00,-4.004803211869999657e+00,-1.020909054460000132e+00,-8.945432398870000412e+00,-7.720364257689999940e-03,-4.573422484100000268e-03,6.544981151820000211e-03,1.000000000000000000e+00
2.509948231000000085e+00,-4.232178427570000068e+00,-1.594404596279999975e+00,-8.369481353650000344e+00,-5.261844024060000416e-03,-3.571607638149999937e-03,1.940310746429999705e-02,1.000000000000000000e+00
2.514943310000000043e+00,-4.049654160990000307e+00,-1.465546307310000129e+00,-8.949711099099999956e+00,-1.110478397460000141e-02,-1.777218887579999846e-03,1.386458706110000119e-02,1.000000000000000000e+00
2.519945209999999935e+00,-3.836071616059999911e+00,-1.409830119179999786e+00,-8.755249434230000460e+00,-5.763868335629999604e-03,-2.381631731990000236e-02,-3.449091454969999658e-03,1.000000000000000000e+00
2.524990029000000025e+00,-3.967423329290000300e+00,-1.425281224679999958e+00,-8.930149489539999763e+00,-2.167082950469999963e-02,-2.187845483419999931e-02,-1.748610404319999841e-03,1.000000000000000000e+00
2.529929982000000077e+00,-3.934719621819999791e+00,-1.343048201019999999e+00,-9.027679304919999481e+00,2.790583996099999485e-03,6.602998357270000590e-03,9.435901418330000859e-03,1.000000000000000000e+00
2.534970426000000110e+00,-3.868603766349999695e+00,-1.340709090550000093e+00,-8.877420938920000282e+00,-2.303738612679999669e-03,-3.683662507679999476e-03,8.493086323140001254e-03,1.000000000000000000e+00
2.540012144999999943e+00,-3.783734695099999712e+00,-1.657830335879999950e+00,-8.800457526220000659e+00,7.452499121430000185e-03,8.849237114190000586e-03,-6.499145179989999910e-03,1.000000000000000000e+00
2.544981502999999812e+00,-2.141703839769999895e+00,-2.268551227309999696e+00,-9.383226434760000956e+00,-8.588468283410000126e-02,-1.628122925759999950e-01,-1.462240666149999813e-01,1.000000000000000000e+00
2.549981086999999924e+00,-5.529089000659999975e+00,1.125415299339999997e+01,-9.765300921519999733e+00,3.825613260270000482e-01,1.289118379349999954e-01,1.409898102280000010e-01,1.000000000000000000e+00
2.554966267000000180e+00,-5.949982755149999747e+00,-5.487566903700000331e+00,-8.411195758310000770e+00,-3.886916935440000165e-01,-9.407473355530000803e-02,-2.279631979759999885e-02,1.000000000000000000e+00
2.559966017999999899e+00,-3.751505911669999804e+00,-8.304558215099999696e-02,-6.648556555959999947e+00,2.511196136470000284e-01,9.069183468819999594e-02,6.505921483040000286e-02,1.000000000000000000e+00
2.564980763999999969e+00,-3.655139294850000109e+00,2.533423449170000286e-01,-1.114005315140000185e+01,3.069731593129999825e-02,-1.986509561540000107e-02,1.705494709310000079e-02,1.000000000000000000e+00
2.569978042999999879e+00,-4.724161149769999568e+00,-1.427663443639999974e+00,-8.276167694660001573e+00,7.066011428830000496e-02,1.455907225610000022e-01,2.620449289679999821e-02,1.000000000000000000e+00
2.574944658000000164e+00,-3.441175349389999916e+00,-7.055448819239998892e-01,-1.022380339889999945e+01,-8.469912223520000699e-03,-1.585003174839999876e-02,1.014458108689999909e-02,1.000000000000000000e+00
2.579974479000000098e+00,-3.867907308519999976e+00,-1.661951653590000078e+00,-8.626063082350000855e+00,-2.129618450999999982e-02,1.399483159179999887e-02,-6.863684393469999742e-03,1.000000000000000000e+00
2.584976968999999958e+00,-4.027981258359999650e+00,-2.025670983970000005e+00,-8.915054211739999346e+00,-3.173120319839999731e-02,-8.936674892899999778e-02,4.369859583680000409e-03,1.000000000000000000e+00
2.589959021999999944e+00,-3.986180344469999692e+00,-1.355744016459999868e+00,-8.730170522559999924e+00,4.105635359880000640e-02,-2.193391509350000115e-02,1.465384755279999958e-02,1.000000000000000000e+00
2.594983494000000057e+00,-3.996415615010000089e+00,-8.892685874200001450e-01,-8.863328116159999936e+00,1.695206761360000189e-02,-3.018910437820000042e-02,5.137044936420000034e-03,1.000000000000000000e+00
2.599973260000000064e+00,-4.099710277529999836e+00,-1.644895597109999885e+00,-8.927601558630000156e+00,1.816900074480000057e-02,1.404519751670000108e-02,1.574830524620000199e-02,1.000000000000000000e+00
2.605017419999999806e+00,-3.690630002689999856e+00,-1.323914899870000106e+00,-8.793989791519999599e+00,-6.086675450210000081e-03,-1.511148735879999823e-02,6.676995195449998872e-03,1.000000000000000000e+00
2.609986146999999868e+00,-3.997482659719999276e+00,-1.439433376410000021e+00,-8.933589400860000751e+00,-3.666692646219999862e-03,-6.326151080429999810e-03,2.226941520349999711e-03,1.000000000000000000e+00
2.614949714000000203e+00,-3.887581730809999581e+00,-1.429579944779999945e+00,-8.850849742859999481e+00,2.999090356750000030e-03,-2.212783321740000031e-02,-4.373871255670000457e-03,1.000000000000000000e+00
2.619941556000000116e+00,-3.899429112730000035e+00,-1.291526688100000042e+00,-8.961651127739999723e+00,2.870963886379999941e-02,-3.790023550390000245e-02,1.678844541310000119e-02,1.000000000000000000e+00
2.624995918999999844e+00,-3.921525793730000320e+00,-1.470205677420000079e+00,-8.749321797749999519e+00,-2.328099682930000018e-03,-5.308002978559999557e-02,9.624629281459998534e-03,1.000000000000000000e+00
2.629973037000000069e+00,-3.961825947669999515e+00,-1.414664699729999864e+00,-8.944265693180000198e+00,5.275958683339999900e-03,-3.379446268079999705e-02,3.658629255369999934e-03,1.000000000000000000e+00
2.635003376999999869e+00,-3.938099035119999591e+00,-1.411521433260000125e+00,-8.837063794089999647e+00,-2.895502373580000153e-03,-1.189374923709999969e-02,8.951484225690000546e-03,1.000000000000000000e+00
2.639977802999999845e+00,-3.904520006130000276e+00,-1.432183259149999888e+00,-8.879284394700000860e+00,-9.344297461209998684e-03,-2.015537396069999945e-02,7.876449264589999860e-03,1.000000000000000000e+00
2.644993293000000190e+00,-3.880154211159999811e+00,-1.469762171439999987e+00,-8.937897327189999075e+00,2.396081388000000437e-02,-2.626631036400000133e-02,2.265870571140000261e-02,1.000000000000000000e+00
2.649990009999999785e+00,-3.866256326449999836e+00,-1.335378250910000064e+00,-8.954581920009999862e+00,6.091897375880000499e-03,-5.630170181390000556e-02,1.314659882339999988e-02,1.000000000000000000e+00
2.655006601999999827e+00,-3.910171163759999846e+00,-1.352839673320000102e+00,-8.918136395669998606e+00,-6.702654645780000602e-04,-6.097831577059999869e-02,1.678724959490000140e-02,1.000000000000000000e+00
2.659942387000000075e+00,-3.834382932320000048e+00,-1.427952197450000016e+00,-8.922326248570000118e+00,1.920299604540000316e-02,-6.047523021700000612e-02,1.896167406810000001e-03,1.000000000000000000e+00
2.664966827999999843e+00,-3.891768368840000214e+00,-1.435207137020000134e+00,-8.936550588760001190e+00,2.641668170690000123e-02,-5.899535492059999886e-02,1.557253394279999904e-02,1.000000000000000000e+00
2.669988339000000099e+00,-3.872776083600000252e+00,-1.391893188210000076e+00,-9.024599459090000053e+00,4.071917384859999323e-02,-5.934874713419999864e-02,1.003191340709999949e-02,1.000000000000000000e+00
2.674955471000000085e+00,-3.812567406359999911e+00,-1.446831816100000223e+00,-9.013674744970000319e+00,1.100702490660000060e-02,-5.943588912489999876e-02,1.912029273809999833e-02,1.000000000000000000e+00
2.680019841000000014e+00,-3.782348501440000010e+00,-1.411412858320000074e+00,-9.041558192669999272e+00,1.597847416999999964e-02,-7.074113935230000316e-02,1.610761322079999960e-02,1.000000000000000000e+00
2.684973515999999893e+00,-3.772915487190000583e+00,-1.370358232750000127e+00,-9.097479986379999772e+00,1.070680376140000119e-02,-1.047084331509999938e-01,2.138521708550000094e-02,1.000000000000000000e+00
2.690011587999999954e+00,-3.690439740809999591e+00,-1.390422969520000329e+00,-9.058269088979999495e+00,2.559293806550000036e-02,-1.329538673160000073e-01,1.075354870410000045e-02,1.000000000000000000e+00
2.694997735999999922e+00,-3.782546362099999726e+00,-1.330497493129999986e+00,-9.153427499050000193e+00,3.184785693880000379e-02,-1.560033112760000062e-01,3.466215729709999638e-02,1.000000000000000000e+00
2.699987485999999937e+00,-3.651957449940000267e+00,-1.300254476689999938e+00,-9.212316325870000711e+00,2.317229285840000097e-02,-1.573224514719999967e-01,1.655935123560000125e-02,1.000000000000000000e+00
2.705014806999999966e+00,-3.722574416219999627e+00,-1.261129211739999922e+00,-9.229142957509999690e+00,5.050564557309999980e-02,-1.841186285020000035e-01,3.173055127260000080e-02,1.000000000000000000e+00
2.709988649000000027e+00,-3.658196052069999649e+00,-1.352986096059999976e+00,-9.245063580220000077e+00,8.490914106369999714e-02,-2.188308835029999788e-01,3.284444287419999858e-02,1.000000000000000000e+00
2.714982398000000074e+00,-3.471268582100000000e+00,-1.412620042150000144e+00,-9.462356085580001519e+00,8.752585947509999853e-02,-2.500887513160000020e-01,3.246652707459999482e-02,1.000000000000000000e+00
2.720003967999999883e+00,-3.366147580940000328e+00,-1.390036746690000102e+00,-9.548576571439999938e+00,7.764051854610000414e-02,-2.878412008289999990e-01,4.393340274690000352e-02,1.000000000000000000e+00
2.725034448999999803e+00,-3.359052361980000345e+00,-1.654738361209999953e+00,-9.761336694069999709e+00,7.566304504869998671e-02,-3.286535143849999563e-01,5.063942447300000260e-02,1.000000000000000000e+00
2.729940834000000205e+00,-3.229413882409999825e+00,-1.643703026329999872e+00,-9.799152922239999342e+00,6.781487911939999835e-02,-3.948071897029999389e-01,6.716902554039999584e-02,1.000000000000000000e+00
2.734986269999999831e+00,-3.465686690309999651e+00,-1.723294887829999844e+00,-9.612586979059999592e+00,8.450436592099999644e-02,-4.650728404519999803e-01,8.140263706450000247e-02,1.000000000000000000e+00
2.739987564000000209e+00,-3.593599368999999655e+00,-1.527750980679999815e+00,-9.611403906749998782e+00,1.092221662400000154e-01,-5.274757146840000077e-01,9.497861564160001158e-02,1.000000000000000000e+00
2.744975935999999894e+00,-3.485662433630000390e+00,-1.634744789980000057e+00,-9.825603706789998171e+00,1.628565192220000069e-01,-5.715403556820000119e-01,1.201461851599999880e-01,1.000000000000000000e+00
2.750003539000000163e+00,-3.708028881259999743e+00,-1.426331025990000168e+00,-9.750221425810000397e+00,2.516716718670000130e-01,-6.214600801470000491e-01,1.452271491290000049e-01,1.000000000000000000e+00
2.754960799000000016e+00,-3.415850353999999811e+00,-1.548229997350000220e+00,-1.011413774010000033e+01,3.237483501430000188e-01,-6.367676854129999953e-01,1.624465733769999976e-01,0.000000000000000000e+00
2.759976221000000063e+00,-2.251099449509999850e+00,-1.740194146309999912e+00,-1.106942887859999836e+01,3.484798967840000428e-01,-6.853149533269999871e-01,1.674663126469999874e-01,0.000000000000000000e+00
2.764976456999999943e+00,-2.911463200520000072e+00,-1.675060726010000112e+00,-1.095907582200000085e+01,2.970796227459999717e-01,-8.130648136139999593e-01,1.789651662110000041e-01,0.000000000000000000e+00
2.769956053000000029e+00,-3.566679797890000447e+00,-2.133753903680000175e+00,-1.103166759550000009e+01,1.879521161320000244e-01,-9.345579743390000083e-01,2.054796218870000302e-01,0.000000000000000000e+00
2.774990240999999802e+00,-4.151759321459999263e+00,-2.140349356420000237e+00,-1.104519343209999960e+01,1.062363535170000040e-01,-1.146682500839999896e+00,2.699240148070000123e-01,0.000000000000000000e+00
2.779993713000000088e+00,-3.791040341940000058e+00,-2.270792868760000083e+00,-1.045250460249999946e+01,1.399165689949999902e-01,-1.213086247439999932e+00,3.174426853660000103e-01,0.000000000000000000e+00
2.785025510000000093e+00,-3.647764966690000499e+00,-2.178970178980000227e+00,-1.012343163809999957e+01,1.812335252760000071e-01,-1.249241352079999867e+00,3.256517350670000144e-01,0.000000000000000000e+00
2.789989493999999848e+00,-3.756691497619999431e+00,-2.109815686470000173e+00,-1.029103744480000060e+01,2.137511372569999846e-01,-1.273774504659999973e+00,3.284862339499999839e-01,0.000000000000000000e+00
2.795071990999999922e+00,-3.649720484669999543e+00,-2.069040170100000076e+00,-1.087227315240000003e+01,2.294976562259999908e-01,-1.350018024439999964e+00,3.601817488669999956e-01,0.000000000000000000e+00
2.800003456999999862e+00,-2.995332447080000016e+00,-2.383508855100000101e+00,-1.132562949910000150e+01,2.177084982400000202e-01,-1.480049252510000191e+00,4.126385450360000040e-01,0.000000000000000000e+00
2.804985036999999792e+00,-2.862521767220000068e+00,-2.547081314580000200e+00,-1.145195403180000149e+01,2.530374526979999872e-01,-1.657741069790000132e+00,5.016605257990000011e-01,0.000000000000000000e+00
2.809973759000000015e+00,-3.171173290370000064e+00,-2.134187911180000174e+00,-1.116785535060000001e+01,2.792460918430000327e-01,-1.841943860049999993e+00,5.713469386099999658e-01,0.000000000000000000e+00
2.815041528000000071e+00,-3.488776766259999995e+00,-1.888429189799999852e+00,-1.124751048660000130e+01,3.344129025939999722e-01,-2.001916408540000081e+00,6.029930710790000203e-01,0.000000000000000000e+00
2.820031455000000076e+00,-3.304560016549999535e+00,-1.744213318819999969e+00,-1.126199143190000029e+01,3.836392462250000079e-01,-2.190211057659999572e+00,6.538785099980000126e-01,0.000000000000000000e+00
2.824951394000000171e+00,-3.381675697200000386e+00,-1.903760176049999808e+00,-1.105125141690000135e+01,4.659172892569999891e-01,-2.363267183300000074e+00,6.910458207130000252e-01,0.000000000000000000e+00
2.829932257999999923e+00,-3.995430403369999439e+00,-2.127609117320000021e+00,-1.062847959359999983e+01,5.999722480770000033e-01,-2.477017164229999846e+00,7.501593828200000535e-01,0.000000000000000000e+00
2.834946680999999913e+00,-4.632144544850000045e+00,-2.847257562589999846e+00,-1.010933180109999974e+01,7.033488750460000771e-01,-2.577552080149999814e+00,7.637002468109999054e-01,0.000000000000000000e+00
2.839917310000000139e+00,-5.157732307269999872e+00,-3.744278298510000269e+00,-1.014350762689999996e+01,8.381193876270001120e-01,-2.602495670320000176e+00,8.586223125460000771e-01,0.000000000000000000e+00
2.844927559999999911e+00,-5.597071819040000840e+00,-4.455821178739999944e+00,-1.050183708099999969e+01,9.152207970619999911e-01,-2.578459978100000161e+00,9.404218196870001156e-01,0.000000000000000000e+00
2.849914755999999993e+00,-6.184532684789999735e+00,-4.629603043669999529e+00,-1.047457848720000051e+01,9.266834855079999489e-01,-2.527234315869999914e+00,1.033950686449999878e+00,0.000000000000000000e+00
2.854929465000000111e+00,-6.064284257119999744e+00,-4.799106792899999974e+00,-1.033747537080000001e+01,8.756619691850000553e-01,-2.420404911039999885e+00,1.151354312900000121e+00,0.000000000000000000e+00
2.859914423000000205e+00,-6.117271750939999642e+00,-4.802421324270000014e+00,-1.036560724029999925e+01,8.406330943109999732e-01,-2.270797967909999659e+00,1.223346471790000001e+00,0.000000000000000000e+00
2.864975627999999830e+00,-6.791531194700000107e+00,-4.802281331280000565e+00,-1.035089014820000131e+01,8.464529514309999669e-01,-2.158545017240000252e+00,1.297597885130000073e+00,0.000000000000000000e+00
2.869883327000000151e+00,-6.363485230360000244e+00,-4.517450244169999962e+00,-1.014132502220000021e+01,8.685175776479999721e-01,-2.031676530839999995e+00,1.331261873250000116e+00,0.000000000000000000e+00
2.874867977000000074e+00,-5.321197945369999793e+00,-3.330393545990000259e+00,-1.000593104789999899e+01,9.277576804160000412e-01,-1.871380686760000023e+00,1.337758302689999956e+00,0.000000000000000000e+00
2.879898144000000215e+00,-3.501262738349999903e+00,-2.855741021040000494e+00,-1.013874844969999955e+01,1.027935624119999947e+00,-1.621973991389999981e+00,1.254398107529999917e+00,0.000000000000000000e+00
2.884891634999999788e+00,-2.986189647940000302e+00,-3.623089082859999976e+00,-1.069375432210000021e+01,1.111516356470000133e+00,-1.311595678329999792e+00,1.087422609329999901e+00,0.000000000000000000e+00
2.890021760000000217e+00,-1.426872001000000001e+00,-4.319228349990000382e+00,-1.161344223230000061e+01,1.159686326979999960e+00,-9.844298958780000053e-01,8.945517539980000210e-01,0.000000000000000000e+00
2.894953343000000068e+00,8.950472438860000990e-01,-4.511149974990000366e+00,-1.184379880190000023e+01,1.105949282649999921e+00,-6.953938603399999474e-01,6.456854939459999443e-01,0.000000000000000000e+00
2.899957741000000144e+00,2.480150927860000021e+00,-4.366356011869999776e+00,-1.145411325559999938e+01,9.802780151369999695e-01,-5.027954578399999042e-01,4.521470963950000033e-01,0.000000000000000000e+00
2.904930972999999916e+00,2.361116552159999937e+00,-4.347860277969999743e+00,-1.027584221370000073e+01,8.728093504909999467e-01,-4.033021330830000584e-01,3.239193856720000153e-01,0.000000000000000000e+00
2.909941773999999981e+00,1.327312579490000033e+00,-4.155034689869999909e+00,-1.057573000020000009e+01,8.958138227459999658e-01,-3.376868367199999943e-01,1.641491353510000084e-01,0.000000000000000000e+00
2.914956553000000117e+00,1.306191903920000064e+00,-3.269248756930000166e+00,-1.143657759900000137e+01,9.763736724850000659e-01,-1.819158494469999832e-01,2.008802816270000013e-02,0.000000000000000000e+00
2.919977299000000137e+00,2.546599376280000104e+00,-1.941984692770000187e+00,-1.122412727289999879e+01,1.097926616670000133e+00,1.017141640190000057e-01,-1.318865716460000115e-01,0.000000000000000000e+00
