t,ax,ay,az,wx,wy,wz,zv
5.012235999999999775e-03,-3.943669236469999451e+00,-1.019810299429999789e+00,-8.921358864840000180e+00,9.972125990319999269e-04,-1.200208067890000049e-02,-2.015379024670000286e-03,1.000000000000000000e+00
9.921931000000000153e-03,-4.006052919669999213e+00,-1.041108596589999991e+00,-8.925938009330000256e+00,1.454000733790000027e-02,7.177472580220001230e-03,2.127693267540000082e-03,1.000000000000000000e+00
1.503260399999999976e-02,-3.975342724110000336e+00,-1.011030123060000063e+00,-8.876729449520000870e+00,9.007921442389999964e-03,-1.884147711099999969e-02,2.520265756170000145e-03,1.000000000000000000e+00
2.000327799999999934e-02,-3.935223771950000060e+00,-1.035125503599999996e+00,-8.907875698410000709e+00,1.340700779110000004e-02,-1.378574874249999900e-03,-1.229440513999999901e-02,1.000000000000000000e+00
2.501300700000000030e-02,-4.004078112470000228e+00,-1.007211222360000047e+00,-8.849217173219999566e+00,2.862076973540000208e-03,-1.758678071200000040e-02,9.895495604719999148e-04,1.000000000000000000e+00
2.999306800000000120e-02,-3.993639720560000050e+00,-1.000918478890000074e+00,-8.822114062239998944e+00,1.591439545149999843e-02,-2.259587310250000050e-02,-6.820247508590000611e-03,1.000000000000000000e+00
3.506163999999999809e-02,-3.881397196950000072e+00,-9.663323917470000302e-01,-8.898674154830001015e+00,9.481107816100000849e-03,2.908119000490000036e-02,-1.006044354289999977e-02,1.000000000000000000e+00
4.007419699999999890e-02,-4.015430112089999781e+00,-1.028761667649999989e+00,-8.891373476420000088e+00,5.375959910450000580e-03,-5.686896853149999743e-03,-2.294679917400000227e-02,1.000000000000000000e+00
4.507328599999999713e-02,-3.964803209919999905e+00,-1.029149278730000061e+00,-8.892093607389998766e+00,2.143774181599999648e-02,1.262416597460000022e-03,-7.357449270779999398e-03,1.000000000000000000e+00
4.989019100000000040e-02,-3.979028719150000004e+00,-1.040919503760000087e+00,-8.896640603169998940e+00,3.995861858130000076e-03,3.721652086820000181e-03,-7.800193503499999910e-03,1.000000000000000000e+00
5.500378499999999948e-02,-4.009259606759999706e+00,-1.025548112429999881e+00,-8.908582385379999025e+00,-9.804352186619999521e-03,1.027660444379999843e-02,5.450232885779998995e-03,1.000000000000000000e+00
6.002780499999999658e-02,-3.957297656590000212e+00,-1.014303372579999918e+00,-8.846602606810000324e+00,5.172607488929999858e-03,-2.459386130789999961e-03,-8.223030716179999949e-03,1.000000000000000000e+00
6.503137600000000185e-02,-3.995898605400000303e+00,-1.024166229620000035e+00,-8.889296670149999358e+00,-5.046919919549999918e-03,-9.961532428859999969e-03,-5.406448151920000347e-03,1.000000000000000000e+00
6.994416800000000101e-02,-3.964916022640000204e+00,-1.051638100849999979e+00,-8.897786266080000672e+00,4.021910484879999935e-03,4.605781286949999984e-03,-1.252398453650000083e-02,1.000000000000000000e+00
7.506993200000000588e-02,-4.007913160580000245e+00,-1.033956825139999980e+00,-8.914727464009999380e+00,1.654321327809999895e-02,1.543428748850000053e-02,4.235126078130000381e-03,1.000000000000000000e+00
8.000451799999999669e-02,-3.971407722749999980e+00,-1.028799588510000085e+00,-8.870489678350001128e+00,5.698801018300000271e-03,8.040679618720000810e-03,4.386063665150000259e-05,1.000000000000000000e+00
8.502485699999999536e-02,-3.973647026110000091e+00,-1.087739853260000000e+00,-8.946418487300000777e+00,-3.941955510530000678e-03,-7.610953878609999154e-03,-2.988485153760000318e-03,1.000000000000000000e+00
9.003014800000000428e-02,-3.940067704850000130e+00,-1.056773637110000053e+00,-8.934058187419999797e+00,5.940630100670000677e-03,1.700684987009999996e-02,-1.371577288960000064e-02,1.000000000000000000e+00
9.500912799999999825e-02,-3.967464245819999569e+00,-1.012166798939999834e+00,-8.865176374369999834e+00,-2.627644687889999896e-03,7.326771039520000271e-03,-1.062273420389999931e-02,1.000000000000000000e+00
1.000098600000000060e-01,-4.001380836210000069e+00,-9.979902434230000230e-01,-8.887182454480001326e+00,-7.658286020159999798e-03,7.841192185880000928e-03,-3.573060967030000212e-03,1.000000000000000000e+00
1.050038900000000025e-01,-3.998167427119999395e+00,-9.885871859139999662e-01,-8.902587528879999823e+00,-3.431383986030000360e-03,1.678585074840000099e-03,-1.156197860839999845e-03,1.000000000000000000e+00
1.100191019999999936e-01,-3.975625340440000155e+00,-9.970395185700000606e-01,-8.902378270039999819e+00,1.246265415100000079e-02,8.858274668460000209e-03,8.001278154550000091e-03,1.000000000000000000e+00
1.150269160000000068e-01,-3.957197411090000116e+00,-1.001453827879999814e+00,-8.874103192669998919e+00,-5.958689376710000520e-03,-7.045627105979999569e-03,-6.266179494559999917e-03,1.000000000000000000e+00
1.199844540000000043e-01,-3.953397726540000434e+00,-9.935231810119999896e-01,-8.908369034889998872e+00,-6.606735754760000023e-03,-1.499153790060000092e-03,-8.423026651140001417e-03,1.000000000000000000e+00
1.250499959999999966e-01,-3.942939753150000115e+00,-1.036520026700000097e+00,-8.926142007470000195e+00,1.668611168859999994e-02,7.528640795500000579e-03,-1.262908242640000019e-02,1.000000000000000000e+00
1.299371559999999981e-01,-3.946631885669999562e+00,-1.045712217930000021e+00,-8.895759144159999465e+00,6.547909229989999462e-03,-8.703176863489999956e-03,-2.352577634160000000e-02,1.000000000000000000e+00
1.350404410000000111e-01,-4.017748325899999529e+00,-1.025449547429999830e+00,-8.892232139080000763e+00,2.586787333710000285e-03,2.000468783079999840e-02,1.793859992179999859e-04,1.000000000000000000e+00
1.400257500000000044e-01,-3.953952730080000144e+00,-1.047071231329999907e+00,-8.914871256389998777e+00,8.802441880109999894e-03,6.512047257270000417e-03,-6.413815077390000452e-03,1.000000000000000000e+00
1.450411980000000101e-01,-3.967971026299999870e+00,-1.047090739739999998e+00,-8.911676259740000106e+00,-5.648737424049999137e-04,-1.093843020500000034e-02,8.546400349590000398e-04,1.000000000000000000e+00
1.500463370000000018e-01,-3.961072498949999687e+00,-1.036435197959999943e+00,-8.923267913340000135e+00,2.937951590869999907e-03,4.267995711420000289e-03,-2.643503714349999898e-03,1.000000000000000000e+00
1.549910810000000028e-01,-3.950305313490000358e+00,-1.020554761129999877e+00,-8.877849393460000016e+00,7.252576760950000222e-03,1.935015618800000128e-02,-1.509325206279999755e-02,1.000000000000000000e+00
1.600308830000000127e-01,-3.951780938999999826e+00,-1.035423609760000030e+00,-8.941344252769999557e+00,-3.549570101309999716e-04,6.060597021129999692e-03,-2.029431983829999703e-02,1.000000000000000000e+00
1.649922620000000006e-01,-3.963135568959999855e+00,-1.030620666459999946e+00,-8.923202446880001304e+00,6.498716305939999764e-03,1.607842929659999975e-02,-3.779208054770000214e-03,1.000000000000000000e+00
1.699179989999999862e-01,-3.962639017619999482e+00,-1.027946332680000019e+00,-8.896455309730001204e+00,5.789496935899998871e-03,1.195000298320000008e-02,3.391051897780000043e-03,1.000000000000000000e+00
1.750419390000000075e-01,-3.912637261610000028e+00,-1.060181034400000000e+00,-8.906065434120000290e+00,2.226670831440000220e-02,-2.450684551149999728e-04,-9.722123853860000983e-03,1.000000000000000000e+00
1.800215480000000035e-01,-3.947677303069999866e+00,-1.026613622770000012e+00,-8.880887153719999816e+00,8.236112073060001051e-03,1.316600851710000158e-02,-1.136676780879999904e-02,1.000000000000000000e+00
1.850988640000000018e-01,-3.934705593289999914e+00,-1.008718046729999873e+00,-8.875024983690000369e+00,-6.318449042739999327e-03,-4.691829904910000022e-03,-2.008042298259999844e-02,1.000000000000000000e+00
1.900016330000000031e-01,-4.049768435019999835e+00,-1.046986402589999976e+00,-8.916454726190000457e+00,6.789136212319999558e-03,-2.469736617060000038e-03,8.146006613970000615e-03,1.000000000000000000e+00
1.950356430000000085e-01,-3.937360783980000001e+00,-1.037708871149999990e+00,-8.937963378160000971e+00,6.919886451210000011e-03,9.933114051819999513e-03,-2.150151319800000169e-02,1.000000000000000000e+00
1.999244850000000129e-01,-4.029871894410000266e+00,-1.006302290829999890e+00,-8.882138030569999287e+00,1.423271652310000024e-02,-8.205046178770000016e-04,-3.646873403339999983e-03,1.000000000000000000e+00
2.049929970000000101e-01,-3.931050870179999990e+00,-1.026773489510000026e+00,-8.886479859159999606e+00,2.698916476219999621e-03,-2.239304594699999870e-03,-5.849439185109999925e-03,1.000000000000000000e+00
2.099857519999999977e-01,-3.965091671469999746e+00,-1.061384418840000121e+00,-8.916112780880000699e+00,1.421123091129999905e-02,9.779857471590000864e-03,-1.054236851629999916e-02,1.000000000000000000e+00
2.150603710000000002e-01,-4.002720268120000036e+00,-1.032547981260000025e+00,-8.878440345089998686e+00,2.040850743650000215e-02,2.041457779710000031e-02,9.124895557760000567e-03,1.000000000000000000e+00
2.200490930000000012e-01,-3.949011182019999566e+00,-9.908011356370000078e-01,-8.875606582969998826e+00,-1.921362709249999903e-03,-4.298158921299999671e-03,-1.167076267299999894e-02,1.000000000000000000e+00
2.250440599999999902e-01,-4.012031409559999595e+00,-9.944156728720000560e-01,-8.882631367040000114e+00,-7.623814512040000269e-03,3.620055038480000063e-03,-2.205120399590000061e-03,1.000000000000000000e+00
2.299928890000000059e-01,-3.934254634659999805e+00,-1.007409740609999993e+00,-8.867373007630000359e+00,1.007078494879999966e-02,3.891376778480000291e-03,-2.637663669879999895e-02,1.000000000000000000e+00
2.350311760000000083e-01,-4.052430055440000345e+00,-9.909248350820000217e-01,-8.882147382919999501e+00,1.186383888130000154e-03,9.125921875239998912e-03,1.530935894700000133e-02,1.000000000000000000e+00
2.400363259999999943e-01,-3.953668067919999807e+00,-1.020853159549999889e+00,-8.904583671130000155e+00,-5.463708192110000063e-03,3.877327311780000545e-03,6.360577419400000043e-03,1.000000000000000000e+00
2.450233350000000088e-01,-3.949397550990000560e+00,-1.016074254709999902e+00,-8.896654047180000191e+00,3.216239623730000018e-03,6.119067315009999591e-03,1.995738362890000107e-03,1.000000000000000000e+00
2.499604910000000069e-01,-3.962298533619999841e+00,-1.048252696200000056e+00,-8.904722202819998600e+00,-2.112994203339999769e-03,6.834337953479999173e-03,3.322149394079999905e-03,1.000000000000000000e+00
2.548778979999999916e-01,-3.949605348520000003e+00,-9.958803385969999811e-01,-8.902564732520000135e+00,5.570936016740000302e-03,-1.446290989410000142e-03,-4.439871758220000422e-03,1.000000000000000000e+00
2.599017989999999889e-01,-3.962748615469999791e+00,-1.005259357639999962e+00,-8.890318998939999773e+00,-4.092535004020000054e-03,9.181629866360001280e-03,-9.830303490159999699e-03,1.000000000000000000e+00
2.649326060000000149e-01,-3.999090971700000274e+00,-9.861079363189999558e-01,-8.886188182739999775e+00,8.132405579090000447e-03,-9.085873141879998588e-03,-8.729375898839999981e-03,1.000000000000000000e+00
2.698989580000000221e-01,-3.962872241849999977e+00,-1.020605541470000155e+00,-8.871499147650000694e+00,5.940068978819999616e-03,-2.063208958130000222e-03,-7.446572184560001223e-03,1.000000000000000000e+00
2.750475370000000086e-01,-3.982809991249999904e+00,-1.031451052870000051e+00,-8.881409716289999423e+00,-2.941850339989999889e-03,-6.506178760900000607e-04,1.178717240689999834e-02,1.000000000000000000e+00
2.800424830000000087e-01,-3.878180280730000096e+00,-1.026922031140000025e+00,-8.899896974620000734e+00,4.382735351100000218e-04,-3.283672500400000149e-03,-1.255422551179999867e-02,1.000000000000000000e+00
2.850187510000000146e-01,-3.986474358979999799e+00,-1.016135848710000067e+00,-8.903808595110000113e+00,-7.364457007499999354e-03,6.636747624729999635e-03,1.931715058160000118e-03,1.000000000000000000e+00
2.900705969999999856e-01,-3.990324896919999809e+00,-1.042444667500000088e+00,-8.920307309960000097e+00,1.077199634160000072e-02,-8.321629837159999835e-03,1.814296841620000045e-02,1.000000000000000000e+00
2.950880989999999926e-01,-3.918636209760000266e+00,-1.020725587650000099e+00,-8.882440812909999650e+00,1.093948353080000102e-02,1.739517599340000345e-02,4.766385536640000494e-04,1.000000000000000000e+00
3.000393160000000004e-01,-3.957718804609999808e+00,-1.021934378919999942e+00,-8.897065550589999816e+00,8.835929911579999598e-04,-5.383958108720000336e-03,-1.254772953689999894e-02,1.000000000000000000e+00
3.050444729999999827e-01,-4.010732309659999828e+00,-1.001660237170000078e+00,-8.886765105850001234e+00,1.523903664199999924e-02,-7.458952721210000171e-03,6.518904119729999197e-03,1.000000000000000000e+00
3.100456859999999870e-01,-3.944387321610000274e+00,-1.060137341389999932e+00,-8.901225008349999968e+00,-2.762211021039999697e-03,-2.391147427259999667e-04,1.628018217160000008e-03,1.000000000000000000e+00
3.150514050000000066e-01,-3.937794791480000001e+00,-1.045922061289999982e+00,-8.907333262099999871e+00,-9.663349017499999610e-03,1.229752553630000106e-03,-5.905994214119999856e-03,1.000000000000000000e+00
3.200438409999999956e-01,-3.946190279380000110e+00,-1.025635206200000038e+00,-8.902508033900000228e+00,-7.455919869239999512e-03,8.724865037949999748e-04,-1.264551654460000125e-02,1.000000000000000000e+00
3.250398829999999739e-01,-3.953263871030000320e+00,-1.031793874959999968e+00,-8.918562512119999397e+00,-5.345941986890000164e-03,-1.004651002589999897e-02,-5.481113679710000221e-03,1.000000000000000000e+00
3.300467610000000218e-01,-3.921655265319999639e+00,-1.016360524310000013e+00,-8.923347408310000617e+00,4.357912577689999380e-03,-9.751230478290000975e-03,-1.614206098020000077e-02,1.000000000000000000e+00
3.350701220000000258e-01,-3.957936539019999422e+00,-1.030601084980000026e+00,-8.910744531849999817e+00,-9.018532000479998964e-03,-1.821535639459999703e-02,2.578083658589999921e-03,1.000000000000000000e+00
3.399164410000000136e-01,-3.920138431019999814e+00,-1.005396647219999995e+00,-8.891363539550001249e+00,2.220954373480000035e-02,-2.896129153669999793e-03,-6.281482987110000200e-03,1.000000000000000000e+00
3.450786299999999973e-01,-3.986068408519999995e+00,-1.074645028559999993e+00,-8.931884935030000250e+00,-3.258477663619999739e-03,-3.110522637140000161e-03,5.646425299349999705e-03,1.000000000000000000e+00
3.499115409999999926e-01,-3.969799995290000272e+00,-1.020762266400000007e+00,-8.891634757709999448e+00,1.423616055399999983e-02,-4.911095835270000605e-03,7.950026541949999428e-03,1.000000000000000000e+00
3.550456160000000083e-01,-3.943670990040000213e+00,-1.029230673400000073e+00,-8.911604363549999519e+00,6.528074387460000745e-03,-6.615781690930000111e-03,-7.437333464620000424e-03,1.000000000000000000e+00
3.600392470000000067e-01,-3.965366104499999711e+00,-1.049368402350000062e+00,-8.890781355750000614e+00,8.418865501880000435e-03,-6.678068544720000554e-03,2.131396671759999868e-03,1.000000000000000000e+00
3.650007989999999869e-01,-3.964475000869999377e+00,-1.027997770610000083e+00,-8.904596530610001892e+00,1.267904043199999907e-02,-6.341961212460000240e-03,-1.887558028099999875e-04,1.000000000000000000e+00
3.699971149999999875e-01,-4.001509138759999473e+00,-1.013319256920000022e+00,-8.862607400669999080e+00,1.650212798269999875e-03,4.314400255680000094e-03,1.045430637899999980e-02,1.000000000000000000e+00
3.750478609999999824e-01,-3.943557300530000198e+00,-1.035062521359999987e+00,-8.888400013569999203e+00,2.002485841509999906e-02,-6.946507841350001156e-03,7.194769568740000572e-03,1.000000000000000000e+00
3.800659639999999784e-01,-3.939395796939999972e+00,-1.064768362189999928e+00,-8.880171114410000399e+00,8.132403716439999194e-03,4.931920208039999518e-03,7.682257331909999112e-03,1.000000000000000000e+00
3.850191130000000239e-01,-3.947358738640000198e+00,-1.050805303289999992e+00,-8.923857111400000264e+00,1.468218583610000037e-02,-9.044533595439999824e-03,2.520808251570000325e-03,1.000000000000000000e+00
3.899980590000000080e-01,-3.985655443809999809e+00,-1.041148782470000089e+00,-8.913933683280001574e+00,4.121557343750000338e-03,-1.264144666490000027e-02,9.049232117830000033e-03,1.000000000000000000e+00
3.950786649999999955e-01,-3.958632996850000030e+00,-1.024119175610000099e+00,-8.876630665319998670e+00,-1.331266714259999890e-03,-9.769961237909999610e-03,-5.938549526040000186e-03,1.000000000000000000e+00
4.000098449999999750e-01,-3.990466351219999819e+00,-1.057554704479999996e+00,-8.879632185229999308e+00,-5.981102120129999991e-03,-1.634603738780000121e-02,1.027806289490000059e-02,1.000000000000000000e+00
4.050901179999999990e-01,-3.967010364569999670e+00,-1.031514035100000060e+00,-8.898604596719998483e+00,1.664797961709999982e-02,-9.148742072280001067e-03,9.230743162329999724e-03,1.000000000000000000e+00
4.099889230000000051e-01,-3.938399771640000324e+00,-1.049594173929999874e+00,-8.920357578850000024e+00,1.089338678869999954e-03,1.344067510220000152e-03,7.368370424960000520e-04,1.000000000000000000e+00
4.149428270000000141e-01,-3.990252123949999952e+00,-1.016076227470000148e+00,-8.903355006119999970e+00,-4.345417255540000312e-05,-1.131856255229999990e-02,9.220331907270000460e-03,1.000000000000000000e+00
4.200216769999999822e-01,-3.913447993469999275e+00,-1.007776455029999907e+00,-8.892467116880000688e+00,5.720062181350000705e-03,-4.705688916150000019e-03,-4.291690886019999471e-03,1.000000000000000000e+00
4.250243949999999993e-01,-4.022112950849999535e+00,-1.008445148070000075e+00,-8.859525801269999334e+00,2.620309824120000135e-04,-1.948589645330000078e-02,4.090288653969999765e-03,1.000000000000000000e+00
4.299310949999999854e-01,-3.979971260690000179e+00,-1.034710566120000008e+00,-8.851177659639999362e+00,-2.091025700790000077e-03,1.108613982800000196e-02,1.518432889129999949e-02,1.000000000000000000e+00
4.350744020000000267e-01,-3.982609792499999912e+00,-1.054120930639999898e+00,-8.899623418380000928e+00,3.102768678220000340e-04,5.650228355080000320e-03,2.190626040099999741e-02,1.000000000000000000e+00
4.400387009999999766e-01,-3.984101492360000218e+00,-1.039457322260000094e+00,-8.867777496780000490e+00,-1.886209473009999721e-02,-1.043766550720000123e-02,1.308183837679999934e-02,1.000000000000000000e+00
4.450374779999999864e-01,-3.977457232039999901e+00,-1.021801327120000158e+00,-8.887139784380000407e+00,-8.986794389780001016e-03,-1.248264685270000091e-02,3.426798386499999970e-03,1.000000000000000000e+00
4.500241380000000180e-01,-3.989963077869999264e+00,-1.027509402570000230e+00,-8.854078057249999745e+00,-6.668575573710000884e-03,-1.952891796829999901e-02,6.859317421910000184e-03,1.000000000000000000e+00
4.550543080000000185e-01,-3.980343893399999722e+00,-1.067338285740000003e+00,-8.916153697420000412e+00,-1.031239982690000103e-03,-4.899532534180000426e-03,1.107114460320000014e-02,1.000000000000000000e+00
4.600375010000000153e-01,-3.952095411769999789e+00,-1.021717740489999970e+00,-8.867559470119999787e+00,-1.292002480479999965e-02,-3.722220193590000410e-03,7.133574690669999439e-04,1.000000000000000000e+00
4.650148499999999796e-01,-3.968050229009999708e+00,-9.932789969920000628e-01,-8.876372306649999544e+00,-1.032781321560000132e-02,-3.678796812889999907e-03,2.982232952489999658e-03,1.000000000000000000e+00
4.699627089999999785e-01,-4.001964481309999933e+00,-1.020544458929999898e+00,-8.878833728330000952e+00,6.519337184730000009e-04,5.613688845189999943e-03,6.454098038380000693e-03,1.000000000000000000e+00
4.749545629999999963e-01,-3.970740783269999685e+00,-1.020351858970000247e+00,-8.846167722520000609e+00,-1.290642656389999823e-02,-3.792553674429999851e-03,6.864685565229999668e-03,1.000000000000000000e+00
4.800462140000000266e-01,-4.007904685019999746e+00,-1.031464716070000120e+00,-8.899343432389999364e+00,-1.289501413699999967e-02,-2.624849556010000039e-03,1.873847283419999982e-02,1.000000000000000000e+00
4.850412680000000254e-01,-3.986228859780000633e+00,-1.037309131250000016e+00,-8.892949931960000498e+00,-7.080505602059999903e-03,4.877092316749999899e-03,1.281008776279999803e-02,1.000000000000000000e+00
4.899309299999999867e-01,-3.986077176349999807e+00,-1.016058984079999838e+00,-8.908795735870000954e+00,-4.511720035229998919e-03,-2.627772465350000294e-02,1.000978611409999997e-02,1.000000000000000000e+00
4.950264039999999754e-01,-4.003606403300000061e+00,-1.029213430009999986e+00,-8.912587529369998762e+00,-1.727307215330000159e-02,1.328750886020000146e-02,2.152254804970000004e-02,1.000000000000000000e+00
5.001034389999999830e-01,-3.961133873750000145e+00,-1.023250868339999897e+00,-8.914739738969998939e+00,-3.037480637430000144e-02,-2.177828736599999801e-02,6.548274308439999865e-03,1.000000000000000000e+00
5.050475939999999886e-01,-4.001815720490000672e+00,-9.791416044380000239e-01,-8.905361085250000031e+00,-1.312318071720000069e-02,5.611150059850000468e-03,9.637423790990000058e-03,1.000000000000000000e+00
5.100775119999999552e-01,-3.993725937540000270e+00,-9.755187377660000658e-01,-8.891597348310000370e+00,-1.796280965209999872e-02,1.486275531350000033e-02,1.780330575999999887e-02,1.000000000000000000e+00
5.150189469999999492e-01,-3.962561860730000163e+00,-1.004436643080000024e+00,-8.924317714649999900e+00,-4.598867148159999432e-03,-1.677076099439999855e-03,2.260781265800000314e-02,1.000000000000000000e+00
5.200676709999999536e-01,-3.967123469559999727e+00,-1.011167704899999853e+00,-8.888868800130000025e+00,-2.233200706539999972e-03,7.327509578319999807e-03,1.570071093739999757e-02,1.000000000000000000e+00
5.249516159999999543e-01,-3.974743004649999634e+00,-1.048196143700000027e+00,-8.912092439330001170e+00,3.317791968580000115e-03,-8.778448682279999318e-04,6.238834001119999452e-03,1.000000000000000000e+00
5.298988890000000396e-01,-4.012658017019999690e+00,-1.028830422039999970e+00,-8.885159424219999380e+00,-1.438750792290000025e-02,-5.036546848710000100e-03,1.664276467639999981e-03,1.000000000000000000e+00
5.349143950000000425e-01,-4.032884812499999860e+00,-9.860916427720000099e-01,-8.883834313089998602e+00,-2.013922855259999908e-02,3.270987886939999683e-03,2.056931518020000196e-02,1.000000000000000000e+00
5.399167080000000229e-01,-3.990834015490000386e+00,-9.941782108550000219e-01,-8.855212614239999169e+00,-9.606788866219998294e-03,-7.415295112880000185e-03,1.922868750990000195e-02,1.000000000000000000e+00
5.449871819999999589e-01,-3.948875865199999780e+00,-9.811785901580000191e-01,-8.864855471860000335e+00,-7.805089466270000338e-03,2.139815129339999854e-03,-3.414130536840000434e-03,1.000000000000000000e+00
5.500298529999999575e-01,-3.999326534030000602e+00,-1.012457817779999880e+00,-8.902998447769999046e+00,-2.884872490540000244e-03,-8.775787428019999822e-03,3.015107708050000519e-03,1.000000000000000000e+00
5.549974199999999636e-01,-3.986998675109999724e+00,-9.923086906559999143e-01,-8.908134057090000724e+00,-3.058107104150000269e-03,8.069623261689999258e-03,6.978278048340000490e-03,1.000000000000000000e+00
5.600034609999999802e-01,-4.002786903609999669e+00,-9.739992731139999194e-01,-8.857893816149999822e+00,-6.899105384949999822e-03,-3.380293492230000175e-03,1.433312054720000187e-02,1.000000000000000000e+00
5.649679589999999640e-01,-3.955454074549999977e+00,-9.991888055580000483e-01,-8.880505460930001149e+00,-6.991708651189999617e-03,-8.628761395809999776e-03,-2.453613560650000055e-04,1.000000000000000000e+00
5.700123620000000502e-01,-3.985011008430000334e+00,-1.026605585600000037e+00,-8.888575370139999876e+00,3.723298665139999821e-03,1.682238187639999855e-03,-1.211344264450000142e-03,1.000000000000000000e+00
5.750333720000000426e-01,-3.988673622589999912e+00,-1.016076227470000148e+00,-8.903355006119999970e+00,-5.624812562020000718e-03,-8.155792951579999076e-03,6.466868333520001295e-03,1.000000000000000000e+00
5.800476049999999661e-01,-3.952017378099999867e+00,-9.863312236810000133e-01,-8.904601206789999779e+00,5.873541813340000086e-04,6.382199469949999780e-03,-7.351812906559999916e-03,1.000000000000000000e+00
5.850337249999999489e-01,-4.024761127269999683e+00,-9.979833022259999575e-01,-8.887077825060000436e+00,-8.682523854080000450e-03,4.822819028050000147e-04,3.036168171089999920e-03,1.000000000000000000e+00
5.900392460000000172e-01,-3.996344303339999904e+00,-9.885848478270000683e-01,-8.898060406839999104e+00,-8.715380914510000715e-03,-4.520989023149999710e-03,2.047674031930000072e-03,1.000000000000000000e+00
5.950340290000000198e-01,-4.022874875130000305e+00,-9.909026963150000533e-01,-8.887551287790000032e+00,6.676206830889999232e-04,-3.311256412419999896e-03,1.885446719829999770e-02,1.000000000000000000e+00
5.999683740000000265e-01,-3.937673210930000334e+00,-1.001789781839999893e+00,-8.902236815739998477e+00,9.414600208400000780e-03,-5.665188655260000594e-04,3.831507638099999652e-05,1.000000000000000000e+00
6.050268779999999902e-01,-4.007171986830000421e+00,-1.035006334199999989e+00,-8.900230152100000680e+00,-1.008111797270000096e-02,-6.406364263969999400e-04,6.625782698390000544e-03,1.000000000000000000e+00
6.100020369999999970e-01,-4.012950570230000125e+00,-9.810295370770000245e-01,-8.857036322539999063e+00,-8.792489767070000087e-03,-1.282710954549999907e-02,5.074676126240000411e-03,1.000000000000000000e+00
6.150407450000000553e-01,-3.975523925889999699e+00,-9.992703463619999615e-01,-8.895612429169998947e+00,-5.501770880069999092e-03,-5.136062391100000308e-04,-6.285087205470000354e-03,1.000000000000000000e+00
6.200442999999999927e-01,-3.973481021890000076e+00,-1.004385205159999961e+00,-8.920583204299999736e+00,1.558889402079999872e-03,5.780328530819999443e-03,1.368190860380000132e-03,1.000000000000000000e+00
6.250950880000000209e-01,-3.963956529959999919e+00,-1.051744776100000056e+00,-8.904118976230000371e+00,-8.924957364799999959e-03,9.596532210709999428e-03,-6.572782061990000042e-03,1.000000000000000000e+00
6.300268879999999516e-01,-3.998507326600000411e+00,-1.017259811229999977e+00,-8.908874646319999258e+00,-1.951190084219999940e-02,1.612450927500000061e-02,-1.501168357210000068e-03,1.000000000000000000e+00
6.349890550000000244e-01,-3.992346758140000063e+00,-1.039817460809999927e+00,-8.897261949939998971e+00,1.757305115459999872e-03,7.506469730289999469e-03,8.802215568720000299e-03,1.000000000000000000e+00
6.400293649999999612e-01,-3.981900767449999989e+00,-1.022037693159999927e+00,-8.906766860389998541e+00,2.990559441970000475e-04,-9.968457743530001469e-03,1.086213253439999825e-02,1.000000000000000000e+00
6.449888999999999761e-01,-3.965993881010000166e+00,-1.015130105729999954e+00,-8.929729802829999841e+00,2.702968195079999826e-04,5.059676710520000405e-03,9.106502868239999687e-03,1.000000000000000000e+00
6.500344850000000507e-01,-3.965105407729999865e+00,-9.970259284360000196e-01,-8.902222787219999489e+00,-3.755690529940000199e-03,1.117666717619999897e-03,3.424501279370000158e-03,1.000000000000000000e+00
6.550528060000000430e-01,-3.993756624940000055e+00,-9.789297152529999879e-01,-8.873661878649999224e+00,-7.865990512069999038e-03,2.458956092600000139e-03,1.132047176359999956e-02,1.000000000000000000e+00
6.600877520000000276e-01,-3.987605116569999275e+00,-1.013474228280000000e+00,-8.882729566720000136e+00,6.436535622919999609e-04,-5.149245262150000052e-04,1.212279219179999978e-02,1.000000000000000000e+00
6.650225939999999669e-01,-3.985381010780000288e+00,-1.018138493769999986e+00,-8.880872540680000427e+00,-1.202012319120000089e-02,1.270305365320000164e-04,7.733923848719999631e-04,1.000000000000000000e+00
6.699336099999999572e-01,-3.995182273830000241e+00,-1.026480790170000157e+00,-8.870911703149999994e+00,-3.016567789019999890e-03,-2.967878710480000102e-03,9.008575230839999462e-03,1.000000000000000000e+00
6.750605170000000266e-01,-3.948558469820000028e+00,-1.026686030420000062e+00,-8.889187364560001470e+00,-4.593390040100000724e-03,-4.806591197850000087e-03,1.544824335720000011e-04,1.000000000000000000e+00
6.800631790000000176e-01,-4.009125458979999834e+00,-1.018075438469999927e+00,-8.872592788110001294e+00,-4.445595666769999732e-02,8.396243676539998785e-03,2.142080804329999939e-03,1.000000000000000000e+00
6.850056540000000194e-01,-4.019001248569999518e+00,-9.966774072589998923e-01,-8.863912053530000890e+00,-4.005559720099999277e-03,1.473641209299999914e-02,2.156024053689999803e-02,1.000000000000000000e+00
6.900007089999999899e-01,-3.972359032119999522e+00,-9.596076135369999704e-01,-8.849287315850000724e+00,-6.476920563729999039e-03,7.633137982340000051e-03,7.148850709199999938e-03,1.000000000000000000e+00
6.949604499999999518e-01,-3.976301047749999817e+00,-9.800100578360000370e-01,-8.869481378089998813e+00,-1.853609830140000303e-02,1.719211041929999753e-02,-4.229610320179999668e-03,1.000000000000000000e+00
7.000121329999999809e-01,-3.981308646780000515e+00,-9.466526356999999114e-01,-8.840327764319999559e+00,-1.251087244600000009e-02,1.530793495479999822e-02,1.532489527020000110e-02,1.000000000000000000e+00
7.050369300000000061e-01,-3.965261767340000354e+00,-9.625409635749999637e-01,-8.911436605769999630e+00,-2.155098319050000044e-02,2.974507026370000126e-02,-3.756678197530000118e-04,1.000000000000000000e+00
7.098868680000000042e-01,-4.014714657289999877e+00,-9.647349664880000564e-01,-8.895528258019998802e+00,-1.180026680229999750e-02,2.237504906950000053e-02,2.431505592539999743e-03,1.000000000000000000e+00
7.149257829999999814e-01,-4.002423623259999452e+00,-9.802565799429999727e-01,-8.892528491680000258e+00,5.697297863659999892e-03,1.229121163489999870e-02,1.105010136959999958e-02,1.000000000000000000e+00
7.200280100000000516e-01,-3.954992009999999780e+00,-9.579959405569999920e-01,-8.923115353120000037e+00,-8.883667178450000909e-03,1.776221580800000158e-02,5.995163694020000725e-03,1.000000000000000000e+00
7.250284270000000308e-01,-3.959980612059999849e+00,-9.947607599830000646e-01,-8.924276798119999299e+00,-1.296258158979999783e-02,2.019676752390000066e-02,-1.329179201279999910e-02,1.000000000000000000e+00
7.300562710000000344e-01,-4.034295263809999810e+00,-9.885014073270000923e-01,-8.885168192040000079e+00,-3.076030407099999758e-04,1.744539663199999938e-02,9.079551324250000055e-03,1.000000000000000000e+00
7.350253669999999850e-01,-3.997462493719999621e+00,-9.538559912080000203e-01,-8.870874878280000431e+00,-1.677982509140000080e-03,7.756198756399999231e-04,8.704246953129999090e-03,1.000000000000000000e+00
7.400304420000000105e-01,-3.962256155780000011e+00,-9.421316511439999930e-01,-8.884504759700000420e+00,-1.581350341440000001e-02,8.176105096940000649e-03,-2.224739640949999556e-03,1.000000000000000000e+00
7.450436769999999598e-01,-3.938644978569999733e+00,-1.004401206439999861e+00,-8.922934151339999787e+00,-8.903423440639999685e-04,1.562491804360000014e-02,-1.294532045719999983e-02,1.000000000000000000e+00
7.500390890000000477e-01,-4.035678242609999522e+00,-9.968974797509999597e-01,-8.901246051139999338e+00,-1.081413403149999834e-02,2.258604019879999897e-02,2.775734756140000410e-04,1.000000000000000000e+00
7.549863580000000240e-01,-3.988953608570000142e+00,-9.909029155109999598e-01,-8.885324259389998147e+00,-3.773349570110000068e-03,4.171502776440000511e-03,2.558614360170000015e-03,1.000000000000000000e+00
7.599889300000000070e-01,-3.993250428980000155e+00,-1.018390788029999827e+00,-8.905078761169999524e+00,-6.783809978510000477e-03,7.693855557590000525e-03,1.285975566130000049e-03,1.000000000000000000e+00
7.649556459999999891e-01,-3.994236225149999875e+00,-9.851077463009999535e-01,-8.908807426310000110e+00,-2.667478751390000170e-03,1.191649585959999973e-02,-1.044854056090000058e-03,1.000000000000000000e+00
7.699163020000000524e-01,-3.918059286660000140e+00,-1.010209089010000172e+00,-8.893975183360000258e+00,-1.739482954140000176e-02,2.430578134949999691e-02,-6.407693028449999197e-03,1.000000000000000000e+00
7.749402520000000516e-01,-3.971974708979999935e+00,-1.016514326629999854e+00,-8.951261251150000930e+00,3.057328285650000397e-03,6.211571861060001011e-03,-3.936458379030000412e-03,1.000000000000000000e+00
7.799943190000000470e-01,-4.047911993500000527e+00,-9.981933647799998699e-01,-8.916533636639998761e+00,-2.481673285370000065e-02,2.229377068579999760e-02,1.183078531179999893e-02,1.000000000000000000e+00
7.849496780000000395e-01,-3.928002296259999859e+00,-1.000757735379999902e+00,-8.911242544500000307e+00,-5.036546848710000100e-03,1.537110283969999984e-02,-6.102407351140000120e-04,1.000000000000000000e+00
7.898967140000000553e-01,-3.957354355209999675e+00,-9.851410640490000370e-01,-8.901260664189999616e+00,5.359824746850000259e-03,1.712095551190000176e-02,-7.702608592810001285e-03,1.000000000000000000e+00
7.949385530000000477e-01,-3.981370021569999640e+00,-1.007982864320000171e+00,-8.931925851569999963e+00,-1.589590124789999961e-02,2.096553891899999994e-02,-5.833465140310000949e-03,1.000000000000000000e+00
8.000083350000000149e-01,-3.957347048689999980e+00,-9.970981899540000137e-01,-8.901657554550000739e+00,-1.417793100700000079e-03,1.116065867249999878e-02,-4.489623475819999598e-03,1.000000000000000000e+00
8.049850179999999966e-01,-3.934023456249999828e+00,-1.003232601060000118e+00,-8.929785916930001122e+00,-6.372948177160000019e-03,1.400690525770000201e-02,-2.305636741220000105e-02,1.000000000000000000e+00
8.098967110000000469e-01,-3.998151060510000132e+00,-9.580109189299998995e-01,-8.924343433609999821e+00,1.362039428199999895e-02,2.417327649890000166e-02,-5.494443234060000444e-03,1.000000000000000000e+00
8.148965969999999448e-01,-4.013083548960000080e+00,-1.007904903720000078e+00,-8.931333146369999199e+00,4.871534183619999694e-03,1.678060181439999798e-02,2.176336711269999998e-03,1.000000000000000000e+00
8.199225089999999661e-01,-3.931659357469999616e+00,-9.914210941659999943e-01,-8.933840160749999981e+00,-2.213485538959999999e-02,2.133085206150000038e-02,-1.079600863159999903e-02,1.000000000000000000e+00
8.248924149999999900e-01,-4.992036133630000094e+00,1.216719795850000008e+00,-1.105143028059999999e+01,6.517053581770001179e-03,1.068717986350000149e-01,3.066631034020000229e-02,1.000000000000000000e+00
8.299732720000000397e-01,-3.583248947640000015e+00,-3.470958200979999964e-01,-7.921343033880000384e+00,1.602948829530000119e-02,-9.310957044360000656e-02,-4.702344536780000972e-02,1.000000000000000000e+00
8.349911209999999473e-01,-4.524175460780000435e+00,-1.572372358820000038e+00,-8.939064617399999690e+00,2.174319000910000018e-03,-1.151119545099999961e-02,-3.110071457919999852e-02,1.000000000000000000e+00
8.399694340000000148e-01,-4.013074196609999866e+00,-1.366493812400000119e+00,-8.984502426500000638e+00,-1.400715904309999789e-03,1.075664609669999966e-01,-8.101452142000000606e-03,1.000000000000000000e+00
8.449854719999999597e-01,-3.652616206109999819e+00,-9.025967824830000152e-01,-8.975386807630000519e+00,-1.549758389590000056e-02,2.501342073079999839e-02,9.360533207650000367e-03,1.000000000000000000e+00
8.499817859999999614e-01,-4.141941984059999804e+00,-1.058258322709999977e+00,-8.765467461389999215e+00,-2.864874899390000215e-02,6.977907568220000079e-02,5.089109763499999849e-03,1.000000000000000000e+00
8.549062790000000467e-01,-3.833071557459999834e+00,-7.025901968369999695e-01,-9.047790365060000894e+00,-2.210295759139999702e-03,1.317286491389999849e-02,-4.185326397419999317e-04,1.000000000000000000e+00
8.599840810000000113e-01,-3.876879719530000212e+00,-9.656631872490000212e-01,-8.813298303099999842e+00,2.080286294220000040e-02,6.206851918249999683e-03,-3.725021844730000160e-03,1.000000000000000000e+00
8.649694489999999458e-01,-3.838718038919999742e+00,-1.086510238400000050e+00,-9.024214259160000751e+00,2.744830027220000052e-02,-1.920290850099999960e-02,-1.558157522229999987e-02,1.000000000000000000e+00
8.699827260000000395e-01,-4.133251020350000360e+00,-1.339313106139999876e+00,-8.789619321349999126e+00,2.180578932169999901e-02,-5.843054968859999476e-03,-4.686286207289999846e-03,1.000000000000000000e+00
8.749969429999999715e-01,-3.895154504150000196e+00,-1.064001177209999982e+00,-8.916820636889998042e+00,1.109810196789999797e-03,4.305551946159999477e-02,-1.182185113429999948e-02,1.000000000000000000e+00
8.799685090000000098e-01,-4.045699578139999808e+00,-9.301813203059999813e-01,-8.895303801609999894e+00,1.512334216390000046e-03,2.571703307329999827e-02,-1.470265444369999678e-03,1.000000000000000000e+00
8.850007909999999534e-01,-3.982863182740000063e+00,-9.136929076459999743e-01,-8.897775744680000543e+00,6.133381277319999679e-03,5.710177123549999706e-02,-2.877158345650000261e-03,1.000000000000000000e+00
8.899131620000000353e-01,-3.848160405519999827e+00,-9.757054925100000498e-01,-9.002364830930000394e+00,3.525171801449999975e-02,1.636332459749999940e-02,-9.581179358069999430e-03,1.000000000000000000e+00
8.950492979999999932e-01,-3.913265622639999997e+00,-9.983867684599999626e-01,-9.031809536599999078e+00,4.198338091369999830e-02,-1.593888737260000036e-05,-7.725569419560000296e-03,1.000000000000000000e+00
8.999565109999999590e-01,-3.979338808010000061e+00,-8.472289693960000090e-01,-8.920497864099999674e+00,3.113237395879999564e-02,-1.851077424360000065e-03,-1.836366765199999931e-02,1.000000000000000000e+00
9.049405689999999725e-01,-3.987689287719999420e+00,-7.757339051109999328e-01,-8.906627159660001070e+00,2.559748664500000048e-02,1.961533166469999964e-02,-2.595982514319999934e-02,1.000000000000000000e+00
9.099744050000000417e-01,-4.033739091240000185e+00,-9.458351818379999720e-01,-8.770591380269999959e+00,4.082161467519999660e-04,3.178536519409999594e-02,-1.006619911639999865e-02,1.000000000000000000e+00
9.150005810000000350e-01,-3.999239732519999535e+00,-9.824700912739999792e-01,-8.877881542169999918e+00,1.805140450600000238e-02,5.432753264899999740e-02,-8.539715781810000225e-03,1.000000000000000000e+00
9.199457180000000234e-01,-3.815337455590000371e+00,-8.274560551729999158e-01,-8.892835950189999394e+00,9.763007983570000381e-03,2.532900497320000194e-02,-4.982277285310000685e-03,1.000000000000000000e+00
9.250215309999999524e-01,-3.913592662640000164e+00,-9.514682923540001003e-01,-8.844079225810000722e+00,4.014929756519999837e-02,1.426769793029999782e-02,-1.633464172479999824e-02,1.000000000000000000e+00
9.299921190000000060e-01,-3.975914386519999510e+00,-9.296369112310000071e-01,-8.803128791260000696e+00,1.645451039079999858e-02,1.897122152149999935e-02,-5.436478648329999726e-03,1.000000000000000000e+00
9.349626039999999749e-01,-3.833812146700000145e+00,-1.032209104689999934e+00,-8.935093375689998396e+00,-3.584280784709999797e-04,3.930108156059999858e-03,-2.043972536919999930e-02,1.000000000000000000e+00
9.400176599999999771e-01,-4.119525569589999492e+00,-9.676046036399998940e-01,-8.853415793949999113e+00,4.798613954340000438e-03,6.914186757060000743e-03,-1.174234878269999997e-02,1.000000000000000000e+00
9.449963110000000333e-01,-3.871924142950000203e+00,-1.089697490130000057e+00,-8.985632307310000400e+00,4.159132950010000634e-03,1.530317962170000233e-02,-1.334810908880000070e-02,1.000000000000000000e+00
9.499138219999999633e-01,-3.926345761230000342e+00,-1.208981383620000072e+00,-8.907043339239999469e+00,-9.926252067090000214e-03,2.383849956099999903e-02,-1.125871948899999885e-02,1.000000000000000000e+00
9.549394789999999800e-01,-4.022499319819999641e+00,-1.039721306949999979e+00,-8.894301931090000224e+00,2.709035994489999728e-03,2.693995274600000100e-02,4.380401223900000016e-03,1.000000000000000000e+00
9.599198349999999991e-01,-3.855316999280000267e+00,-1.048871851010000134e+00,-8.936176494750000643e+00,4.673786461350000823e-03,1.395230181520000154e-02,5.270948167890000206e-04,1.000000000000000000e+00
9.649742740000000207e-01,-3.929947292850000107e+00,-9.650447630899999796e-01,-8.888969922410000279e+00,-4.386744461949999667e-03,2.484379708769999737e-02,1.230172533539999891e-02,1.000000000000000000e+00
9.699987439999999683e-01,-3.850848037169999571e+00,-1.012396442979999867e+00,-8.846813619209999757e+00,-1.877369359139999944e-02,2.166427113119999762e-02,3.544784849510000148e-03,1.000000000000000000e+00
9.750294350000000554e-01,-3.913817995830000118e+00,-9.985363329989999093e-01,-8.915799477150001096e+00,2.301993547010000238e-03,1.869047805670000229e-02,6.799639668319999936e-04,1.000000000000000000e+00
9.800327359999999599e-01,-3.871780058299999716e+00,-1.009503717210000096e+00,-8.933325196969999382e+00,5.766275571659999896e-04,1.108442991970000173e-02,-7.873385213319998924e-03,1.000000000000000000e+00
9.850181139999999447e-01,-3.830801858969999696e+00,-1.039132912610000181e+00,-8.903338054980000749e+00,-9.294349700209999718e-03,2.265464887020000179e-02,-1.555820088830000072e-02,1.000000000000000000e+00
9.900758219999999943e-01,-3.931601489800000238e+00,-1.011951037300000023e+00,-8.951659895080000595e+00,-1.428844500329999948e-02,1.057845912870000044e-02,-6.469394546000000260e-03,1.000000000000000000e+00
9.949190039999999957e-01,-3.962900883430000576e+00,-9.199468534739999592e-01,-8.920126692700000248e+00,-1.805515377779999932e-03,6.152833346279999380e-03,-1.971769379450000019e-03,1.000000000000000000e+00
9.999415720000000007e-01,-3.884540171159999833e+00,-9.345095587680000149e-01,-8.924462091560000587e+00,-2.977921627459999884e-03,1.405858807269999913e-02,-1.559578115119999954e-03,1.000000000000000000e+00
1.004950621000000099e+00,-3.888457636859999678e+00,-9.523042317209998719e-01,-8.934013179229999935e+00,3.297660034149999669e-03,7.518969941879999688e-03,-1.761080697179999779e-02,1.000000000000000000e+00
1.009993839000000060e+00,-3.976307185230000041e+00,-9.620259997900000304e-01,-8.976749328150001261e+00,1.665813149880000050e-03,2.072870917620000045e-02,-1.219155546279999947e-02,1.000000000000000000e+00
1.015016563999999955e+00,-3.971029244819999970e+00,-9.272406637440000488e-01,-8.945790710789999878e+00,8.347949013109999539e-03,1.307064667339999896e-02,-1.279476378109999958e-02,1.000000000000000000e+00
1.020009906000000077e+00,-3.948666021849999819e+00,-1.009270858310000074e+00,-8.928211214960001030e+00,1.589222624900000005e-02,8.270472288129999960e-03,-8.979687467219998886e-03,1.000000000000000000e+00
1.024989496000000111e+00,-3.913189634800000150e+00,-9.609835049999999601e-01,-8.973417553380000911e+00,1.362578757110000094e-02,2.173062972719999944e-02,-1.071499288079999848e-02,1.000000000000000000e+00
1.029981268000000005e+00,-3.913494170699999941e+00,-9.441017821739999816e-01,-8.947268382129999864e+00,4.011911805720000217e-03,4.343534819780000525e-04,-1.273347344250000054e-02,1.000000000000000000e+00
1.035024421999999999e+00,-3.946319458719999673e+00,-1.018885074349999975e+00,-8.927782175890000005e+00,2.308161929250000105e-02,-4.921955056489999737e-03,4.446039907630000391e-03,1.000000000000000000e+00
1.039948874000000023e+00,-3.931066067749999782e+00,-9.950463719909999893e-01,-8.943164453939999703e+00,2.623849734660000169e-02,9.309470653530001194e-03,-1.220618933439999998e-02,1.000000000000000000e+00
1.044970015000000085e+00,-3.926152868999999601e+00,-1.045725223540000082e+00,-8.874634523069998338e+00,3.082697093490000331e-02,6.579511333260000885e-03,-1.338281203059999910e-02,1.000000000000000000e+00
1.049934214000000088e+00,-3.930391529490000035e+00,-1.006606899789999954e+00,-8.884826831259999835e+00,1.271166373039999895e-02,2.143171429630000291e-02,-5.988134536889999464e-03,1.000000000000000000e+00
1.055001156000000107e+00,-3.914550694019999444e+00,-1.032913526639999802e+00,-8.903537376950000137e+00,1.021711062640000105e-02,1.756021566690000105e-02,-9.964235126969998857e-03,1.000000000000000000e+00
1.060018778000000106e+00,-3.970537954180000551e+00,-9.923927156769999369e-01,-8.900972494899999532e+00,2.419783547520000175e-02,1.083475351330000051e-02,6.401233375069999461e-03,1.000000000000000000e+00
1.064983849999999954e+00,-3.871773044040000222e+00,-1.008252548109999980e+00,-8.935091622119999855e+00,6.574631668630000376e-03,3.223345428709999821e-02,-1.312230620529999947e-02,1.000000000000000000e+00
1.069999770999999988e+00,-3.918177652340000261e+00,-1.012763157400000003e+00,-8.912007099129999332e+00,1.853897050020000131e-02,1.287732739000000065e-03,-1.570762880149999957e-02,1.000000000000000000e+00
1.075021771999999931e+00,-3.941455359819999948e+00,-9.770444129629999308e-01,-8.904175674850000277e+00,1.564363390209999941e-02,1.608218438920000146e-02,-1.847203588109999888e-03,1.000000000000000000e+00
1.079993948999999898e+00,-3.893791691359999696e+00,-9.927332727429999393e-01,-8.913592322499999554e+00,1.828234270219999957e-02,7.644265424460000048e-03,8.309438824649999916e-03,1.000000000000000000e+00
1.084920131999999926e+00,-3.901761647330000304e+00,-1.069774646039999944e+00,-8.914344602170000798e+00,2.088250219819999878e-02,-5.499841645360000570e-04,-1.714915409679999836e-02,1.000000000000000000e+00
1.089879443999999920e+00,-3.852172856040000148e+00,-9.477546786579998939e-01,-8.923371373710001109e+00,2.558972686530000193e-02,1.739675737920000007e-02,-8.941972628239999374e-03,1.000000000000000000e+00
1.094925227000000056e+00,-3.965661580309999490e+00,-9.343914122809999778e-01,-8.942506866810001398e+00,2.670859918000000055e-02,2.118649519979999910e-02,-6.231806706640001178e-03,1.000000000000000000e+00
1.100006094000000045e+00,-3.991404216590000331e+00,-1.026380106279999982e+00,-8.850086357269999482e+00,1.378500182179999943e-02,3.607463836669999591e-02,1.142248418180000051e-02,1.000000000000000000e+00
1.104985537999999989e+00,-3.861899592539999926e+00,-9.758412477179999600e-01,-8.904080397779999601e+00,2.552952244879999957e-02,1.970252394679999908e-02,-1.709642075000000067e-02,1.000000000000000000e+00
1.109994192999999907e+00,-3.907071151919999874e+00,-1.056785327549999876e+00,-8.902894402869998558e+00,1.461805682629999971e-02,1.098389178509999974e-02,-1.227166410540000106e-02,1.000000000000000000e+00
1.115043999000000063e+00,-3.917181334780000412e+00,-1.009328287579999817e+00,-8.921961506910001560e+00,2.603751420969999814e-02,1.148644462229999989e-02,-8.638299070299998786e-03,1.000000000000000000e+00
1.120024823999999919e+00,-3.836679226569999379e+00,-1.042782301959999991e+00,-8.893901533599999354e+00,1.789392903449999947e-02,2.226937189699999819e-02,9.842000901700001178e-03,1.000000000000000000e+00
1.124954339000000081e+00,-3.844481132490000341e+00,-1.039138611700000103e+00,-8.913411120710000191e+00,2.114214375620000058e-02,1.879133656619999884e-02,-2.471667481589999958e-03,1.000000000000000000e+00
1.129947028999999992e+00,-3.844085995689999979e+00,-1.060816482760000179e+00,-8.937592206760001545e+00,2.461099997159999636e-02,2.236202172939999802e-02,-6.656964309510000552e-03,1.000000000000000000e+00
1.134985372000000048e+00,-3.865668005159999865e+00,-1.020076695290000002e+00,-8.907733075070000339e+00,2.296693995590000023e-02,-6.444923579689999966e-03,-5.568165332079999703e-03,1.000000000000000000e+00
1.140054643000000034e+00,-3.823072726019999923e+00,-1.092740438020000093e+00,-8.919209577860000238e+00,3.334183618429999857e-02,5.014520138500000001e-05,-2.497785724700000293e-02,1.000000000000000000e+00
1.144999891000000103e+00,-3.939517377490000083e+00,-1.061788981050000080e+00,-8.930362840029999916e+00,2.247713506219999741e-02,1.475195772949999817e-02,-2.468917053189999874e-03,1.000000000000000000e+00
1.149983731000000065e+00,-3.869400177430000198e+00,-1.030677145889999924e+00,-8.904637447149999829e+00,1.539798174049999968e-02,2.569187432530000217e-03,-1.053986605260000091e-02,1.000000000000000000e+00
1.154940376999999962e+00,-4.121918017689999658e+00,-9.786953219750000876e-01,-9.035829878150000383e+00,2.159127593040000015e-02,-8.163930615410000535e-04,-1.258594915270000014e-03,1.000000000000000000e+00
1.159932527000000047e+00,-3.827425660530000329e+00,-1.079733949199999987e+00,-8.917655918670000403e+00,1.478233467789999943e-02,2.395416144280000312e-03,-5.531062372030000340e-03,1.000000000000000000e+00
1.165001822000000020e+00,-3.913008140749999697e+00,-9.080287444040000544e-01,-8.904425850219999106e+00,1.493327226490000041e-02,-1.383272185920000029e-02,-1.049072016029999749e-02,1.000000000000000000e+00
1.169938694999999917e+00,-3.927421573769999785e+00,-1.091987135439999923e+00,-8.863333376849999112e+00,2.214695885780000248e-02,1.088072173299999869e-02,-1.504466589540000114e-02,1.000000000000000000e+00
1.175011438000000075e+00,-3.992662107699999741e+00,-1.023431193349999990e+00,-8.921683859010000717e+00,1.425590645519999970e-02,-6.243322510269999799e-03,3.162794979290000242e-03,1.000000000000000000e+00
1.179976976000000066e+00,-3.867342368119999652e+00,-1.052746354349999969e+00,-8.838048713470000095e+00,1.630018278959999983e-02,9.224230423570000184e-03,6.666022818540000717e-04,1.000000000000000000e+00
1.185014851000000036e+00,-3.858651988919999720e+00,-1.098661644770000168e+00,-8.930113833710001003e+00,1.549873221670000113e-02,-2.217658329760000512e-03,-1.774973981079999708e-02,1.000000000000000000e+00
1.189890278000000023e+00,-3.937153278709999871e+00,-1.076803814030000028e+00,-8.894535155330000720e+00,-3.964795731010000053e-03,4.357319790869999820e-03,-1.604312285780000111e-02,1.000000000000000000e+00
1.195002823000000047e+00,-3.939565016019999977e+00,-1.042931135849999968e+00,-8.946293984139998656e+00,3.166358452289999483e-03,8.515689522029998987e-03,1.150148734450000092e-02,1.000000000000000000e+00
1.200034910000000066e+00,-3.884914557430000137e+00,-1.056996266879999924e+00,-8.931243130000000363e+00,1.807511551309999966e-03,-5.897586699579999633e-03,1.050420105460000015e-04,1.000000000000000000e+00
1.204958396000000098e+00,-3.863833775469999843e+00,-1.049865172889999920e+00,-8.922418603029999673e+00,6.005520932380000766e-03,-3.983004949989999918e-03,-1.037763617929999931e-02,1.000000000000000000e+00
1.209968327999999982e+00,-4.263516691899999600e+00,5.229721365609999451e-01,-9.708495330719999927e+00,7.996693253519999989e-02,7.746479008350000937e-03,3.814975963909999525e-03,1.000000000000000000e+00
1.214938045000000022e+00,-3.854276550319999384e+00,2.204464028130000142e-01,-6.369813264330001168e+00,7.685320079330000553e-02,-1.719716042280000079e-01,-8.033970743419999172e-02,1.000000000000000000e+00
1.219991484999999987e+00,-4.324368635489999946e+00,-4.698506776290000131e-01,-8.961787321339999224e+00,4.067236185069999371e-02,-1.282287538050000120e-01,-1.229585800320000082e-02,1.000000000000000000e+00
1.224941459000000066e+00,-5.196237686749999973e+00,-1.639212729170000049e+00,-8.530710611010000832e+00,5.806500837209999794e-02,1.120800971979999949e-01,3.622505068780000614e-02,1.000000000000000000e+00
1.229930302999999947e+00,-3.341855143459999677e+00,-6.616212037190000173e-01,-9.038753656649999968e+00,-2.003274392340000098e-03,9.407389909029999220e-02,5.491212755440000315e-02,1.000000000000000000e+00
1.234945822000000026e+00,-4.264909607559999927e+00,-9.585417378710000547e-01,-8.986188772150001114e+00,-5.136412382130000481e-02,1.571280956270000029e-01,3.860327973959999659e-02,1.000000000000000000e+00
1.239946108999999907e+00,-3.684695351939999863e+00,-1.185253886549999969e+00,-8.963528027529999775e+00,-4.893510788680000001e-02,1.061338558789999970e-01,2.593692950899999933e-02,1.000000000000000000e+00
1.244990719000000023e+00,-3.423701067500000139e+00,-5.151327481730000324e-01,-9.106289315780001559e+00,-6.255248445090000808e-04,-1.616019383069999815e-02,-2.362450584770000098e-02,1.000000000000000000e+00
1.249905556999999945e+00,-3.972093366919999813e+00,-1.263643532649999957e+00,-9.053515756970000439e+00,4.466233402490000365e-02,-4.680842533710000142e-02,-1.684659905729999838e-02,1.000000000000000000e+00
1.254909172000000073e+00,-4.030345941670000265e+00,-9.405096759659999917e-01,-8.981656973939999844e+00,5.972063913940000440e-02,-5.496003851290000297e-02,-5.062204785649999754e-03,1.000000000000000000e+00
1.259983598000000038e+00,-3.854707050690000081e+00,-1.237943566470000256e+00,-8.782835944820000407e+00,-6.621296051889999498e-05,-3.161795064809999611e-02,3.467342117800000217e-03,1.000000000000000000e+00
1.264970332000000086e+00,-4.042385046769999768e+00,-9.982328930730000049e-01,-8.808601669710000692e+00,-1.924702525139999898e-02,1.205507852139999815e-02,-1.422087475659999933e-02,1.000000000000000000e+00
1.269943016000000036e+00,-4.005500838749999737e+00,-1.081907566910000007e+00,-8.813419299130000439e+00,-2.174668759109999946e-02,5.178906768559999457e-02,2.282878151159999786e-03,1.000000000000000000e+00
1.274937978000000083e+00,-3.801902804480000064e+00,-9.648117580509999458e-01,-8.956426671090000013e+00,1.218740735199999939e-02,3.972150385380000120e-02,1.760726096109999951e-03,1.000000000000000000e+00
1.279929949000000011e+00,-3.876355695660000045e+00,-1.047679864739999855e+00,-9.068913232589999041e+00,2.421757951379999857e-02,-2.680765464900000325e-03,1.394614856690000113e-02,1.000000000000000000e+00
1.284997412000000061e+00,-3.854707635209999594e+00,-1.103607503670000156e+00,-9.085435328320000892e+00,2.442073309789999868e-04,-1.474632322789999964e-02,-1.861562719569999922e-03,1.000000000000000000e+00
1.290118311000000073e+00,-3.911119550520000043e+00,-1.020840665399999958e+00,-8.869943734910000543e+00,8.105713874100001215e-03,-3.242998570200000125e-02,8.421323262159999962e-03,1.000000000000000000e+00
1.294946428000000038e+00,-3.907098624440000112e+00,-1.029670526129999875e+00,-8.823432743619999741e+00,-2.379036275670000020e-03,-2.869757357979999934e-03,-2.361765317619999791e-02,1.000000000000000000e+00
1.299952277000000045e+00,-4.046525799830000381e+00,-1.041628748009999939e+00,-8.847239151140000146e+00,3.652624320239999597e-03,1.887976937000000049e-02,-4.831151571119999925e-03,1.000000000000000000e+00
1.304909400999999969e+00,-3.951242886600000226e+00,-1.103329344320000072e+00,-8.936083555770000686e+00,-2.975733485070000163e-03,2.438028343019999974e-02,3.784835105760000432e-03,1.000000000000000000e+00
1.309979431999999999e+00,-3.820338917139999957e+00,-1.076990349579999950e+00,-9.007530250869999477e+00,1.055345777420000145e-02,3.135998174550000406e-02,2.512541832400000136e-03,1.000000000000000000e+00
1.314961339999999979e+00,-3.824433492980000349e+00,-1.028205275879999991e+00,-9.006607290799999888e+00,1.346113998439999945e-02,-1.397564634679999973e-02,1.892783911900000268e-03,1.000000000000000000e+00
1.320038029000000002e+00,-3.852090146190000119e+00,-1.014267789810000098e+00,-8.931111028049999234e+00,9.191076271240000359e-03,-2.118476107720000320e-02,-1.307552214709999973e-02,1.000000000000000000e+00
1.324974697999999895e+00,-3.942091611890000014e+00,-1.044541566719999981e+00,-8.875801228760000328e+00,1.905630528929999970e-02,-1.327625848350000130e-02,-6.730242632329999121e-03,1.000000000000000000e+00
1.329915093999999964e+00,-3.940665670740000071e+00,-1.044533529540000005e+00,-8.885769080550000254e+00,2.126994356509999753e-02,1.461276039480000066e-02,-1.454256940629999884e-02,1.000000000000000000e+00
1.334989766000000078e+00,-3.936741190769999843e+00,-1.083016258799999854e+00,-8.918800412530000443e+00,-1.887157675809999959e-03,1.000517234210000078e-02,-5.201048683379999940e-03,1.000000000000000000e+00
1.340008477000000031e+00,-3.933265039100000138e+00,-1.070057846899999943e+00,-8.933214137809999400e+00,-9.141640039160000902e-04,3.232494741679999700e-02,2.459780545909999883e-03,1.000000000000000000e+00
1.344950050000000008e+00,-3.879539878650000162e+00,-1.071108525000000089e+00,-8.908748974119999886e+00,-2.097557764500000092e-03,-4.327391274270000684e-03,-6.880975794049999476e-03,1.000000000000000000e+00
1.349900370999999932e+00,-3.828619546489999692e+00,-1.038372376560000143e+00,-8.948954143260001715e+00,-3.407725132999999806e-03,-1.310633867979999791e-02,-1.085807941849999993e-02,1.000000000000000000e+00
1.354968020000000051e+00,-3.882804725659999789e+00,-1.046038308079999979e+00,-8.891502071239999694e+00,6.895735859869999915e-03,-8.738674223420001344e-03,-1.037294417620000103e-02,1.000000000000000000e+00
1.360105045000000068e+00,-3.898669526530000429e+00,-1.085234446309999878e+00,-8.890817011589998486e+00,2.199941547590000216e-03,1.686307229100000166e-02,-8.828870020809998637e-03,1.000000000000000000e+00
1.364872633000000057e+00,-3.946942266790000264e+00,-1.118485266260000000e+00,-8.891300995710000876e+00,2.191915642469999519e-03,-8.372766897080000797e-03,9.121136739849999148e-03,1.000000000000000000e+00
1.369888455999999977e+00,-3.878905964659999484e+00,-1.087575164220000001e+00,-8.880481495529998881e+00,-1.375885680320000116e-02,1.064826361839999944e-02,7.902682758870000976e-03,1.000000000000000000e+00
1.374830959000000075e+00,-3.896151113969999358e+00,-1.038348776489999903e+00,-8.839427016089999256e+00,-2.378076314929999935e-02,9.112101048229999042e-03,6.876734551040000320e-04,1.000000000000000000e+00
1.379868357000000101e+00,-3.870157133280000217e+00,-1.052452412910000135e+00,-8.939588933539999616e+00,-1.512073818590000014e-02,3.093393053860000064e-03,1.924025593329999929e-03,1.000000000000000000e+00
1.385000065999999919e+00,-3.870964358010000161e+00,-1.057016944339999931e+00,-8.915799477150001096e+00,-6.221188232299999440e-03,1.571086049080000144e-02,5.399772897360000275e-03,1.000000000000000000e+00
1.389945984999999995e+00,-3.863488323040000338e+00,-1.112891976300000030e+00,-8.911861553180001394e+00,-1.370306406170000019e-02,-1.849786192180000177e-02,5.830852314829999827e-03,1.000000000000000000e+00
1.394867931999999922e+00,-3.874950212769999514e+00,-1.066357092679999896e+00,-8.901028608999999037e+00,-2.339736372229999847e-02,-3.855533432219999880e-04,4.570883698760000793e-03,1.000000000000000000e+00
1.399946579999999940e+00,-3.896331731240000096e+00,-1.046068045629999999e+00,-8.898414627110000197e+00,-1.542542781679999940e-02,-6.025023758409999743e-03,7.673508487640000320e-03,1.000000000000000000e+00
1.404913743000000048e+00,-3.922669995319999270e+00,-1.014010965510000029e+00,-8.915785448630000332e+00,-2.234369516369999822e-02,-7.956843823190000442e-03,1.102397590880000063e-02,1.000000000000000000e+00
1.409868866999999915e+00,-3.888050517359999958e+00,-1.009710053439999866e+00,-8.966096416710000128e+00,-1.248467154799999881e-02,1.293737255039999895e-02,-2.634618431329999850e-04,1.000000000000000000e+00
1.414888700999999971e+00,-3.936015214589999811e+00,-9.965957203249999896e-01,-8.961495060399998991e+00,-2.413329202680000035e-03,1.724448055029999954e-02,1.424162741749999961e-02,1.000000000000000000e+00
1.419883218000000058e+00,-3.864372704659999602e+00,-9.939638374510000318e-01,-8.927270134710001415e+00,-2.838684013109999803e-03,7.871223613620000406e-03,-1.613059779630000119e-03,1.000000000000000000e+00
1.424914052000000098e+00,-3.889195595749999956e+00,-1.078509083579999972e+00,-8.931881427900000503e+00,-8.687148801980000209e-03,8.460385724900000874e-04,3.026350634170000067e-03,1.000000000000000000e+00
1.429913111000000070e+00,-3.915164442000000022e+00,-1.065085173050000167e+00,-8.904867164249999689e+00,1.078401226549999996e-03,5.135985556989999291e-03,5.804311484100000036e-03,1.000000000000000000e+00
1.434857641000000017e+00,-3.854555951780000544e+00,-1.058041172829999876e+00,-8.905619443919999156e+00,-5.134537816049999925e-03,1.667538471520000135e-02,-1.006078626960000069e-02,1.000000000000000000e+00
1.439869795999999980e+00,-3.891053206309999624e+00,-1.103685902670000107e+00,-8.946596181950001281e+00,-2.497140550989999843e-03,1.120891422030000084e-02,5.669594742359999884e-03,1.000000000000000000e+00
1.444869291000000056e+00,-3.877368379830000489e+00,-1.066479696150000045e+00,-8.918677078410000902e+00,-1.602200418710000157e-02,8.303623646500000663e-03,1.346038421619999903e-03,1.000000000000000000e+00
1.449932902000000023e+00,-3.871721021590000422e+00,-1.078560667629999914e+00,-8.933388909860001448e+00,-5.269191227850000478e-03,3.424883820120000217e-03,2.563751069830000253e-03,1.000000000000000000e+00
1.454962279000000080e+00,-3.905638488759999749e+00,-1.098818735020000048e+00,-8.950253535419999906e+00,-2.199653536079999860e-02,2.777403593059999884e-02,5.634671077130000254e-03,1.000000000000000000e+00
1.459964873999999968e+00,-3.882284793440000215e+00,-1.077249877290000102e+00,-8.925787202680000476e+00,-9.847651235759998997e-03,-1.636355882510000118e-03,4.329421557489999441e-03,1.000000000000000000e+00
1.464944733999999915e+00,-3.861339912830000554e+00,-1.097603075620000146e+00,-8.937804388210000894e+00,-8.704756386579999908e-03,6.400927435610000160e-03,-3.569158725439999964e-03,1.000000000000000000e+00
1.469796748000000042e+00,-3.885942439169999929e+00,-1.048514123609999960e+00,-8.906711330810001215e+00,-8.787573315200001428e-03,-2.420182107019999956e-03,-6.406484171749999255e-03,1.000000000000000000e+00
1.474908917000000041e+00,-3.886742941900000137e+00,-1.070098105839999869e+00,-8.914576072839999199e+00,-1.575492881239999934e-02,3.580767661330000093e-04,6.226901896300000329e-03,1.000000000000000000e+00
1.479975631000000069e+00,-3.855398832350000138e+00,-1.004386593400000027e+00,-8.892735412429999542e+00,9.188737021760000259e-04,7.478205952789999597e-03,-1.179946772750000046e-02,1.000000000000000000e+00
1.484969350000000077e+00,-3.911258958989999979e+00,-1.048843209429999979e+00,-8.943758328180001271e+00,-2.457981929180000011e-02,-2.212419640269999970e-03,-5.639605224129999725e-04,1.000000000000000000e+00
1.489973194999999917e+00,-3.849135388040000105e+00,-1.090332061710000078e+00,-8.912313973119999844e+00,-1.210549753160000165e-02,1.492773648349999963e-03,-2.388562541459999990e-03,1.000000000000000000e+00
1.494947690000000051e+00,-3.928652576869999802e+00,-1.045058649390000038e+00,-8.923194263580001007e+00,-7.385524921119999801e-03,1.260340213779999850e-02,1.228685956449999950e-02,1.000000000000000000e+00
1.500026730000000086e+00,-3.892848857559999765e+00,-1.027380953880000058e+00,-8.939047666269999581e+00,-1.216087304059999992e-02,3.278488758950000043e-03,1.249006483699999920e-02,1.000000000000000000e+00
1.504926831999999992e+00,-3.858998610400000029e+00,-1.065098982379999892e+00,-8.891600270919999716e+00,-1.133925281470000122e-02,-1.776477694509999775e-02,4.953153431420000488e-03,1.000000000000000000e+00
1.509839369000000042e+00,-3.923329043749999911e+00,-1.041489631799999982e+00,-8.922098285029999687e+00,-4.566057585180000045e-03,-8.648629300299999403e-04,1.816589199009999850e-02,1.000000000000000000e+00
1.516065395000000038e+00,-3.870551101030000662e+00,-1.056945851870000119e+00,-8.921945140300000077e+00,-2.094513736670000278e-03,1.444310694930000041e-02,3.731578821320000010e-03,1.000000000000000000e+00
1.519889159999999961e+00,-3.906894626300000173e+00,-1.040647774149999982e+00,-8.954837940599999158e+00,-6.812585052100000871e-03,2.046189736569999779e-03,1.767621003090000253e-02,1.000000000000000000e+00
1.524939923000000030e+00,-3.875545840580000068e+00,-9.997945163660000301e-01,-8.916313856409999516e+00,-1.431198325010000008e-02,-4.515671171250000148e-04,4.435214214029999276e-03,1.000000000000000000e+00
1.529976357000000009e+00,-3.888188172270000020e+00,-1.025040162910000108e+00,-8.940467469939999745e+00,-2.351462841029999806e-02,-2.016142010689999948e-03,5.938911810519999918e-03,1.000000000000000000e+00
1.534945454000000042e+00,-3.882608034049999546e+00,-1.054381627399999966e+00,-8.900492017899999553e+00,1.173226977700000040e-03,1.232563704249999871e-02,-2.297021448610000061e-03,1.000000000000000000e+00
1.539993302999999925e+00,-3.899881532669999817e+00,-1.034405445689999814e+00,-8.923660127519999818e+00,-1.234705839309999977e-02,2.111691795290000437e-02,4.506483674050000207e-03,1.000000000000000000e+00
1.544963711999999934e+00,-3.891978796719999689e+00,-1.015719596060000063e+00,-8.952043925959999982e+00,-1.029308233409999968e-02,-3.609687555580000395e-04,2.142691425979999925e-02,1.000000000000000000e+00
1.549993474000000093e+00,-3.842742764390000065e+00,-1.023870461550000055e+00,-8.932824261709999547e+00,-1.157676894220000148e-02,4.297252744439999765e-03,1.198191195730000103e-02,1.000000000000000000e+00
1.555005624999999947e+00,-3.930796895419999881e+00,-1.064194361690000035e+00,-8.953259731499999319e+00,-2.272078767420000062e-02,-2.140984637660000179e-03,1.351930666710000027e-02,1.000000000000000000e+00
1.559977951999999890e+00,-3.905016849730000406e+00,-1.017656044009999983e+00,-8.925685495870000707e+00,-6.894998252390000665e-03,1.441873610019999883e-04,1.453549694270000157e-02,1.000000000000000000e+00
1.565000257999999977e+00,-3.881982887890000455e+00,-9.638825874429999274e-01,-8.897065550589999816e+00,-8.817665278909999835e-03,-8.996003307400000232e-04,3.679169574750000126e-03,1.000000000000000000e+00
1.569962591999999990e+00,-3.867726106740000169e+00,-1.017850032209999922e+00,-8.944647385970000641e+00,-2.556928992270000173e-02,1.582025084640000228e-03,-1.007751189170000110e-02,1.000000000000000000e+00
1.574895445999999977e+00,-3.901933204499999697e+00,-1.017691919040000004e+00,-8.918927838300000133e+00,-7.350343745199999432e-03,4.010205157099999869e-03,2.795224310829999559e-03,1.000000000000000000e+00
1.579876971000000019e+00,-3.891666077510000044e+00,-1.030934627780000001e+00,-8.942335017379999584e+00,-2.547284355389999901e-03,3.923323936759999693e-03,4.191149026159999430e-03,1.000000000000000000e+00
1.584878261999999927e+00,-3.855547593169999843e+00,-1.039167253270000035e+00,-8.917041001639999465e+00,-1.384620647879999771e-02,9.745988994840000877e-03,4.830734804270000148e-03,1.000000000000000000e+00
1.589912594999999929e+00,-3.889491656080000581e+00,-1.046597549399999938e+00,-8.964915097980000525e+00,4.045530688020000654e-03,5.693052429709999883e-03,5.567649379369999860e-03,1.000000000000000000e+00
1.594962195999999999e+00,-3.915456118419999409e+00,-1.022545423489999994e+00,-8.945226062639999753e+00,-4.721594043079999602e-03,7.176997605710000450e-03,6.347257643939999659e-03,1.000000000000000000e+00
1.599949076999999997e+00,-3.880383343740000157e+00,-9.737581578339999933e-01,-8.928684677689998850e+00,-1.753509417179999891e-02,-1.659887610000000029e-03,6.750460714100001147e-03,1.000000000000000000e+00
1.604998939999999985e+00,-3.893193433209999998e+00,-9.855031753590000054e-01,-8.917439645569999129e+00,2.433860907329999691e-03,9.568877518180000583e-03,6.284732371569999934e-03,1.000000000000000000e+00
1.609937474000000091e+00,-3.940663624919999997e+00,-1.036640438199999847e+00,-8.932629615919999821e+00,-4.470612853770000554e-03,1.021329872310000088e-02,1.005845610050000102e-02,1.000000000000000000e+00
1.614934040999999931e+00,-3.888509367049999721e+00,-1.035494775300000114e+00,-8.926284046290000163e+00,-1.573496684429999751e-02,3.555159084499999889e-03,1.288628904150000091e-03,1.000000000000000000e+00
1.620022397000000058e+00,-3.899391118809999668e+00,-9.557891512270000334e-01,-8.913349745910000621e+00,-1.099811494350000016e-02,-1.226241886619999950e-02,1.216447260229999890e-02,1.000000000000000000e+00
1.624957339999999917e+00,-3.849045371669999938e+00,-1.035714920860000055e+00,-8.936873829360001409e+00,-1.126859709620000108e-02,-4.263996146619999927e-03,1.558560645209999861e-03,1.000000000000000000e+00
1.629982918999999919e+00,-3.949069049690000277e+00,-9.923924234159999802e-01,-8.898793981810001696e+00,-2.495141932740000019e-03,5.194089375440000093e-03,1.735105738040000276e-02,1.000000000000000000e+00
1.634951645999999981e+00,-3.902604235630000140e+00,-9.844111423389999560e-01,-8.939360385480000559e+00,-2.597764506940000370e-02,1.945291180160000234e-03,8.525311946869999769e-03,1.000000000000000000e+00
1.640044781999999923e+00,-3.888254807759999654e+00,-9.988202645070000107e-01,-8.940297958589999539e+00,-2.757777646180000278e-02,-9.341372177000000290e-03,1.056679803880000018e-02,1.000000000000000000e+00
1.644957382000000079e+00,-3.849318343389999786e+00,-1.020373194010000040e+00,-8.944584257609999867e+00,-8.567221462730000014e-03,-6.194172892719999445e-04,7.822619751099999311e-03,1.000000000000000000e+00
1.649898832999999954e+00,-3.910485928790000010e+00,-1.019997127239999912e+00,-8.919437541389999780e+00,-1.095495466139999839e-02,-1.001396588979999898e-02,1.373369898650000052e-02,1.000000000000000000e+00
1.654916422000000109e+00,-3.963655501190000319e+00,-1.114614343109999961e+00,-8.897988510650000293e+00,1.723494846369999804e-03,1.457636710259999904e-03,-3.410068340599999633e-03,1.000000000000000000e+00
1.659944269999999999e+00,-3.897735460549999864e+00,-9.425761800419999448e-01,-8.890168192289999993e+00,-7.425318006430000825e-03,5.709719378499999824e-03,1.681004837160000182e-02,1.000000000000000000e+00
1.664971841000000063e+00,-3.780644327869999266e+00,-9.779795018560000219e-01,-8.973743716599999587e+00,-1.896250247959999774e-02,-5.119247827680000439e-03,3.761056577789999907e-03,1.000000000000000000e+00
1.669966861000000025e+00,-3.911462080350000203e+00,-1.066642120170000041e+00,-8.953394171530000278e+00,-1.489639841020000237e-02,5.179560277609999812e-03,4.855560138819998983e-03,1.000000000000000000e+00
1.674939358000000045e+00,-3.894623466010000090e+00,-9.809143862639999600e-01,-8.924328236039999140e+00,-7.777694612740000159e-03,2.122269943359999904e-03,2.068591862919999871e-02,1.000000000000000000e+00
1.679980051999999890e+00,-3.842826643280000010e+00,-1.024189902760000104e+00,-8.974308364740000599e+00,-1.722243428230000109e-02,-6.040024571119999991e-03,1.333966385570000204e-02,1.000000000000000000e+00
1.684953601999999995e+00,-3.920509894680000329e+00,-1.033009315159999941e+00,-8.935519492139999187e+00,-1.668623834849999876e-02,-1.559174805879999862e-02,-5.660620983690000003e-03,1.000000000000000000e+00
1.689963491000000095e+00,-3.931312735990000196e+00,-9.938349503749999148e-01,-8.921883765499998731e+00,-3.919894807040000088e-03,3.090420272199999926e-03,8.639545179899999622e-03,1.000000000000000000e+00
1.694946827999999961e+00,-3.888480725470000010e+00,-1.009628220379999775e+00,-8.966638853030000078e+00,-1.475899759679999944e-02,6.888831499960000257e-03,-7.023313082749999339e-03,1.000000000000000000e+00
1.699955251000000001e+00,-3.833957692649999860e+00,-1.020573904220000161e+00,-8.940539366130000332e+00,-1.666313037279999743e-02,2.753840759399999935e-02,1.596071757379999984e-02,1.000000000000000000e+00
1.704891447999999921e+00,-3.913753990680000072e+00,-1.055857033720000171e+00,-8.953971094639999961e+00,-2.768329903479999771e-02,4.893031436949999780e-04,6.111077964310000256e-03,1.000000000000000000e+00
1.709915735999999908e+00,-3.885004281540000548e+00,-9.885567907760000050e-01,-8.992760551760001775e+00,-8.055772632360000407e-03,-1.958212815230000016e-04,4.673873074350000378e-03,1.000000000000000000e+00
1.714949604999999933e+00,-3.876955707380000504e+00,-9.726214088889999498e-01,-8.946923514210000761e+00,-2.086258679630000057e-02,-1.204261556270000075e-02,-1.165042258799999994e-02,1.000000000000000000e+00
1.719965506000000088e+00,-4.000973424449999705e+00,-9.771974115679999962e-01,-8.943279604749999834e+00,-1.510438416149999935e-02,5.733396392320000250e-03,1.387215126309999935e-02,1.000000000000000000e+00
1.724934944999999997e+00,-3.944690688469999262e+00,-9.864791077189999369e-01,-8.906891948069999287e+00,-5.805877037349999915e-03,-4.564214497800000471e-03,2.226667664950000153e-02,1.000000000000000000e+00
1.730031184000000000e+00,-3.908152517410000026e+00,-9.674904026759999498e-01,-8.924058186930000858e+00,-9.272594936190000844e-03,1.937716640529999965e-02,-3.089162521059999732e-03,1.000000000000000000e+00
1.734981126000000096e+00,-3.840430980319999410e+00,-9.585953677549999830e-01,-8.937756457419999023e+00,-2.060524001720000220e-02,1.056334376339999881e-02,8.454300463199998852e-03,1.000000000000000000e+00
1.739932714999999908e+00,-3.863810979119999267e+00,-1.030980512750000022e+00,-8.952683977430000439e+00,-3.700157394630000478e-03,-7.604171056300000099e-03,-1.079112943260000096e-02,1.000000000000000000e+00
1.744988125999999973e+00,-3.884853474890000324e+00,-9.893564167209999427e-01,-8.936298075299999866e+00,-9.161833673719999363e-03,6.965571548790000685e-03,1.798981102180000199e-03,1.000000000000000000e+00
1.749965568999999999e+00,-3.877919583969999362e+00,-9.990219976240000133e-01,-8.964119563680000624e+00,-6.139873061329999791e-03,3.911250270900000145e-03,-2.076269593089999799e-03,1.000000000000000000e+00
1.754974655999999911e+00,-3.919155849719999640e+00,-9.620404667069999416e-01,-8.955738688829999461e+00,8.750372799110000361e-04,-3.032868262379999433e-04,9.899786673490000577e-03,1.000000000000000000e+00
1.760004287999999972e+00,-3.924107042390000188e+00,-9.651072338670000361e-01,-8.910669128530001259e+00,-1.152998674659999959e-02,-5.336413159969999841e-03,8.577630855139999760e-03,1.000000000000000000e+00
1.764978576999999937e+00,-3.903465820899999716e+00,-1.033699489380000003e+00,-8.992029314869999013e+00,1.008812803780000013e-03,-1.154113444499999972e-03,9.472894482310000031e-03,1.000000000000000000e+00
1.769926208000000001e+00,-3.865799230330000391e+00,-1.040225457079999805e+00,-8.924932047160000437e+00,-1.014825981110000115e-02,5.912512075160000595e-03,-1.306626107539999963e-02,1.000000000000000000e+00
1.774988137000000021e+00,-3.941362420829999991e+00,-9.939610609729999657e-01,-8.929529311819999648e+00,3.984626382590000272e-03,-2.372867893429999979e-03,1.488756667820000101e-02,1.000000000000000000e+00
1.779927468999999984e+00,-3.786494515209999800e+00,-9.847311680729999850e-01,-8.936222671980001309e+00,5.308598047120000052e-04,9.813524782659999862e-03,-3.721335204319999816e-03,1.000000000000000000e+00
1.784889495999999909e+00,-3.943350379780000470e+00,-1.013042485800000003e+00,-8.954300180460000647e+00,-1.290403865279999944e-02,-7.683316711340000722e-03,1.871263841170000154e-03,1.000000000000000000e+00
1.789865078000000054e+00,-3.877596635630000232e+00,-1.005977808110000149e+00,-8.943751898440000403e+00,-5.089897895229999851e-04,-6.757343653590000554e-03,-2.807047683749999776e-03,1.000000000000000000e+00
1.794897917999999981e+00,-3.841729495690000107e+00,-9.820326497040000602e-01,-8.912635460160000633e+00,-3.807476488869999780e-03,1.278864219779999754e-04,-9.670193307100000482e-03,1.000000000000000000e+00
1.799859872000000083e+00,-3.907430340619999942e+00,-1.038068132920000108e+00,-8.936662816960000200e+00,-3.708897857000000107e-03,-1.193674281239999989e-02,6.099766120310001066e-03,1.000000000000000000e+00
1.804835565999999947e+00,-3.859820448180000252e+00,-1.059613098320000057e+00,-8.942003008939998665e+00,-7.746650837359999806e-03,9.681669995190000239e-03,1.022151391950000023e-02,1.000000000000000000e+00
1.809875268999999953e+00,-3.818492120230000175e+00,-9.633674044619999766e-01,-8.956776799710000958e+00,-2.082166448240000203e-02,4.476229194550000214e-03,-1.083869487050000135e-02,1.000000000000000000e+00
1.814851828999999972e+00,-3.891122472159999734e+00,-1.027897525099999987e+00,-9.004317718560001182e+00,-1.442649494860000041e-02,-4.933529533450000185e-03,-1.071641873570000104e-02,1.000000000000000000e+00
1.819856688000000000e+00,-3.903707228440000510e+00,-9.144790895869999714e-01,-8.948382480850000320e+00,-1.493701362049999846e-03,-1.062490046020000067e-04,4.765001125629999938e-03,1.000000000000000000e+00
1.825035570999999912e+00,-3.894330912809999656e+00,-9.226515823880000466e-01,-8.950501957220000193e+00,-1.318565476689999988e-02,-5.574548617009999867e-03,-9.005940519270000735e-03,1.000000000000000000e+00
1.829821828000000039e+00,-3.899166370140000115e+00,-1.009196112570000192e+00,-8.899833846259999959e+00,-4.247135482730000043e-03,6.935173179949999551e-03,1.619317801670000240e-03,1.000000000000000000e+00
1.834865933999999976e+00,-3.893064546130000192e+00,-9.711294898310000034e-01,-8.908971092439999850e+00,1.260924711820000065e-02,-4.989518783989999734e-03,-2.767539117489999784e-03,1.000000000000000000e+00
1.839990806999999950e+00,-3.874854058919999567e+00,-9.741993987960000378e-01,-8.975500204880001220e+00,-1.777119701730000027e-03,-3.965843934570000527e-03,-8.696783334019999678e-05,1.000000000000000000e+00
1.844990989000000026e+00,-3.867168472850000427e+00,-1.014639911059999955e+00,-8.970767915660001535e+00,-2.382100326940000089e-03,1.300646178420000049e-02,4.450776614249999860e-03,1.000000000000000000e+00
1.849837482999999949e+00,-3.815915840000000170e+00,-9.981263639579999181e-01,-8.984192045380000380e+00,4.693133756519999797e-03,-1.893345639109999742e-02,-1.397604681550000151e-02,1.000000000000000000e+00
1.854965638999999999e+00,-3.907439400709999955e+00,-9.522841387809999336e-01,-8.923884583930000503e+00,2.169684972610000200e-03,-7.491708733140000666e-03,-2.968922723080000096e-03,1.000000000000000000e+00
1.859971304999999964e+00,-3.882769654350000099e+00,-9.487300264960000229e-01,-8.928474249809999819e+00,-8.399657905100001501e-03,-9.384596720339999712e-03,-8.176714181900000128e-03,1.000000000000000000e+00
1.864955555999999959e+00,-3.879508898989999732e+00,-9.974384547589999483e-01,-8.921012827889999386e+00,-1.120084896680000140e-03,-1.916216686370000172e-02,-1.421581674370000180e-02,1.000000000000000000e+00
1.869841956999999999e+00,-3.905608385889999923e+00,-1.015324824579999952e+00,-8.917890311949999926e+00,3.987756557759999931e-03,4.939871840180000417e-03,3.278684569519999762e-03,1.000000000000000000e+00
1.874915812000000015e+00,-3.871348388889999992e+00,-1.019015422729999898e+00,-8.931053744910000702e+00,-4.469664301720000475e-03,9.138250723479998672e-03,4.476579837500000401e-03,1.000000000000000000e+00
1.880005589999999893e+00,-3.854109084800000140e+00,-1.044321932620000171e+00,-8.961241377900000415e+00,-8.607005700469998882e-03,-1.404449576510000000e-03,6.394254975020000759e-03,1.000000000000000000e+00
1.884998976999999964e+00,-3.869197932860000133e+00,-9.693814771200001124e-01,-8.969503010289999523e+00,-1.356776710600000185e-02,-7.792162243279999491e-03,5.019741132859999351e-03,1.000000000000000000e+00
1.889991777000000095e+00,-3.906456819409999781e+00,-9.135040340100001321e-01,-8.989024287839999516e+00,-1.869897171850000081e-02,-3.193954471500000218e-03,2.332121832300000121e-03,1.000000000000000000e+00
1.894915405999999969e+00,-3.903768895500000280e+00,-9.263978562440000619e-01,-8.954750262310000153e+00,-8.032372221350000258e-03,-2.094950526950000065e-03,5.537063814700000225e-03,1.000000000000000000e+00
1.900005640999999912e+00,-3.873720963239999815e+00,-9.892963570970000342e-01,-8.943216476389999059e+00,1.053587719800000086e-02,-2.578814700250000105e-02,-1.256833411749999976e-02,1.000000000000000000e+00
1.904931936999999964e+00,-3.947255570530000313e+00,-1.033485627439999943e+00,-8.970262888739998886e+00,1.161477062850000026e-02,-1.737306592989999862e-03,-9.055491536860000830e-04,1.000000000000000000e+00
1.909882800999999963e+00,-3.921229441130000382e+00,-1.027539140120000027e+00,-8.965851502039999588e+00,3.961048088969999770e-03,-9.010675363239999819e-03,3.033183282240000094e-03,1.000000000000000000e+00
1.914981711000000031e+00,-3.847388252109999573e+00,-9.835777602549999887e-01,-8.945339459890000455e+00,4.229444544760000736e-03,-2.915534656489999522e-03,1.436343649400000002e-03,1.000000000000000000e+00
1.919942091000000017e+00,-3.902850903869999666e+00,-9.920392260639999682e-01,-8.985315496449999273e+00,-8.374194614590000155e-03,-1.113547477869999752e-03,-1.900912495329999934e-03,1.000000000000000000e+00
1.924907498000000050e+00,-3.901569924150000368e+00,-1.002298900400000026e+00,-8.926150190770000492e+00,-3.071785904470000143e-04,1.085506752129999919e-02,3.869897918780000178e-03,1.000000000000000000e+00
1.929900195000000096e+00,-3.860997382999999950e+00,-9.961598131259999933e-01,-8.911358279830000839e+00,4.540592897680000191e-03,-1.899943687020000035e-02,-2.012381888929999987e-02,1.000000000000000000e+00
1.934955651000000110e+00,-3.933683264509999944e+00,-9.973424470389999907e-01,-8.904630432879999447e+00,1.075026672329999940e-02,-8.822886273259999967e-03,2.601188607509999817e-04,1.000000000000000000e+00
1.939954654999999972e+00,-3.871360956110000195e+00,-1.058437697860000082e+00,-8.953209462610001168e+00,4.974618088450000024e-03,-1.607465371490000156e-02,-9.262180887160000042e-03,1.000000000000000000e+00
1.944913638000000056e+00,-3.878832607159999668e+00,-1.036710580829999895e+00,-8.916396274000000233e+00,6.636989302930000785e-03,-3.661867231129999761e-03,-1.474426314229999868e-02,1.000000000000000000e+00
1.949969257000000011e+00,-3.904352540609999700e+00,-1.084523010100000073e+00,-8.937921292589999567e+00,8.210812695319999119e-03,7.136333733799999626e-04,-3.184047527609999598e-04,1.000000000000000000e+00
1.954999845999999986e+00,-3.821115454469999673e+00,-1.065258264599999949e+00,-8.898383062929999809e+00,1.925085438420000164e-03,1.488778740170000007e-03,-1.286587677899999997e-02,1.000000000000000000e+00
1.960035350000000065e+00,-3.890996799949999918e+00,-1.021771443440000038e+00,-8.968400602000000887e+00,-1.209762040529999833e-02,-3.826757892969999669e-03,-1.726171700279999872e-03,1.000000000000000000e+00
1.964975495000000016e+00,-3.880585003790000265e+00,-1.008748880259999980e+00,-8.973411123640000042e+00,-1.918997243049999982e-02,-1.226672902699999998e-02,6.647089496250000416e-03,1.000000000000000000e+00
1.969896268999999922e+00,-3.835919055849999815e+00,-1.059377170669999924e+00,-8.908955310339999656e+00,-1.093131676320000141e-02,-2.181661315260000067e-02,-1.977239735420000064e-03,1.000000000000000000e+00
1.975051571999999922e+00,-3.872096284649999554e+00,-1.023580246429999896e+00,-8.900529427300000407e+00,-8.181313751269999289e-04,-3.038523485879999868e-03,2.047214424240000226e-03,1.000000000000000000e+00
1.979994620000000038e+00,-3.916280294290000352e+00,-9.833586376109999527e-01,-8.945929827000000500e+00,7.419982925060000269e-03,-4.892244003709999775e-03,3.854295471679999516e-03,1.000000000000000000e+00
1.984939398000000077e+00,-3.921384923949999823e+00,-1.061701741160000045e+00,-8.931928189649999794e+00,-1.793882250790000341e-02,-4.795965738590000048e-03,2.759090391919999993e-03,1.000000000000000000e+00
1.989995058000000094e+00,-3.898685016359999977e+00,-1.066491021260000061e+00,-8.914306023720000027e+00,-1.192501094189999875e-02,-8.197797462339999341e-03,1.630926504730000060e-02,1.000000000000000000e+00
1.994974776999999921e+00,-3.794864868669999947e+00,-1.050209017900000097e+00,-8.945091622610000570e+00,-8.244340308010000493e-03,-1.612392254170000186e-03,-8.344807662070000479e-03,1.000000000000000000e+00
2.000019105999999880e+00,-3.837870482180000486e+00,-1.034936191569999941e+00,-8.955555733480000669e+00,-9.556401055309999594e-04,-1.200129650529999960e-02,3.070288570599999985e-03,1.000000000000000000e+00
2.005006655999999943e+00,-3.859250831600000264e+00,-1.050104680740000074e+00,-8.936497981789999656e+00,-1.621019560840000111e-03,-3.170330077409999614e-02,6.991515867409999092e-03,1.000000000000000000e+00
2.009986534999999908e+00,-3.895286898359999750e+00,-9.929808177640000455e-01,-8.948906212460000731e+00,-1.166445855049999883e-02,-1.559335924689999979e-02,9.604585357010000241e-03,1.000000000000000000e+00
2.014986074999999932e+00,-3.866969443149999908e+00,-1.003773868329999930e+00,-8.951732960319999322e+00,-3.697577631100000019e-03,-2.059848979119999896e-02,6.837508641180000540e-03,1.000000000000000000e+00
2.020013264999999780e+00,-3.884578165080000201e+00,-1.027293713989999802e+00,-8.927240324099999569e+00,-2.844602568079999602e-03,-1.521281339229999842e-02,4.957889206709999858e-03,1.000000000000000000e+00
2.024987069999999889e+00,-3.841648831670000153e+00,-9.439802746860000981e-01,-8.906227346689998825e+00,-1.385826617480000016e-02,-1.335644908250000103e-02,-4.030866548419998895e-04,1.000000000000000000e+00
2.029981129999999911e+00,-3.937390010069999668e+00,-9.857200329799998828e-01,-8.946894872639999718e+00,5.288063548510000406e-03,-1.957268081609999863e-02,8.487186394629999547e-03,1.000000000000000000e+00
2.034977227000000166e+00,-3.882250014390000281e+00,-9.901229441140000365e-01,-8.889562043089998866e+00,-1.106177829210000171e-02,-9.834156371649999118e-03,9.439988061790000051e-03,1.000000000000000000e+00
2.039989192999999812e+00,-3.791141756490000070e+00,-1.034638231540000008e+00,-8.922087179120000044e+00,9.425918571650000050e-03,-2.060988172889999942e-02,-4.140057135369999870e-03,1.000000000000000000e+00
2.044974196000000077e+00,-3.877788066549999524e+00,-1.056139430860000061e+00,-8.960524754059999708e+00,-1.957475021479999910e-02,-1.463150046770000066e-02,-7.935462519529999648e-03,1.000000000000000000e+00
2.050020358999999903e+00,-3.885072086070000097e+00,-1.018118693089999915e+00,-8.961095831950000701e+00,-3.092399239539999831e-02,-2.292402274909999607e-02,-2.821306930849999933e-03,1.000000000000000000e+00
2.055029982000000199e+00,-3.907465704190000277e+00,-9.749052089769999485e-01,-8.927188301650000213e+00,-7.487218827009999890e-03,-3.873047977690000088e-02,-5.244163330639999791e-04,1.000000000000000000e+00
2.059987303000000214e+00,-3.930029125919999533e+00,-9.732917824310000077e-01,-8.890539948210001597e+00,-1.659681648019999817e-02,-2.810037694870000380e-02,-1.911998377179999946e-03,1.000000000000000000e+00
2.064978490000000111e+00,-3.946488385549999922e+00,-9.207976981489999213e-01,-8.885227228750000705e+00,-1.073868852110000140e-02,-4.049454256890000492e-02,-1.093512866649999984e-02,1.000000000000000000e+00
2.069894899999999982e+00,-3.977261417209999372e+00,-8.995980390590000431e-01,-8.901457063540000547e+00,-9.110828861590000369e-03,-3.878508135680000524e-02,5.642785690719999414e-03,1.000000000000000000e+00
2.074890885999999934e+00,-3.961884984380000141e+00,-9.535998975550000756e-01,-8.964901653969999273e+00,1.598341157659999940e-03,-1.766007579859999940e-02,4.079104401170000060e-03,1.000000000000000000e+00
2.079894282000000150e+00,-3.819353705500000196e+00,-9.229697084260000128e-01,-8.947296439180000505e+00,5.955145228649999338e-03,-7.116506807510000580e-03,-6.435231305660000373e-03,1.000000000000000000e+00
2.084933826999999962e+00,-3.952754460199999986e+00,-9.348865753870000406e-01,-8.984161065720000394e+00,2.226693322880000047e-04,-2.458242885770000122e-02,8.825828321280001706e-03,1.000000000000000000e+00
2.089980041000000011e+00,-3.922066184210000195e+00,-9.075981709670000175e-01,-8.985983020449999970e+00,7.034151349219999912e-04,-2.857898361980000176e-02,1.598482392729999937e-02,1.000000000000000000e+00
2.094966654999999900e+00,-3.865278713590000415e+00,-9.217080179269999674e-01,-8.965699526350000781e+00,2.357019856570000127e-02,-3.007475472990000023e-02,-4.071759991349999802e-03,1.000000000000000000e+00
2.099940318999999889e+00,-3.865174960950000127e+00,-9.954774568850000005e-01,-8.953129383110001172e+00,2.993705123659999925e-02,-3.742643073199999892e-02,-5.248871166260000130e-03,1.000000000000000000e+00
2.104939668000000097e+00,-3.831756090950000360e+00,-1.044552599570000018e+00,-8.984117811100000850e+00,4.213353618980000825e-02,-2.758772857490000147e-02,-1.781395263969999879e-02,1.000000000000000000e+00
2.109937364999999954e+00,-3.899132760130000097e+00,-9.646693539059999489e-01,-8.970945025789999860e+00,4.063931107519999641e-02,-2.205242961649999875e-02,-6.942283827809999849e-03,1.000000000000000000e+00
2.114946408000000222e+00,-3.962266677180000585e+00,-9.384853305310000282e-01,-9.005541122869999526e+00,5.056586861609999733e-02,-2.623337507249999881e-02,-8.858887478709998042e-03,1.000000000000000000e+00
2.119938368000000128e+00,-3.361062825020000311e+00,-1.216753551989999904e+00,-8.903055146389998953e+00,4.839967191219999437e-02,2.418428193780000103e-03,-3.028050810099999768e-02,1.000000000000000000e+00
2.124919827999999900e+00,-4.029842668319999710e+00,-6.138613083519999236e-01,-9.037406918210001194e+00,7.625392079350000463e-02,-2.418532408770000114e-02,-2.378955110909999893e-02,1.000000000000000000e+00
2.129939423000000165e+00,-4.004434378560000063e+00,-1.238653760560000094e+00,-8.955392651869999554e+00,7.643603533510000270e-02,-3.274977579709999892e-02,-5.052230134610000145e-02,1.000000000000000000e+00
2.134978991000000104e+00,-3.809959854210000163e+00,-1.031287094479999888e+00,-8.924877102099999959e+00,9.090591967110001059e-02,-3.629170358180000555e-02,-2.703989110890000006e-02,1.000000000000000000e+00
2.139949716999999918e+00,-3.805748373989999767e+00,-1.023532096439999872e+00,-8.889020191300000207e+00,9.567240625620000716e-02,-4.561299458150000485e-02,-4.950755089520000179e-02,1.000000000000000000e+00
2.144903644000000220e+00,-3.996481081469999364e+00,-1.183972906830000005e+00,-8.928154516330000234e+00,9.575257450339999532e-02,-1.780501939359999813e-02,-4.198668152090000161e-02,1.000000000000000000e+00
2.149910766000000084e+00,-3.858694366759999994e+00,-1.093481392579999767e+00,-8.870100971290000302e+00,6.534662842749999756e-02,-5.166307464240000452e-02,-4.654283821579999897e-02,1.000000000000000000e+00
2.154940920000000038e+00,-3.928882586230000307e+00,-1.065462262739999888e+00,-8.928907965049999618e+00,7.176813483239999347e-02,-3.130804002290000360e-02,-1.273627858610000031e-02,1.000000000000000000e+00
2.159976402999999934e+00,-3.954156435959999438e+00,-1.072851642340000078e+00,-8.859323556689998824e+00,4.703636094930000594e-02,-1.553043909370000093e-02,-1.358530763539999957e-02,1.000000000000000000e+00
2.164968376000000028e+00,-3.910972251010000011e+00,-1.012210418890000074e+00,-8.854313619570000071e+00,4.204440489409999593e-02,-2.450804412359999795e-02,-2.740313857790000265e-02,1.000000000000000000e+00
2.169884569000000152e+00,-3.992632589340000315e+00,-9.773230837740000121e-01,-8.830379786279999976e+00,4.089049994950000322e-02,-2.310063503680000185e-02,-2.610680647189999801e-02,1.000000000000000000e+00
2.174945144000000052e+00,-3.926917131369999758e+00,-9.385397641320000206e-01,-8.856490963609999767e+00,4.720635712150000191e-02,-2.222632244229999846e-02,-2.387251704930000093e-02,1.000000000000000000e+00
2.179980358999999979e+00,-3.973190514509999716e+00,-9.324315834499999900e-01,-8.863107166880000776e+00,4.422675818199999637e-02,-3.122693859039999895e-02,-2.911520376800000309e-02,1.000000000000000000e+00
2.184940409000000194e+00,-3.994644805950000155e+00,-9.106941642209999133e-01,-8.829558533019998379e+00,4.156697541479999897e-02,-2.445473335679999860e-02,-2.868323773149999631e-02,1.000000000000000000e+00
2.189977947000000036e+00,-3.976982892530000147e+00,-9.204525379739999513e-01,-8.854743827689999236e+00,6.066411361100000621e-02,-1.694810763000000053e-02,-3.371176496150000285e-02,1.000000000000000000e+00
2.194936994999999946e+00,-4.055220562940000661e+00,-9.800226250560000185e-01,-8.881834663710000299e+00,5.466289073230000406e-02,-1.412725448610000108e-02,-1.829259470109999980e-02,1.000000000000000000e+00
2.199962626000000032e+00,-3.952465706389999944e+00,-1.044071318860000153e+00,-8.836565196919998755e+00,4.746520146730000278e-02,-2.577621862290000246e-02,-2.522390522059999793e-02,1.000000000000000000e+00
2.204944369000000126e+00,-3.895651055500000126e+00,-1.081282201550000099e+00,-8.860062392360001482e+00,4.641795158390000370e-02,-3.439892828459999857e-02,-4.193510115150000245e-02,1.000000000000000000e+00
2.209914239999999808e+00,-4.019023752659999893e+00,-1.066579576329999890e+00,-8.830148900130000200e+00,3.479366376999999677e-02,-2.168402075769999826e-02,-1.998742669820000040e-02,1.000000000000000000e+00
2.214920400000000011e+00,-4.046459164339999859e+00,-1.023593032840000028e+00,-8.849227110090000181e+00,3.747867792840000462e-02,-2.029729448259999861e-02,-3.130595758560000136e-02,1.000000000000000000e+00
2.219951816000000022e+00,-4.025178475899999775e+00,-1.056818791420000014e+00,-8.820545205489999319e+00,3.263182938099999653e-02,-6.946222856640000415e-03,-2.930521965030000175e-02,1.000000000000000000e+00
2.224914926999999931e+00,-3.990754812769999660e+00,-1.056969086609999886e+00,-8.825031410990000325e+00,2.876964956519999922e-02,-3.330305451530000439e-03,-2.900149300690000112e-02,1.000000000000000000e+00
2.229903419999999858e+00,-3.976060809250000272e+00,-1.146270222029999841e+00,-8.832940576680000433e+00,4.207562655209999558e-02,-8.778046816589999898e-03,-3.266551718119999753e-02,1.000000000000000000e+00
2.234962690000000141e+00,-3.910614815869999372e+00,-1.175006341040000013e+00,-8.831271766680000468e+00,2.480525895949999698e-02,4.165008198470000408e-03,-3.271691128609999916e-02,1.000000000000000000e+00
2.239983120000000216e+00,-3.957119669680000396e+00,-1.123737268510000220e+00,-8.829564962770000136e+00,2.276433631779999772e-02,-1.366187632079999929e-02,-2.449801191690000393e-02,1.000000000000000000e+00
2.244961174000000170e+00,-3.953804846040000154e+00,-1.131485471479999783e+00,-8.897343198479999771e+00,-2.588273258880000212e-03,2.906841691579999825e-04,-1.446931436660000084e-02,1.000000000000000000e+00
2.249919062000000025e+00,-3.925638782000000049e+00,-1.094471718799999937e+00,-8.875345301689998578e+00,-2.365858294070000319e-03,7.698868867010000673e-04,-1.175544690339999990e-02,1.000000000000000000e+00
2.254874780000000190e+00,-3.954061451150000295e+00,-9.734757606960000587e-01,-8.932136863969999396e+00,1.578913256529999865e-02,-8.803996024650001138e-04,-1.803564094009999993e-02,1.000000000000000000e+00
2.259978262999999821e+00,-3.992627036390000050e+00,-8.051436855989999586e-01,-8.866137328360000680e+00,-6.092534866180001132e-03,-1.643219031389999991e-03,-1.171588338909999860e-02,1.000000000000000000e+00
2.264986980999999844e+00,-3.910865283500000178e+00,-7.590650213179999106e-01,-8.886625405110001097e+00,8.964468725030001056e-03,-1.469960203390000128e-03,-2.842865139250000048e-02,1.000000000000000000e+00
2.270025399000000110e+00,-3.957018839649999897e+00,-8.450070555630000424e-01,-8.925122016769998723e+00,3.123046085239999936e-02,2.442357130349999926e-03,-2.603102847929999672e-02,1.000000000000000000e+00
2.274980236999999850e+00,-3.856792624790000179e+00,-1.073247071389999974e+00,-8.888012475560001846e+00,4.347380623219999213e-02,4.256187472489999200e-03,-4.788022115830000563e-02,1.000000000000000000e+00
2.279956099000000069e+00,-3.810011876650000406e+00,-1.203302168939999861e+00,-8.908056900200000072e+00,3.685522824530000630e-02,-1.655606552960000102e-02,-6.051410734649999984e-02,1.000000000000000000e+00
2.284914373999999970e+00,-3.860335119700000206e+00,-1.176957621239999918e+00,-8.883486522569999266e+00,3.511384129519999620e-02,-3.790763439610000257e-03,-4.236560314889999818e-02,1.000000000000000000e+00
2.289932461999999891e+00,-3.734712597780000642e+00,-1.230806115799999878e+00,-8.881131483869999954e+00,1.934928074479999940e-02,-4.350169748069999953e-02,-3.928963467480000443e-02,1.000000000000000000e+00
2.294952627999999883e+00,-3.725428344350000032e+00,-1.236159459529999838e+00,-8.943575372830000703e+00,1.342696789649999896e-02,-1.934925280509999790e-02,-3.315516933800000121e-02,1.000000000000000000e+00
2.299985496000000129e+00,-3.781958625340000602e+00,-1.190969706910000037e+00,-8.978492372430000756e+00,1.322267577050000031e-02,-3.911080956460000202e-02,-3.996246680619999769e-02,1.000000000000000000e+00
2.304956417000000091e+00,-3.947321036980000031e+00,-1.077927411229999910e+00,-8.888506396560000411e+00,4.913539625699999379e-03,-4.508865624669999850e-02,-2.728583104909999835e-02,1.000000000000000000e+00
2.309934734000000045e+00,-3.943421399190000454e+00,-1.100328482000000108e+00,-8.748523925369999787e+00,6.181296426800000909e-03,-4.948496073480000701e-02,-4.159009456630000101e-02,1.000000000000000000e+00
2.314933143999999832e+00,-3.939599210549999952e+00,-1.068662812339999935e+00,-8.765529420710000963e+00,1.030418649320000157e-02,-5.218336358669999758e-02,-1.486688666050000121e-02,1.000000000000000000e+00
2.319948082999999883e+00,-3.823168879869999870e+00,-9.774844848810000375e-01,-8.934319468700000044e+00,1.413317490370000033e-02,-4.096595570449999835e-02,-2.808628231290000166e-02,1.000000000000000000e+00
2.324932963000000186e+00,-3.853016028859999942e+00,-1.043247508320000128e+00,-8.979954261679999661e+00,2.083117887379999991e-02,-5.162856355309999867e-02,-3.340098261829999721e-02,1.000000000000000000e+00
2.329947392999999867e+00,-3.911727161030000399e+00,-1.117090743170000122e+00,-8.886455893770000003e+00,2.936701476570000025e-02,-5.474522709850000030e-02,-4.890497773889999900e-02,1.000000000000000000e+00
2.334981475000000195e+00,-3.914073139630000586e+00,-1.338216835339999911e+00,-8.861843430560000456e+00,2.041842788460000030e-02,-6.899641454219999914e-02,-4.851734265689999770e-02,1.000000000000000000e+00
2.339971207000000053e+00,-3.890636442200000378e+00,-1.397406544799999928e+00,-8.810263465449999387e+00,1.236967090520000104e-02,-8.258748799560000631e-02,-3.669442236419999392e-02,1.000000000000000000e+00
2.344978462999999902e+00,-3.886013750840000114e+00,-1.141981146530000046e+00,-8.856645861910001472e+00,4.346388857810000624e-03,-9.201119840150000229e-02,-4.104065895080000193e-02,1.000000000000000000e+00
2.349933356000000195e+00,-3.953618968080000240e+00,-9.903314722989999819e-01,-8.944688302510000355e+00,6.025088485329999771e-03,-8.132467418909999912e-02,-3.420799970630000048e-02,1.000000000000000000e+00
2.354940507999999877e+00,-3.967570921060000089e+00,-1.050341192910000165e+00,-8.892519139330000044e+00,1.845778524879999882e-02,-8.436493575570000458e-02,-4.874111711980000372e-02,1.000000000000000000e+00
2.359996423000000121e+00,-4.107476819880000463e+00,-1.057033091759999932e+00,-8.890203263600000128e+00,2.998237684370000031e-02,-8.691184967760000324e-02,-5.238938331600000164e-02,1.000000000000000000e+00
2.365003814000000038e+00,-4.194693623300000063e+00,-1.007613957950000083e+00,-8.843225823850000111e+00,4.429868981240000364e-02,-8.521032333370000267e-02,-4.648905247449999778e-02,1.000000000000000000e+00
2.369926003999999864e+00,-4.072106815809999780e+00,-8.650077141269999492e-01,-8.826206884510000350e+00,3.610835596919999974e-02,-7.158298790450000337e-02,-6.406563520430000325e-02,1.000000000000000000e+00
2.375016304999999939e+00,-4.050508731989999944e+00,-7.991168995909999628e-01,-8.902319817849999595e+00,5.897521972659999778e-02,-6.516132503749999527e-02,-8.428463339810000898e-02,1.000000000000000000e+00
2.379986155000000103e+00,-4.021627213159999492e+00,-8.493229459999999120e-01,-8.902766977100000645e+00,8.627095818520000292e-02,-4.206830635669999569e-02,-8.427065610889998559e-02,1.000000000000000000e+00
2.385025322999999808e+00,-3.955450859680000431e+00,-8.428686552949998800e-01,-8.833203027010000596e+00,1.021308973430000017e-01,-4.739107191559999849e-02,-1.044102609160000028e-01,1.000000000000000000e+00
2.390042033999999926e+00,-4.071280301859999895e+00,-8.475112204029999763e-01,-8.845666787260000774e+00,1.319462805990000154e-01,-6.571840494870000160e-02,-9.728725999590000229e-02,1.000000000000000000e+00
2.394962020999999996e+00,-3.930253290060000015e+00,-9.033702510740000413e-01,-8.808176722300000705e+00,1.293650865550000084e-01,-5.965184047819999807e-02,-1.221843063829999992e-01,1.000000000000000000e+00
2.399988237000000080e+00,-3.959100322099999847e+00,-9.506056841750000208e-01,-8.890085190180000652e+00,1.460123807189999956e-01,-4.702180996540000074e-02,-1.127589493989999969e-01,1.000000000000000000e+00
2.404989936999999856e+00,-3.981481080730000066e+00,-9.481867864650000977e-01,-8.908741375329999101e+00,1.641248017549999938e-01,-5.408469960090000334e-02,-1.205988600850000092e-01,1.000000000000000000e+00
2.409968196999999979e+00,-4.094027555719999434e+00,-9.713471511700001448e-01,-8.744307184460000215e+00,1.623120158909999999e-01,-6.519923359160000043e-02,-1.271325200800000055e-01,1.000000000000000000e+00
2.415049903999999970e+00,-4.047012122049999938e+00,-1.125667725110000017e+00,-8.675186301960000179e+00,1.562135964629999818e-01,-5.114725604650000035e-02,-1.161145865919999964e-01,1.000000000000000000e+00
2.420023988000000070e+00,-3.834233879240000142e+00,-1.360707484090000197e+00,-8.680197992640000137e+00,1.639155149459999850e-01,-5.967101454730000532e-02,-1.173106133940000073e-01,1.000000000000000000e+00
2.424975601999999952e+00,-3.831111655569999996e+00,-1.431301654009999869e+00,-8.866908312730000574e+00,1.542644053699999962e-01,-5.254506692290000780e-02,-1.215437576170000089e-01,1.000000000000000000e+00
2.429932534000000199e+00,-3.931917131619999228e+00,-1.317612000340000034e+00,-8.948345655969999868e+00,1.628846228120000017e-01,-7.581633329390000120e-02,-1.040880158540000017e-01,1.000000000000000000e+00
2.435019507999999888e+00,-3.932337402859999997e+00,-1.271737845649999921e+00,-8.887795033419999768e+00,1.337485909460000011e-01,-6.378983706240000384e-02,-1.079020798210000021e-01,1.000000000000000000e+00
2.440028561000000096e+00,-3.961888491509999444e+00,-1.328554542370000036e+00,-8.864135340889999881e+00,1.093310192229999950e-01,-7.183480262760000290e-02,-1.068367809060000034e-01,1.000000000000000000e+00
2.444979325999999897e+00,-3.945755102840000195e+00,-1.298848701550000095e+00,-8.863448527670000132e+00,9.289025515319999926e-02,-6.976320594549999254e-02,-1.088642626999999918e-01,1.000000000000000000e+00
2.449993182000000047e+00,-3.959982365630000167e+00,-1.202943491689999922e+00,-8.913129381160000975e+00,1.216519400479999929e-01,-8.274190127849999354e-02,-1.023234575989999950e-01,1.000000000000000000e+00
2.454995857000000115e+00,-3.919574075139999891e+00,-9.801018277719999450e-01,-8.859087409849999872e+00,1.091252490880000037e-01,-7.506876438860000944e-02,-1.089744344349999894e-01,1.000000000000000000e+00
2.460035754999999824e+00,-3.970644921680000383e+00,-1.005885161389999949e+00,-8.959762537519999626e+00,1.352819502350000036e-01,-9.274909645319999452e-02,-9.910861402749999993e-02,1.000000000000000000e+00
2.464988862999999863e+00,-3.820607504949999900e+00,-1.240373423959999943e+00,-8.937178365270000313e+00,1.286278665070000049e-01,-9.707874059679999501e-02,-1.139349490400000109e-01,1.000000000000000000e+00
2.470010880999999880e+00,-3.900139306830000319e+00,-1.305401776449999884e+00,-8.913705135219998965e+00,1.385525465009999901e-01,-1.240311190489999937e-01,-1.149384453889999852e-01,1.000000000000000000e+00
2.474972084000000017e+00,-4.013501189850000372e+00,-1.022802247790000063e+00,-9.025184565500000033e+00,1.603218019009999828e-01,-1.131570935249999882e-01,-1.261344552040000178e-01,1.000000000000000000e+00
2.480040825000000115e+00,-3.962444371830000200e+00,-8.189316801939999779e-01,-9.067646573650000263e+00,1.550891399379999980e-01,-1.385819613929999972e-01,-1.141605526209999999e-01,1.000000000000000000e+00
2.484929220000000161e+00,-3.906117796710000256e+00,-7.435521756919999392e-01,-9.024651481539999409e+00,1.707785278559999786e-01,-1.354574114079999947e-01,-1.411836296319999851e-01,1.000000000000000000e+00
2.489944498999999922e+00,-4.039856697330000301e+00,-9.557936812720000397e-01,-8.982474135539998628e+00,1.708789616820000079e-01,-1.335113644599999760e-01,-1.431870907549999961e-01,1.000000000000000000e+00
2.494978113999999803e+00,-4.089105004630000373e+00,-1.079713417860000080e+00,-8.891780303660000939e+00,2.084904164079999789e-01,-1.351233869790000042e-01,-1.466137319799999950e-01,1.000000000000000000e+00
2.500025739999999885e+00,-4.045646094390000336e+00,-1.051291917759999972e+00,-8.886238451619998813e+00,2.221649140120000032e-01,-1.425413787360000073e-01,-1.475604772570000001e-01,1.000000000000000000e+00
2.504945642000000028e+00,-3.911100845819999616e+00,-1.066445866949999877e+00,-9.065705960980000810e+00,2.442849725479999956e-01,-1.594179570670000157e-01,-1.436859816309999927e-01,1.000000000000000000e+00
2.509972524000000149e+00,-3.747899119349999975e+00,-1.240891164230000010e+00,-9.093923170680000112e+00,2.767172753809999941e-01,-1.512647420169999923e-01,-1.458244472739999853e-01,1.000000000000000000e+00
2.515030739000000182e+00,-3.665821724649999780e+00,-1.423794931640000039e+00,-9.041603200860000911e+00,2.658078670499999796e-01,-1.593336462970000034e-01,-1.637529879809999922e-01,1.000000000000000000e+00
2.520088770000000089e+00,-3.714835346399999683e+00,-1.589444489659999959e+00,-9.212425046939998197e+00,2.647148370740000090e-01,-1.802939623589999985e-01,-1.528144329789999922e-01,1.000000000000000000e+00
2.524932817999999912e+00,-3.707361357259999934e+00,-1.703608628970000094e+00,-9.212602741599999590e+00,2.704367935660000333e-01,-2.104053199289999954e-01,-1.490598022939999823e-01,1.000000000000000000e+00
2.529938661000000089e+00,-3.699681031889999971e+00,-1.857229749409999853e+00,-9.091358288629999507e+00,2.443592995410000246e-01,-2.255200296640000046e-01,-1.429610997440000086e-01,1.000000000000000000e+00
2.534971528999999890e+00,-3.388557273399999570e+00,-2.109431801719999999e+00,-9.234000334410001898e+00,2.099992781879999881e-01,-2.645495831970000045e-01,-1.268853247170000087e-01,1.000000000000000000e+00
2.539897328999999981e+00,-3.487080483740000236e+00,-1.821373861529999916e+00,-9.531016949349998768e+00,1.907840073110000090e-01,-3.077292144300000643e-01,-1.183140054350000081e-01,1.000000000000000000e+00
2.544996086999999907e+00,-3.817197696509999627e+00,-1.544330359559999977e+00,-9.543503505960000410e+00,1.692869365219999978e-01,-3.512098491189999949e-01,-1.122886911030000073e-01,1.000000000000000000e+00
2.549913178999999808e+00,-3.873481017000000026e+00,-1.532171281340000135e+00,-9.546028640519999442e+00,1.486526280639999809e-01,-4.056694805619999733e-01,-1.181368976830000084e-01,1.000000000000000000e+00
2.554940375999999791e+00,-3.776398653130000227e+00,-1.401424840530000049e+00,-9.496349540599998917e+00,1.503149867060000200e-01,-4.319727718829999841e-01,-9.906560927629999569e-02,1.000000000000000000e+00
2.560029210000000166e+00,-3.798792855759999920e+00,-1.401499951599999960e+00,-9.394258116389998747e+00,1.944392323490000130e-01,-4.962828159329999989e-01,-1.012338548900000024e-01,1.000000000000000000e+00
2.565006898000000035e+00,-3.641778878019999777e+00,-1.585490929729999943e+00,-9.304380277060001703e+00,2.280313074590000211e-01,-5.309638381000000296e-01,-1.255885064599999990e-01,1.000000000000000000e+00
2.570013534000000099e+00,-3.798248373619999896e+00,-1.442985808189999997e+00,-9.504455690160000358e+00,2.565672099590000088e-01,-5.649500489230000477e-01,-1.149752438069999994e-01,1.000000000000000000e+00
2.574985047000000193e+00,-3.842390297689999734e+00,-1.342869191189999922e+00,-9.647470660910000717e+00,2.696939110759999925e-01,-6.101500391959999714e-01,-1.176672428849999952e-01,1.000000000000000000e+00
2.580026387999999837e+00,-3.976626334180000555e+00,-1.195003784729999907e+00,-9.520666820249999773e+00,2.947864234450000009e-01,-6.844436526299999546e-01,-1.179436445240000103e-01,1.000000000000000000e+00
2.585028879999999862e+00,-3.896617270180000148e+00,-1.029370520270000089e+00,-9.600978374330001230e+00,2.961709499360000164e-01,-7.237149477009999776e-01,-1.313030570750000070e-01,1.000000000000000000e+00
2.589967285000000174e+00,-4.082055670639999967e+00,-9.716331285039999655e-01,-9.578633271530000215e+00,3.324699401859999570e-01,-7.756840586660000980e-01,-1.141230389479999940e-01,1.000000000000000000e+00
2.595006864000000135e+00,-4.001625166360000208e+00,-9.899785672079999266e-01,-9.506429620580000517e+00,3.893958032129999913e-01,-8.105490803720000192e-01,-1.465119868520000090e-01,1.000000000000000000e+00
2.599961587000000129e+00,-4.047459281290000099e+00,-1.160150205759999942e+00,-9.656482819410001639e+00,4.239949882029999673e-01,-8.657883405689998924e-01,-1.593608707190000140e-01,1.000000000000000000e+00
2.604981705000000147e+00,-4.117539364209999775e+00,-1.176118101670000193e+00,-9.612163200689998632e+00,4.777960777279999793e-01,-9.240945577620000018e-01,-1.790696084500000007e-01,1.000000000000000000e+00
2.609975842999999962e+00,-4.237634062619999753e+00,-1.190760301939999932e+00,-9.834542215529999964e+00,5.222998261450000346e-01,-9.673954844470000758e-01,-1.897261440749999917e-01,1.000000000000000000e+00
2.614980421999999916e+00,-4.214647739310000141e+00,-1.347143799769999983e+00,-9.899092136849999335e+00,5.423711538309999858e-01,-1.037780642510000018e+00,-2.105832695960000167e-01,1.000000000000000000e+00
2.619994144000000080e+00,-4.230547903759999784e+00,-1.490043473579999889e+00,-9.900514863130000620e+00,5.794801115990000362e-01,-1.114402890210000052e+00,-2.009412795309999944e-01,1.000000000000000000e+00
2.624972263000000083e+00,-4.146909543339999615e+00,-1.557467342899999885e+00,-9.961983185050000245e+00,5.992729067800000031e-01,-1.169951796529999921e+00,-1.933698952200000043e-01,1.000000000000000000e+00
2.630004449999999938e+00,-4.020495578780000301e+00,-1.530484497299999802e+00,-1.010445104330000099e+01,6.206513047220000301e-01,-1.273435592650000059e+00,-2.024246156219999815e-01,0.000000000000000000e+00
2.634971211999999952e+00,-4.205021248309999571e+00,-1.521878435379999894e+00,-1.014583636210000073e+01,6.254692077639999459e-01,-1.367988705640000191e+00,-2.073520570989999812e-01,0.000000000000000000e+00
2.640002525999999961e+00,-4.189601560859999907e+00,-1.548097310880000022e+00,-1.027211296409999974e+01,6.367495656009999339e-01,-1.469866633420000124e+00,-1.981610804800000014e-01,0.000000000000000000e+00
2.645004152999999913e+00,-4.137924272850000307e+00,-1.408594878289999963e+00,-1.020138815349999994e+01,6.973993778229999885e-01,-1.593620777129999944e+00,-1.752738654610000169e-01,0.000000000000000000e+00
2.650017377999999812e+00,-4.071859855319999610e+00,-1.385430129670000010e+00,-1.027984501959999974e+01,7.359940409659999627e-01,-1.695637226100000117e+00,-1.928969174619999949e-01,0.000000000000000000e+00
2.654957838000000070e+00,-4.314268681749999779e+00,-1.300154085059999964e+00,-1.026633204260000021e+01,8.412198424339999425e-01,-1.792784929279999995e+00,-1.874190866950000145e-01,0.000000000000000000e+00
2.660034200000000126e+00,-4.273178254210000304e+00,-1.447054080550000066e+00,-1.032561775980000007e+01,9.022455811499999756e-01,-1.917108774190000364e+00,-1.895638108249999843e-01,0.000000000000000000e+00
2.665012298000000168e+00,-4.147069994599999809e+00,-1.460583570340000081e+00,-1.032223337799999996e+01,9.564054012299999519e-01,-2.028008937840000137e+00,-1.872657388450000016e-01,0.000000000000000000e+00
2.669909203000000009e+00,-3.961004109890000180e+00,-1.809245909099999938e+00,-1.040479124970000058e+01,1.033816456789999894e+00,-2.169338703159999771e+00,-1.886440962550000044e-01,0.000000000000000000e+00
2.674927563999999869e+00,-4.033170935959999426e+00,-2.078314486659999627e+00,-1.031785998520000014e+01,1.095786571500000139e+00,-2.299126863479999727e+00,-1.776171624659999837e-01,0.000000000000000000e+00
2.679935144999999963e+00,-4.064940285189999614e+00,-2.150189197909999628e+00,-1.037807626130000038e+01,1.147744655609999942e+00,-2.418341875079999870e+00,-1.508042514320000194e-01,0.000000000000000000e+00
2.684944207000000027e+00,-4.148266510909999205e+00,-2.163968570809999825e+00,-1.036419737349999970e+01,1.182023525239999984e+00,-2.563052415850000099e+00,-1.323690414430000184e-01,0.000000000000000000e+00
2.689888323999999997e+00,-4.142919012400000156e+00,-2.034964589759999942e+00,-1.029294415519999895e+01,1.206438779830000030e+00,-2.710172891620000080e+00,-1.037057116630000081e-01,0.000000000000000000e+00
2.694929329999999901e+00,-4.014064376690000380e+00,-1.936886492840000029e+00,-1.019028457569999979e+01,1.248828768729999927e+00,-2.839957237240000154e+00,-8.939401060340000649e-02,0.000000000000000000e+00
2.700005489000000036e+00,-4.180420475540000069e+00,-1.634559058150000022e+00,-9.956431396139999279e+00,1.271006584170000009e+00,-2.971828937530000214e+00,-6.775288283819999591e-02,0.000000000000000000e+00
2.704954498999999846e+00,-4.225746348690000431e+00,-1.832609249029999887e+00,-9.903832609380000207e+00,1.285907506939999889e+00,-3.108094215390000414e+00,-3.861218318340000483e-02,0.000000000000000000e+00
2.709970665999999806e+00,-4.284399613189999734e+00,-1.903324268849999834e+00,-9.704357500260000435e+00,1.327194094660000045e+00,-3.220365047450000073e+00,6.429604254659999907e-03,0.000000000000000000e+00
2.714990831000000160e+00,-4.431884422830000503e+00,-2.011945533220000026e+00,-9.688567225930000859e+00,1.376176595690000060e+00,-3.358275651930000105e+00,3.404122218490000101e-02,0.000000000000000000e+00
2.719944373000000137e+00,-4.226430531559999260e+00,-2.221556836430000015e+00,-9.510770280139999144e+00,1.432414650919999977e+00,-3.476335048680000206e+00,4.735086858269999671e-02,0.000000000000000000e+00
2.724973847999999865e+00,-4.336177731219999387e+00,-2.473059800550000187e+00,-9.465061837410001289e+00,1.486204743389999861e+00,-3.615549802780000377e+00,8.221592009070000096e-02,0.000000000000000000e+00
2.729943952000000174e+00,-4.312073509800000259e+00,-2.582677528620000107e+00,-9.321868587480000912e+00,1.532163023950000147e+00,-3.760048627850000269e+00,1.423209011549999847e-01,0.000000000000000000e+00
2.735010341999999817e+00,-3.834122527819999515e+00,-3.238123843090000342e+00,-9.286885536910000738e+00,1.551119089129999962e+00,-3.883709669109999929e+00,1.838073432449999767e-01,0.000000000000000000e+00
2.739949553000000204e+00,-3.995834600259999814e+00,-2.654708453340000052e+00,-9.285210881689998530e+00,1.565107822420000128e+00,-4.084085464480000205e+00,2.321606874469999970e-01,0.000000000000000000e+00
2.744945130000000066e+00,-3.934759661569999345e+00,-2.667652982849999965e+00,-9.257321004249998708e+00,1.548167467120000085e+00,-4.233474731449999418e+00,2.694407701489999751e-01,0.000000000000000000e+00
2.749974656000000017e+00,-3.902065890969999451e+00,-3.048579468619999844e+00,-9.107617934039998531e+00,1.576099157329999834e+00,-4.464686393740000092e+00,3.566550314429999813e-01,0.000000000000000000e+00
2.754989373999999991e+00,-4.102164100430000460e+00,-2.777151760709999806e+00,-9.311718949389998556e+00,1.647374272350000224e+00,-4.645858287809999432e+00,4.355781972409999980e-01,0.000000000000000000e+00
2.759960323000000049e+00,-4.121894052290000054e+00,-2.348531357479999748e+00,-9.526747601469999438e+00,1.720464229580000115e+00,-4.828956127169999668e+00,5.440871119500000352e-01,0.000000000000000000e+00
2.764955613999999784e+00,-4.278324384930000335e+00,-1.840279783660000001e+00,-1.016205684460000036e+01,1.824260354040000198e+00,-5.057889938349999781e+00,5.821297168729999694e-01,0.000000000000000000e+00
2.769918785999999855e+00,-4.295198947360000297e+00,-1.394638249129999785e+00,-1.060088431520000007e+01,1.945637941359999790e+00,-5.308961868289999941e+00,6.605510115620000233e-01,0.000000000000000000e+00
2.774975643999999964e+00,-4.144801757409999787e+00,4.731565873060000066e-02,-1.152712939200000086e+01,2.105668067929999943e+00,-5.604656219480000701e+00,6.645619869229999477e-01,0.000000000000000000e+00
2.779979013999999804e+00,-4.381940242230000671e+00,5.743773296280000329e-01,-1.164328207480000010e+01,2.305679559709999715e+00,-5.958656311039999487e+00,6.370944976810000160e-01,0.000000000000000000e+00
2.784969083000000012e+00,-5.785714568500000432e+00,5.109768340699999412e-01,-1.231755613160000173e+01,2.600153207780000031e+00,-6.320021152499999850e+00,5.536697506900000176e-01,0.000000000000000000e+00
2.789914679999999869e+00,-6.842461755989999617e+00,1.373038119479999875e+00,-1.288269878260000034e+01,2.980370998380000191e+00,-6.698174476619999318e+00,3.588864505290000340e-01,0.000000000000000000e+00
2.794892577000000156e+00,-8.928859449730000009e+00,2.367356761720000424e+00,-1.358042619569999943e+01,3.516884565350000269e+00,-7.061398506160000643e+00,3.692124411459999506e-02,0.000000000000000000e+00
2.799983663999999983e+00,-1.387107970529999967e+01,1.026033923189999975e+00,-1.350061908400000021e+01,4.183425426480000375e+00,-7.313069343569999603e+00,-4.377724826340000375e-01,0.000000000000000000e+00
2.805010594000000079e+00,-1.937603087449999961e+01,-1.036620929789999979e+00,-1.318570207069999967e+01,5.015436172490000288e+00,-7.275297641749999933e+00,-7.719898223880000687e-01,0.000000000000000000e+00
2.809875268999999953e+00,-1.954956607119999745e+01,-2.381924070119999737e+00,-1.231906887430000097e+01,5.837393283840000890e+00,-7.040769100189999463e+00,-1.164273023610000068e+00,0.000000000000000000e+00
2.814972442999999824e+00,-2.012671597079999941e+01,-4.486809898979999822e+00,-1.206416238529999951e+01,6.346612453459999692e+00,-6.886270523069999427e+00,-1.201320528979999969e+00,0.000000000000000000e+00
2.819977951999999899e+00,-2.246054119599999765e+01,-5.710442762150000462e+00,-1.354645495249999954e+01,6.581541538239999767e+00,-6.545236587519999816e+00,-1.093057632450000094e+00,0.000000000000000000e+00
2.825008614999999779e+00,-2.313114913150000262e+01,-7.653664157100000587e+00,-1.395240540490000036e+01,6.515191078189999985e+00,-6.052349090580000812e+00,-8.660203218459999741e-01,0.000000000000000000e+00
2.829975736999999825e+00,-2.196300083969999761e+01,-9.684946697350000022e+00,-1.456062498099999836e+01,6.254819870000000392e+00,-5.550775527949999955e+00,-6.771388053890000647e-01,0.000000000000000000e+00
2.834964771000000106e+00,-2.190827322420000201e+01,-1.077505780979999983e+01,-1.398089850890000108e+01,5.918348789219999517e+00,-5.093041419980000484e+00,-5.673317313189999433e-01,0.000000000000000000e+00
2.839985153000000206e+00,-2.227126833189999999e+01,-1.039722402930000023e+01,-1.362479140710000003e+01,5.566693782809999824e+00,-4.624341011050000283e+00,-6.224880218509999397e-01,0.000000000000000000e+00
2.844863232999999880e+00,-2.574019298119999988e+01,-1.239859775349999893e+01,-1.681791174089999785e+01,5.457951068879999923e+00,-4.202466487880000656e+00,-7.128344774250000571e-01,0.000000000000000000e+00
2.849866013999999836e+00,-2.966502833790000082e+01,-9.735296243880000588e+00,-1.599563323449999963e+01,5.532312870030000163e+00,-3.672248363490000500e+00,-5.265242457390000297e-01,0.000000000000000000e+00
2.854920050000000042e+00,-2.397716740989999806e+01,-5.930115440650000735e+00,-1.616882122510000031e+01,5.785588741299999782e+00,-2.905257225040000169e+00,-9.897585958239998871e-02,0.000000000000000000e+00
2.859835072000000089e+00,-1.601996337359999956e+01,-5.936348782080000497e+00,-1.972815387509999852e+01,6.015828132630000269e+00,-2.229220151899999891e+00,2.206174731249999910e-01,0.000000000000000000e+00
2.864826932000000159e+00,-1.609029304739999944e+01,-5.593948134060000577e+00,-2.169392437099999782e+01,5.994201183320000403e+00,-1.439291596409999929e+00,7.270663380619999394e-01,0.000000000000000000e+00
2.869838978999999846e+00,-1.372270233079999890e+01,-6.849069191429999925e+00,-2.524227853090000195e+01,5.727264881129999985e+00,-6.815602779389999810e-01,1.126608252529999854e+00,0.000000000000000000e+00
2.874845866999999888e+00,-4.071642413169999308e+00,-9.143011318979999302e+00,-2.559086868119999991e+01,5.471502780909999863e+00,1.107973419129999748e-02,1.546955108639999965e+00,0.000000000000000000e+00
2.879842678999999794e+00,5.795339890449999309e+00,-8.446610186039999135e+00,-1.559839098920000033e+01,5.093272209170000231e+00,9.016807079320000584e-01,2.097421407700000184e+00,0.000000000000000000e+00
2.884871650000000010e+00,-2.813824956329999960e+00,-1.295108082940000038e+01,-1.442793383589999934e+01,4.332954406739999875e+00,7.446337342259999881e-01,2.391517400740000188e+00,0.000000000000000000e+00
2.889855646000000000e+00,-7.932826550919999775e+00,-9.498813300360000156e+00,-2.368258006800000359e+01,3.505547761919999505e+00,5.739428997040000313e-01,2.617863178249999923e+00,0.000000000000000000e+00
2.894864070000000122e+00,-5.640765414809999712e+00,-8.554696466750000283e+00,-2.687565247090000042e+01,2.778602123259999779e+00,1.461216449739999979e+00,2.713976383209999899e+00,0.000000000000000000e+00
2.899931410999999848e+00,3.729203625100000474e-01,-6.562550589630000708e+00,-2.356522677719999947e+01,2.297546625140000298e+00,2.421973466869999925e+00,2.688871622089999747e+00,0.000000000000000000e+00
2.904905107999999903e+00,4.417024999609999725e+00,-4.168046147130000989e+00,-2.055227830169999947e+01,1.917236566540000187e+00,3.078321695330000107e+00,2.792086362840000557e+00,0.000000000000000000e+00
2.909982369000000180e+00,6.765666685599999397e+00,-3.882121127310000031e+00,-1.681495055299999919e+01,1.805170655249999978e+00,3.874556303019999870e+00,3.063669919969999711e+00,0.000000000000000000e+00
2.914916369999999812e+00,1.040180668090000005e+01,-2.294746721929999733e+00,-1.629909361869999884e+01,1.879595518109999919e+00,4.272774696349999957e+00,3.410379171370000240e+00,0.000000000000000000e+00
