t,ax,ay,az,wx,wy,wz,zv
5.073641999999999735e-03,-2.621631820909999799e+00,3.863478532299999824e-01,-9.433449724569999972e+00,-5.032949266019999318e-04,1.859562238679999960e-03,-1.365211233500000093e-02,1.000000000000000000e+00
1.013420599999999977e-02,-2.703617445680000397e+00,3.817970580569999828e-01,-9.405098659349999224e+00,5.152573343369999670e-03,-1.064549945289999973e-02,9.369652718309999170e-03,1.000000000000000000e+00
1.522031400000000041e-02,-2.643969324920000030e+00,3.291623962610000231e-01,-9.437113507770000354e+00,-7.025180850179999978e-03,-7.093731313939998818e-03,5.160892847929999909e-03,1.000000000000000000e+00
1.994303000000000048e-02,-2.658061563159999974e+00,3.781123416630000067e-01,-9.426020451350000329e+00,-1.336801331489999994e-02,2.353868680070000160e-03,-4.256117623300000388e-03,1.000000000000000000e+00
2.519255100000000053e-02,-2.679396612140000133e+00,3.755594788419999719e-01,-9.445156528980000132e+00,-1.704011671249999749e-02,-9.510515257720000490e-03,-1.622136333029999995e-03,1.000000000000000000e+00
3.027253400000000025e-02,-2.685202375809999875e+00,3.806983761009999911e-01,-9.401058444049999352e+00,1.918731257319999939e-02,3.676325781270000335e-03,4.076905082909999638e-03,1.000000000000000000e+00
3.519374000000000113e-02,-2.621397135370000075e+00,3.554011820300000402e-01,-9.426718955010001011e+00,4.535897169260000653e-03,1.366997836159999967e-03,-8.969787508249999278e-03,1.000000000000000000e+00
4.023845699999999831e-02,-2.660119080209999876e+00,3.674431001430000232e-01,-9.423446801469999912e+00,3.665627911690000264e-03,-2.870122669259999974e-03,-1.925048045809999928e-02,1.000000000000000000e+00
4.509679999999999939e-02,-2.703617445680000397e+00,3.636757834989999827e-01,-9.436081242120000212e+00,-5.217871628699999841e-03,2.813597442579999705e-03,5.407967139039999635e-03,1.000000000000000000e+00
5.011502300000000160e-02,-2.645394681550000016e+00,3.647916723190000043e-01,-9.450020335619999656e+00,-3.587033599619999808e-03,4.938056692479999253e-03,-6.340034306050000047e-03,1.000000000000000000e+00
5.517949099999999718e-02,-2.653082605709999875e+00,3.565962370340000076e-01,-9.430027933430000786e+00,5.447342526169999914e-03,-2.699372125789999740e-03,-8.106949739159999280e-03,1.000000000000000000e+00
6.009843799999999708e-02,-2.702500132089999951e+00,3.779930991969999710e-01,-9.444756716000000552e+00,-9.261059574780001677e-03,1.919751754030000037e-03,-9.942461038010001924e-04,1.000000000000000000e+00
6.519593599999999600e-02,-2.665409295579999949e+00,3.838076672269999934e-01,-9.449147644439998217e+00,1.373703870920000084e-02,8.729047141969998452e-03,6.716742645950000241e-04,1.000000000000000000e+00
7.026826799999999484e-02,-2.673982770389999875e+00,3.711175508719999905e-01,-9.408176751630000112e+00,1.396144856699999990e-03,1.715835370120000203e-02,1.172556076200000031e-03,1.000000000000000000e+00
7.507180500000000534e-02,-2.653167653640000179e+00,3.757589104040000016e-01,-9.419123677580000020e+00,-5.820201709870000129e-03,-5.133515223859999935e-03,-5.868603941050000959e-03,1.000000000000000000e+00
8.005582699999999607e-02,-2.675933319940000388e+00,3.913124899000000045e-01,-9.408506421969999423e+00,1.842875219880000040e-02,-1.613927446310000138e-02,-1.159921637740000087e-03,1.000000000000000000e+00
8.504041099999999631e-02,-2.670297067619999964e+00,3.828315887370000170e-01,-9.427458375200000518e+00,3.255528863520000017e-03,-5.963710136710000630e-03,-6.414169911300000252e-04,1.000000000000000000e+00
9.009109499999999604e-02,-2.677505976079999961e+00,3.709295540190000184e-01,-9.431894311819998933e+00,-6.302251480520000559e-03,-1.926511526109999858e-02,-8.199170697480001038e-04,1.000000000000000000e+00
9.502718200000000170e-02,-2.686345700620000443e+00,3.839876999690000070e-01,-9.437749467589998886e+00,1.462284708400000011e-04,-2.073270967229999973e-03,-5.419948138300000420e-05,1.000000000000000000e+00
1.000797130000000007e-01,-2.699297244390000294e+00,3.626871012550000328e-01,-9.426745258500000446e+00,-1.266989018769999926e-02,2.302408451210000064e-03,5.325138103220000349e-03,1.000000000000000000e+00
1.050395419999999996e-01,-2.643298878319999989e+00,3.947027168599999691e-01,-9.435516009449999686e+00,4.537998698649999517e-03,7.002395577729999491e-04,-1.454465277490000000e-02,1.000000000000000000e+00
1.100887529999999975e-01,-2.715391762359999905e+00,3.625931028279999468e-01,-9.434146474660000337e+00,6.209747400130000150e-03,1.028158981350000070e-02,3.300987184050000085e-03,1.000000000000000000e+00
1.150356730000000050e-01,-2.673799230520000236e+00,3.649258200919999751e-01,-9.438971118339999578e+00,9.116697125139999053e-03,9.490411728620000084e-03,5.627407226710000234e-04,1.000000000000000000e+00
1.200528960000000062e-01,-2.649498609740000177e+00,3.742945004079999971e-01,-9.443494733239999661e+00,3.603187389669999709e-03,5.495835095640000389e-03,7.557123899460000413e-04,1.000000000000000000e+00
1.252058199999999955e-01,-2.665240661009999901e+00,3.614130261980000314e-01,-9.429610584800000694e+00,-7.973643019799999190e-03,-5.658763460810000215e-03,-2.702852245419999806e-03,1.000000000000000000e+00
1.302606839999999877e-01,-2.718950623890000085e+00,3.684169136110000409e-01,-9.451840536789999803e+00,-2.653610426929999856e-03,-5.662953481079999705e-03,1.270984113220000218e-02,1.000000000000000000e+00
1.352117499999999917e-01,-2.653111247280000029e+00,3.887356616820000221e-01,-9.437855850569999205e+00,1.133882557039999966e-03,-1.142516382970000001e-03,-2.210279926659999925e-03,1.000000000000000000e+00
1.400958449999999966e-01,-2.665158827950000031e+00,3.805091736710000117e-01,-9.416984327459999804e+00,-8.619264699520000697e-03,4.593660123649999372e-03,5.648443475369999394e-04,1.000000000000000000e+00
1.450685750000000052e-01,-2.677975347159999853e+00,3.695018593039999799e-01,-9.460443529960000930e+00,-1.091588940470000074e-02,-1.707669906320000153e-02,-6.467187777160000092e-04,1.000000000000000000e+00
1.501275019999999960e-01,-2.664136791420000261e+00,3.876667172759999946e-01,-9.413530387610000716e+00,-1.020933594550000115e-02,-5.260948091749999625e-03,2.891214098780000262e-03,1.000000000000000000e+00
1.552260030000000013e-01,-2.656427239959999742e+00,3.447698979009999887e-01,-9.431658749500000383e+00,1.287026610230000007e-02,-8.630929514769999922e-03,-8.861403912309998715e-03,1.000000000000000000e+00
1.600987090000000057e-01,-2.711757497509999837e+00,3.660348773129999400e-01,-9.446275888400000653e+00,-8.092325180770000570e-03,-1.272829156369999909e-02,1.019291020929999868e-02,1.000000000000000000e+00
1.651898589999999944e-01,-2.629713712820000104e+00,3.887069835760000314e-01,-9.443645539889999441e+00,-3.402673755770000558e-04,2.135482616720000421e-02,-1.971088908609999746e-02,1.000000000000000000e+00
1.702694949999999929e-01,-2.701231427329999768e+00,3.663741922699999543e-01,-9.408035297330000546e+00,-5.541451275350000802e-03,6.568141281600000693e-03,-7.188104558739999428e-03,1.000000000000000000e+00
1.752027720000000066e-01,-2.706846344599999732e+00,3.768587979379999786e-01,-9.435413718119999515e+00,-5.885655409659999553e-04,2.333026146519999889e-03,5.805368069560000108e-03,1.000000000000000000e+00
1.800805729999999938e-01,-2.689532806229999462e+00,3.533368333789999594e-01,-9.408709835589998960e+00,-1.626078039409999815e-02,-2.259931527079999617e-03,4.934753756969999759e-03,1.000000000000000000e+00
1.850573650000000014e-01,-2.643442086179999873e+00,3.698950233399999621e-01,-9.400620637160001181e+00,5.473190918559999937e-03,3.070062724869999666e-03,3.894052933900000145e-03,1.000000000000000000e+00
1.901216880000000109e-01,-2.652773101369999775e+00,3.853099250170000101e-01,-9.414459777419999398e+00,-6.525027565659999610e-04,8.384961634870000124e-03,-2.652422757820000528e-03,1.000000000000000000e+00
1.950694890000000126e-01,-2.645252058209999646e+00,3.446288089299999746e-01,-9.436074227849999829e+00,-3.422230482099999742e-03,-1.138701103630000190e-03,-5.468882620330000471e-03,1.000000000000000000e+00
2.000656279999999954e-01,-2.709413272479999524e+00,3.852204931669999666e-01,-9.426284070719999519e+00,9.343981742860000411e-03,6.537433713670000313e-03,1.501738652590000125e-02,1.000000000000000000e+00
2.050345130000000016e-01,-2.633556651979999774e+00,3.351145461310000018e-01,-9.440458726550000179e+00,-1.345690689049999973e-04,-2.673506969590000275e-03,6.629680283369999549e-04,1.000000000000000000e+00
2.101066430000000096e-01,-2.619835292879999944e+00,3.480384347100000109e-01,-9.448449140780001088e+00,2.388240536670000185e-04,-3.103106981139999547e-03,-7.781472988430001257e-03,1.000000000000000000e+00
2.151928190000000074e-01,-2.676030935100000008e+00,3.591146861280000158e-01,-9.426752857280000342e+00,-1.528190216049999956e-03,1.669291965660000057e-02,-1.368149369960000063e-02,1.000000000000000000e+00
2.201145110000000127e-01,-2.724839974190000458e+00,3.960203753300000074e-01,-9.430091061789999785e+00,8.548557758329999520e-03,-2.016283106059999983e-03,-3.550222376360000470e-03,1.000000000000000000e+00
2.250719630000000138e-01,-2.659174492840000070e+00,3.421103963680000026e-01,-9.461635370089998887e+00,-2.372307702900000072e-03,6.267167627809999654e-04,-1.091561093929999983e-02,1.000000000000000000e+00
2.301218549999999863e-01,-2.673729380149999724e+00,3.660806892160000103e-01,-9.432555406080000537e+00,9.668976068500000076e-03,4.209582693870000426e-03,-8.605549810450000394e-04,1.000000000000000000e+00
2.351944850000000087e-01,-2.688036137929999736e+00,3.695832539769999814e-01,-9.447566512730000809e+00,3.920305054629999973e-03,1.810714369640000192e-03,7.345783058550000612e-03,1.000000000000000000e+00
2.400854900000000125e-01,-2.649173907829999841e+00,3.709524599710000148e-01,-9.422804996440000025e+00,2.538531553000000079e-03,-1.104084867979999822e-02,6.640863139179999227e-04,1.000000000000000000e+00
2.451874589999999965e-01,-2.656868553990000326e+00,3.517909191110000222e-01,-9.437042780630001459e+00,-4.767527861989999914e-04,-2.323005348439999892e-03,-1.052302890459999975e-03,1.000000000000000000e+00
2.501092939999999820e-01,-2.680025849950000261e+00,3.340502413679999894e-01,-9.433927278949999717e+00,-4.902697401119999977e-04,-4.465489648279999564e-03,-1.474345335739999990e-03,1.000000000000000000e+00
2.552096209999999976e-01,-2.704493351729999606e+00,3.851529078239999682e-01,-9.443513437939998312e+00,-1.445838622750000163e-02,1.182985585179999882e-02,4.885507747529999577e-03,1.000000000000000000e+00
2.600789920000000088e-01,-2.682599499829999790e+00,3.842478852759999564e-01,-9.405682596720000177e+00,3.138206899169999897e-03,-6.776823662219999718e-03,6.229145918040000091e-03,1.000000000000000000e+00
2.651831880000000141e-01,-2.678638487249999756e+00,3.507667636949999834e-01,-9.435777290729999933e+00,2.824753755699999807e-04,7.371450774369998774e-04,-6.356108002359999419e-03,1.000000000000000000e+00
2.700876039999999811e-01,-2.678662160380000046e+00,3.517553728739999941e-01,-9.440656294949999250e+00,6.189936771990000620e-03,-1.218209322539999875e-02,3.643857315179999633e-03,1.000000000000000000e+00
2.750838640000000113e-01,-2.621917944370000253e+00,3.793072870679999875e-01,-9.415956153460001588e+00,1.143897324800000059e-02,-3.597556380559999763e-03,-1.258560642599999835e-02,1.000000000000000000e+00
2.801095940000000173e-01,-2.670793326699999692e+00,3.719916302929999752e-01,-9.445129640970000295e+00,5.167190684009999356e-04,-8.580100256950000349e-04,-1.436752639710000071e-02,1.000000000000000000e+00
2.850696659999999993e-01,-2.716649945729999960e+00,3.746200790999999475e-01,-9.414273314929999970e+00,8.309537544850000707e-03,4.427736625079999738e-03,9.736947715279999430e-03,1.000000000000000000e+00
2.901651949999999869e-01,-2.671727977199999771e+00,3.878158068900000033e-01,-9.414625197110000343e+00,8.656353689729999121e-03,3.661166643719999600e-03,-5.426229909060000314e-03,1.000000000000000000e+00
2.950827560000000016e-01,-2.664804023159999868e+00,3.554424638889999710e-01,-9.435319610100000531e+00,2.799143549049999940e-03,4.251421429219999840e-03,-1.282417215410000012e-02,1.000000000000000000e+00
3.000950849999999837e-01,-2.676140240690000116e+00,3.937048649289999758e-01,-9.408420497250000736e+00,3.175849094989999927e-03,2.561009256170000085e-03,-9.819470345969999459e-03,1.000000000000000000e+00
3.052363490000000179e-01,-2.652766379360000037e+00,3.541154530689999969e-01,-9.434128939009999826e+00,-6.616462022070000379e-03,-6.490622181450000569e-04,-2.299484331159999673e-03,1.000000000000000000e+00
3.102776329999999971e-01,-2.684027194550000051e+00,3.254785931820000089e-01,-9.463598194600001179e+00,-3.498544916510000404e-03,-8.155365474520000907e-03,-2.299509709700000085e-03,1.000000000000000000e+00
3.152141900000000052e-01,-2.688428352109999864e+00,3.593232143119999833e-01,-9.402879814260000302e+00,1.274889800699999937e-02,-1.015847176310000037e-02,-2.132315421480000285e-03,1.000000000000000000e+00
3.201290529999999968e-01,-2.702812266779999639e+00,4.007980380600000281e-01,-9.421056106939998287e+00,2.667061984539999958e-03,-1.264040591200000108e-03,5.074967164550000034e-03,1.000000000000000000e+00
3.250860660000000069e-01,-2.681029181770000047e+00,3.518160535529999966e-01,-9.450224333759999595e+00,9.285807609559999787e-03,5.739506334070000083e-03,-4.148257430640000035e-03,1.000000000000000000e+00
3.302894299999999950e-01,-2.651876152529999864e+00,3.693721319770000289e-01,-9.464773083589999914e+00,2.221236750480000063e-02,6.545723415909999836e-03,-5.539082922039999766e-03,1.000000000000000000e+00
3.351082910000000026e-01,-2.662145033079999834e+00,3.667649816860000245e-01,-9.361603216499998936e+00,1.386694051329999920e-02,2.357451943680000019e-03,-1.133148930970000016e-02,1.000000000000000000e+00
3.402456260000000232e-01,-2.708834595809999524e+00,3.825792214109999811e-01,-9.453893962180000443e+00,-2.092256676409999863e-03,-2.194137498740000164e-02,1.217348314819999971e-02,1.000000000000000000e+00
3.450828459999999986e-01,-2.628552560079999711e+00,3.590353738139999695e-01,-9.421783836699999526e+00,7.575970608739999827e-03,-8.910359814760000427e-03,-5.248906090859999226e-04,1.000000000000000000e+00
3.501439190000000257e-01,-2.668575358390000041e+00,3.768712920929999655e-01,-9.429747947439999223e+00,6.215668283400000230e-03,3.235425101589999974e-03,-1.832018373530000044e-03,1.000000000000000000e+00
3.552327639999999787e-01,-2.663869080400000033e+00,3.989908059749999736e-01,-9.478122979029999229e+00,1.097196992489999842e-02,1.165690645580000004e-02,3.117234446110000046e-03,1.000000000000000000e+00
3.601177779999999995e-01,-2.693993292770000103e+00,2.757728244440000309e-01,-9.442413367749999509e+00,4.264034796510000197e-03,-1.777624525130000119e-02,-1.331095118079999792e-03,1.000000000000000000e+00
3.650869849999999750e-01,-2.667887083869999731e+00,2.055372221689999723e-01,-9.432359591250000008e+00,-4.578057210890000735e-03,-2.559956628829999740e-03,1.697415951639999953e-03,1.000000000000000000e+00
3.702909620000000013e-01,-2.647031927370000037e+00,4.006145712520000068e-01,-9.422451945219998848e+00,-8.065344765780000508e-03,2.352197188879999901e-04,4.862607922409999638e-03,1.000000000000000000e+00
3.752236210000000072e-01,-2.683555193120000126e+00,4.408279602290000043e-01,-9.471256600389999392e+00,-1.094388193450000117e-03,-1.673345454040000083e-02,-1.149720395920000035e-03,1.000000000000000000e+00
3.801005109999999743e-01,-2.676341608480000023e+00,4.662133440399999773e-01,-9.421523139930000568e+00,3.970270045099999826e-03,-6.332598160949999902e-03,-7.511522620919999955e-03,1.000000000000000000e+00
3.850910830000000007e-01,-2.683196296679999815e+00,4.081079226820000239e-01,-9.388584162409999934e+00,1.193073228929999964e-03,1.051897462460000057e-02,5.052594933659999669e-03,1.000000000000000000e+00
3.901409949999999904e-01,-2.642590730049999781e+00,3.507471091470000246e-01,-9.425898286280000704e+00,2.833667211230000288e-03,-8.220484480260000296e-03,-1.093292236330000063e-02,1.000000000000000000e+00
3.950926180000000065e-01,-2.706854527900000029e+00,3.616283859820000335e-01,-9.407913132250000032e+00,4.400242585689999493e-03,-8.055404759939999550e-05,2.911694813519999890e-03,1.000000000000000000e+00
4.000879390000000035e-01,-2.689518485440000273e+00,3.617315906279999771e-01,-9.404899337389998948e+00,-1.117710024119999892e-03,1.756095094609999791e-03,-3.058408387010000309e-03,1.000000000000000000e+00
4.052267239999999826e-01,-2.672362475719999964e+00,3.410402829179999817e-01,-9.454034831960001384e+00,1.177157834170000118e-02,-7.951539009810000341e-04,-1.130430214110000019e-02,1.000000000000000000e+00
4.101033920000000110e-01,-2.670838919409999956e+00,3.649784270620000104e-01,-9.429656762030001360e+00,3.583137411619999931e-03,8.488565683360000530e-03,-1.155420951550000137e-02,1.000000000000000000e+00
4.150910680000000075e-01,-2.671825884620000036e+00,4.269772391289999858e-01,-9.402200599829999561e+00,7.049471605569999390e-03,3.833410562949999753e-03,1.448204740880000172e-03,1.000000000000000000e+00
4.202401290000000178e-01,-2.660990602350000067e+00,4.153491990470000172e-01,-9.396751102250000542e+00,4.637670703229999393e-03,1.806401880460000060e-03,-2.227271348240000143e-02,1.000000000000000000e+00
4.250934659999999754e-01,-2.727872766009999950e+00,3.122532009060000058e-01,-9.483532144599999825e+00,-1.266559120270000231e-04,-8.716366253790000865e-03,-4.325472284109999760e-03,1.000000000000000000e+00
4.301277519999999743e-01,-2.694040054520000282e+00,3.671231474730000111e-01,-9.458197212339999993e+00,4.268758930269999589e-04,-9.923746809360001545e-03,5.400165449830000679e-03,1.000000000000000000e+00
4.352387659999999991e-01,-2.650509248090000103e+00,4.377736506930000604e-01,-9.404918626609999777e+00,1.138412114229999869e-02,-7.783907465640000148e-03,-8.852807804940000802e-03,1.000000000000000000e+00
4.402350870000000249e-01,-2.714430516119999748e+00,4.399756907819999951e-01,-9.430795995189999559e+00,7.222957443450000146e-03,-2.975388662889999654e-03,2.756310161200000060e-03,1.000000000000000000e+00
4.452125120000000047e-01,-2.690586406930000063e+00,3.900039280520000151e-01,-9.438378997670000103e+00,1.746086217459999826e-02,4.983033984899999658e-03,-4.923286847770000710e-03,1.000000000000000000e+00
4.502768149999999969e-01,-2.686801335429999771e+00,3.516348517670000451e-01,-9.453831418340000070e+00,1.307965349410000061e-02,-1.169729512180000012e-04,1.014161296189999839e-02,1.000000000000000000e+00
4.550744999999999929e-01,-2.605363407680000076e+00,3.849234464500000397e-01,-9.460859709539999329e+00,1.117957104000000083e-02,4.501109942789999381e-03,-2.276009321209999589e-02,1.000000000000000000e+00
4.602318040000000221e-01,-2.711447700909999536e+00,4.031536247429999831e-01,-9.416792604279999424e+00,1.423177961260000020e-02,-5.867606960239999531e-03,-2.584742614999999827e-03,1.000000000000000000e+00
4.650930050000000038e-01,-2.664180338300000006e+00,3.969561948749999458e-01,-9.444286175880000300e+00,1.537843700500000042e-02,5.135468207300000754e-03,-4.767593927680000183e-03,1.000000000000000000e+00
4.701054900000000147e-01,-2.667663504240000094e+00,3.582175911580000038e-01,-9.387747127060000807e+00,1.601617038250000014e-02,-5.819444078949999322e-03,-8.464620448649999920e-03,1.000000000000000000e+00
4.752552930000000231e-01,-2.666141409240000204e+00,3.461286190330000179e-01,-9.405862629460001401e+00,1.127083227040000073e-02,-5.238654091949999404e-03,-7.572196889669999785e-03,1.000000000000000000e+00
4.800934419999999814e-01,-2.675552211669999902e+00,3.414781263459999994e-01,-9.386070718280000946e+00,9.233171585950000846e-04,-1.272638514639999954e-02,7.259668316690000116e-03,1.000000000000000000e+00
4.850864730000000180e-01,-2.634930570679999917e+00,3.233774561839999895e-01,-9.423581241509999984e+00,2.497248165310000240e-02,-1.016719616019999897e-03,-7.972765713930001635e-03,1.000000000000000000e+00
4.901345659999999937e-01,-2.666514918729999906e+00,3.831065697530000036e-01,-9.391936395439998364e+00,-1.478739315639999996e-03,-1.401470694690000116e-02,-4.735112190250000304e-03,1.000000000000000000e+00
4.950883340000000188e-01,-2.694896379079999793e+00,3.557863088899999582e-01,-9.403730878130000193e+00,5.322645884009999731e-03,-1.255584601310000097e-02,-6.790152750909999799e-03,1.000000000000000000e+00
5.000408990000000387e-01,-2.678401171359999555e+00,3.746795542019999981e-01,-9.402677569690000681e+00,5.895626731220000513e-03,-1.134407706560000041e-02,3.643048927189999984e-03,1.000000000000000000e+00
5.052453940000000143e-01,-2.691818871340000197e+00,2.880038353880000068e-01,-9.396472285310000672e+00,6.126380991189998848e-03,-1.188593450929999878e-02,6.792032625530000124e-03,1.000000000000000000e+00
5.102901880000000334e-01,-2.617799695400000015e+00,2.306417980099999820e-01,-9.417079604530000481e+00,-7.395168766379999967e-03,-2.246331423520000169e-03,-1.487820222970000043e-02,1.000000000000000000e+00
5.150854609999999667e-01,-2.665246798490000124e+00,1.855050359550000083e-01,-9.397361927620000444e+00,-6.039851345120000013e-03,-1.209844741970000047e-02,3.160538151860000332e-03,1.000000000000000000e+00
5.201171770000000416e-01,-2.583978089819999990e+00,1.696281793220000000e-01,-9.443868827250000209e+00,-6.009593140329999930e-03,-5.584497004749999771e-03,-1.860197633499999920e-02,1.000000000000000000e+00
5.252219150000000392e-01,-2.626628314019999966e+00,2.444946745349999839e-01,-9.443774719229999448e+00,-9.773091413080000137e-03,-2.873735269529999973e-03,-8.853262290360000564e-03,1.000000000000000000e+00
5.301141270000000461e-01,-2.674599148730000042e+00,3.962012848539999688e-01,-9.384140042480000332e+00,-3.472191095350000284e-02,-2.551492117349999852e-02,6.561453919859999880e-03,1.000000000000000000e+00
5.352213630000000055e-01,-2.693912336479999947e+00,4.056160328010000038e-01,-9.428431604149999146e+00,-2.140058577060000022e-02,-1.890561170879999711e-02,-8.428432047369999874e-03,1.000000000000000000e+00
5.401158560000000053e-01,-2.728626799250000179e+00,3.902653554670000302e-01,-9.409645655129999398e+00,-1.516064349559999996e-02,-4.047523252670000293e-03,1.498932484539999832e-03,1.000000000000000000e+00
5.450875330000000130e-01,-2.695117036100000085e+00,2.764296626509999966e-01,-9.360526527180001111e+00,-1.506176684050000020e-02,-1.294754329140000151e-03,5.064784083520000937e-03,1.000000000000000000e+00
5.501419469999999645e-01,-2.699965645170000261e+00,2.737060463740000338e-01,-9.399906351410001193e+00,-1.325423084199999976e-02,-2.259399509059999926e-03,1.163541711869999981e-02,1.000000000000000000e+00
5.550915229999999756e-01,-2.672148248440000096e+00,4.259862553310000410e-01,-9.390652785369999478e+00,-3.234791383149999977e-02,-2.941434271629999892e-03,1.077954284849999902e-02,1.000000000000000000e+00
5.602084880000000044e-01,-2.683169408669999978e+00,3.880965235279999481e-01,-9.386859238310000464e+00,-4.392266646030000554e-02,-6.782531738280000132e-03,-4.284950904550000050e-03,1.000000000000000000e+00
5.650801479999999488e-01,-2.755997621259999697e+00,4.361227782129999953e-01,-9.353021850639999357e+00,-3.013746626679999693e-02,-6.177426781510000561e-03,4.194417502729999754e-03,1.000000000000000000e+00
5.701166819999999857e-01,-2.720204423339999789e+00,4.287210505890000078e-01,-9.377277755489998867e+00,-2.065260335799999972e-02,-5.179578904060000259e-03,2.259366214280000059e-03,1.000000000000000000e+00
5.750754559999999849e-01,-2.752767553300000003e+00,4.670038368299999632e-01,-9.355447031960000714e+00,-2.215565554799999934e-02,8.727170526980000675e-03,1.239280588919999988e-02,1.000000000000000000e+00
5.801023360000000517e-01,-2.682900236340000077e+00,4.559552040709999865e-01,-9.381391036030001018e+00,-9.865684434769999081e-03,8.492847904559999370e-03,3.857236821199999492e-03,1.000000000000000000e+00
5.850769359999999919e-01,-2.730376273270000098e+00,4.298941129569999742e-01,-9.387091293500001044e+00,-2.313471585509999789e-02,2.264329046009999624e-02,-2.656375523659999793e-03,1.000000000000000000e+00
5.902994270000000432e-01,-2.721997151980000140e+00,4.179450607590000089e-01,-9.388542076830001193e+00,-2.418904006480000063e-02,-4.956752061840000168e-03,-7.442137692119999912e-03,1.000000000000000000e+00
5.950992200000000398e-01,-2.736458515789999879e+00,3.501380738699999551e-01,-9.392619117010001517e+00,-2.153204195199999796e-02,-2.783308969809999631e-03,-8.468866348270001621e-03,1.000000000000000000e+00
6.000451479999999727e-01,-2.748692266679999996e+00,3.378954820869999875e-01,-9.423046403980000818e+00,-2.343857660889999903e-02,1.878856308759999788e-02,8.799631148579999465e-03,1.000000000000000000e+00
6.050544420000000256e-01,-2.655581436779999915e+00,3.250943431050000165e-01,-9.379558559910000426e+00,-1.225495152179999908e-02,1.899913698429999895e-02,-8.027547970410000081e-03,1.000000000000000000e+00
6.101180670000000417e-01,-2.696799874619999926e+00,3.782867118490000347e-01,-9.418104855919999352e+00,-1.798984594640000087e-02,-1.529864151960000059e-03,-4.067152272909999380e-03,1.000000000000000000e+00
6.150829190000000057e-01,-2.740319867390000219e+00,4.320821610530000134e-01,-9.391889633689999073e+00,-2.356969006360000105e-02,2.138275885950000239e-03,1.585243083539999986e-02,1.000000000000000000e+00
6.202261629999999970e-01,-2.722994930840000105e+00,4.680153154280000116e-01,-9.374625779680000548e+00,-1.292062085120000182e-02,5.335269495840000258e-03,1.261784322560000060e-02,1.000000000000000000e+00
6.251351109999999656e-01,-2.658061855420000175e+00,4.938712758919999724e-01,-9.400573875410000113e+00,-2.056030370300000049e-02,1.858540344979999967e-04,-1.134741120040000037e-02,1.000000000000000000e+00
6.301620020000000544e-01,-2.723071795470000112e+00,4.588292982030000022e-01,-9.446858656719999914e+00,-4.859027918430000592e-03,1.080407015979999857e-02,1.883393712340000054e-02,1.000000000000000000e+00
6.351131730000000308e-01,-2.631334007500000016e+00,4.221700215110000265e-01,-9.424930318030000365e+00,-5.662279203529999375e-03,2.345103770490000045e-02,-1.079020090399999965e-03,1.000000000000000000e+00
6.400233199999999512e-01,-2.668321968149999890e+00,3.827045282909999901e-01,-9.451924707939999948e+00,-2.203390933569999901e-03,1.233262382449999868e-02,-4.938332363960000297e-03,1.000000000000000000e+00
6.449546800000000024e-01,-2.645221955329999819e+00,3.825497030560000011e-01,-9.451987836300000723e+00,-2.350316848610000276e-03,8.853683248160001441e-04,1.383976079519999829e-03,1.000000000000000000e+00
6.499855450000000534e-01,-2.662425311329999822e+00,3.921167920199999934e-01,-9.462803244830000793e+00,6.252537714319999704e-04,-4.553501494229999537e-03,-4.200683906670000557e-03,1.000000000000000000e+00
6.552377129999999994e-01,-2.680297652629999750e+00,4.414267663729999902e-01,-9.402167866599999257e+00,-3.042032476510000364e-03,1.775030419230000031e-02,-3.229967085639999687e-03,1.000000000000000000e+00
6.601357039999999898e-01,-2.667446938879999951e+00,4.125124047190000254e-01,-9.440433592110000660e+00,1.228302810339999829e-02,1.030065305529999885e-02,-3.613031934949999420e-03,1.000000000000000000e+00
6.651136800000000404e-01,-2.681429579270000030e+00,4.261998615489999698e-01,-9.382440252819998605e+00,1.281708106399999901e-02,-2.241653855890000393e-04,-1.131447218360000055e-02,1.000000000000000000e+00
6.701240170000000163e-01,-2.670797418359999842e+00,3.545101149419999653e-01,-9.408937799129999391e+00,8.368728682399999980e-03,1.332587562500000058e-02,-1.103130169209999914e-02,1.000000000000000000e+00
6.750870589999999893e-01,-2.670565655429999907e+00,3.200872555320000146e-01,-9.392566510039999983e+00,1.310309488329999827e-02,8.755424059929999697e-03,-7.565345149489998951e-04,1.000000000000000000e+00
6.801059139999999781e-01,-2.749242594040000487e+00,3.807582530619999517e-01,-9.429674297680000095e+00,2.303674817090000174e-03,3.551787463949999772e-03,2.494446467610000190e-03,1.000000000000000000e+00
6.850770309999999474e-01,-2.662964532770000226e+00,3.534813564159999810e-01,-9.403249232100000299e+00,-5.967416800559999278e-04,2.266536466779999945e-04,-1.707899197940000030e-02,1.000000000000000000e+00
6.902734489999999834e-01,-2.680011821420000384e+00,3.128758263159999720e-01,-9.408688208280000964e+00,1.447191741320000107e-02,1.285203360019999963e-02,-1.121963746850000027e-02,1.000000000000000000e+00
6.951085959999999675e-01,-2.724124519400000111e+00,3.568727524199999945e-01,-9.438050496360000707e+00,5.678835324939999520e-03,2.076544426380000016e-02,-1.731930859390000063e-02,1.000000000000000000e+00
7.000946679999999755e-01,-2.707449863450000382e+00,2.822352436580000123e-01,-9.382912546510000951e+00,-2.678193151949999611e-03,1.425477303560000221e-02,-6.228246726100000220e-03,1.000000000000000000e+00
7.050468250000000436e-01,-2.672218975590000323e+00,3.848091358879999757e-01,-9.484114328400000460e+00,-8.569303900000000210e-03,7.477957755330000289e-03,-8.739503100510000524e-03,1.000000000000000000e+00
7.102786300000000219e-01,-2.565735161640000150e+00,3.612730697380000522e-01,-9.408484794660001427e+00,-1.229417277499999985e-03,2.596335671839999915e-02,-8.281213231379999304e-03,1.000000000000000000e+00
7.150835009999999548e-01,-2.695003054329999870e+00,4.254283657199999791e-01,-9.469656763979999781e+00,-6.875172723080000096e-03,8.691933937369999974e-03,-6.751625798640001168e-03,1.000000000000000000e+00
7.201121740000000493e-01,-2.655945009399999890e+00,4.282012279659999643e-01,-9.404272145400000227e+00,-9.377140551809999558e-03,2.101696096359999960e-02,-6.178666371849999769e-04,1.000000000000000000e+00
7.250962100000000188e-01,-2.631210673380000031e+00,4.332729782729999868e-01,-9.503463171989999125e+00,-2.964261919259999871e-03,-1.630867249329999826e-03,-4.754995927210000327e-03,1.000000000000000000e+00
7.301490809999999776e-01,-2.643649299190000246e+00,4.303276090030000445e-01,-9.441868593349999728e+00,7.055476773529999364e-03,7.008062675600001089e-03,-1.529659517110000186e-02,1.000000000000000000e+00
7.352145129999999584e-01,-2.615023508690000220e+00,3.894996683240000146e-01,-9.460141332139999193e+00,2.304845489559999641e-02,1.150938589129999953e-02,-7.851639762520000801e-03,1.000000000000000000e+00
7.401305129999999899e-01,-2.622458334859999685e+00,3.825806461829999727e-01,-9.448409977809999916e+00,5.763552617280000463e-03,1.759470207619999926e-03,-1.312963105740000067e-02,1.000000000000000000e+00
7.451704670000000030e-01,-2.592785665650000126e+00,3.288311184800000175e-01,-9.465361112620000128e+00,1.374131720510000064e-02,2.389206178490000179e-02,-2.240512147549999708e-02,1.000000000000000000e+00
7.500864769999999737e-01,-2.631328162279999994e+00,3.171400230990000235e-01,-9.454819844860001155e+00,1.463116146620000065e-02,1.746180094779999775e-02,-2.797264419500000016e-02,1.000000000000000000e+00
7.550316089999999924e-01,-2.708654855319999832e+00,3.458401209480000404e-01,-9.466101701849998662e+00,8.158839307730000531e-03,5.351947620510000281e-03,-2.988937124609999940e-02,1.000000000000000000e+00
7.602455540000000456e-01,-2.586334005299999905e+00,2.852239954109999642e-01,-9.401831181989999564e+00,-6.354555953290000336e-03,1.523635908960000070e-02,-2.137666568159999822e-02,1.000000000000000000e+00
7.652253359999999782e-01,-2.760997329240000298e+00,4.333884213459999746e-01,-9.397695105100000390e+00,4.691759124400000057e-03,7.876417599619999627e-03,-1.470306888220000024e-02,1.000000000000000000e+00
7.701377700000000548e-01,-2.643590847000000021e+00,3.578280438509999772e-01,-9.435382153939999128e+00,2.034454978999999941e-02,-8.937227539719999657e-05,-2.525088749830000159e-02,1.000000000000000000e+00
7.751116919999999633e-01,-2.692841784639999680e+00,4.292403617559999995e-01,-9.426596205410000096e+00,8.328287862240000075e-03,4.098050296309999757e-03,-6.429561413819999405e-03,1.000000000000000000e+00
7.802147539999999548e-01,-2.704332900469999856e+00,4.368965755969999587e-01,-9.384803474819999991e+00,1.717825233939999918e-02,1.795618096369999998e-03,-4.199082497510000025e-03,1.000000000000000000e+00
7.850728890000000515e-01,-2.672115222959999592e+00,4.506463570740000257e-01,-9.423426927730000457e+00,2.019128762190000245e-02,2.330965129659999698e-03,8.506370708349999393e-03,1.000000000000000000e+00
7.901308649999999600e-01,-2.620722597109999885e+00,4.289618370750000187e-01,-9.472174884279999318e+00,5.416684318330000115e-03,-5.701350979510000014e-03,-2.597875706850000244e-02,1.000000000000000000e+00
7.950667430000000202e-01,-2.700720847449999962e+00,4.078481027020000038e-01,-9.434119586659999612e+00,1.733413524929999783e-02,-3.303179517389999605e-03,-1.491770148279999812e-02,1.000000000000000000e+00
8.000948239999999823e-01,-2.690141585770000177e+00,4.139894184690000034e-01,-9.412623794159999946e+00,7.313970942050000007e-03,-9.856795892120000929e-03,-1.038997992870000116e-02,1.000000000000000000e+00
8.050612860000000426e-01,-2.640920751009999901e+00,3.434602400740000006e-01,-9.436005254269998588e+00,1.493951585139999781e-02,-3.040607785809999828e-03,-9.609941393139998303e-03,1.000000000000000000e+00
8.101502409999999932e-01,-2.649610253420000117e+00,3.305661255790000030e-01,-9.416644720239998989e+00,1.977622509000000195e-02,7.210828363899999399e-03,-7.527108304200000495e-03,1.000000000000000000e+00
8.150999570000000416e-01,-2.621993932220000101e+00,2.627514485740000127e-01,-9.409631042090000008e+00,-1.273462199609999915e-03,-4.678706638510000439e-03,-8.483261801299999197e-03,1.000000000000000000e+00
8.201181189999999788e-01,-2.649537480449999816e+00,2.425049254900000228e-01,-9.415264664060000399e+00,1.256606355310000041e-02,1.299996487800000010e-02,1.381312496960000052e-03,1.000000000000000000e+00
8.252277630000000030e-01,-2.606461432050000138e+00,2.566387743799999899e-01,-9.429792371110000460e+00,5.103137809780000211e-04,-5.091964267190000415e-04,-8.793083019549998922e-03,1.000000000000000000e+00
8.301238640000000446e-01,-2.604617557740000144e+00,2.603349802830000059e-01,-9.402098893019999792e+00,-8.465683087710000609e-03,-1.226388569920000213e-02,-3.976445179429999831e-03,1.000000000000000000e+00
8.350505700000000475e-01,-2.627835059459999734e+00,2.344160193189999963e-01,-9.384431718900000163e+00,-1.167035475370000082e-02,-1.838681101800000023e-02,-9.302471298719999131e-04,1.000000000000000000e+00
8.400376800000000088e-01,-2.561038235999999912e+00,1.922485553979999817e-01,-9.411638874780001274e+00,-6.271459860730001223e-04,-1.400391943750000159e-02,1.098621077839999870e-02,1.000000000000000000e+00
8.450431510000000479e-01,-2.658414322120000062e+00,2.307805671599999775e-01,-9.410548741450000421e+00,-3.844386897979999804e-03,-1.885712146760000095e-03,6.983489263800000783e-03,1.000000000000000000e+00
8.501178390000000418e-01,-2.609645615040000255e+00,3.317622765609999913e-01,-9.409915704250000346e+00,-2.842881157990000129e-02,-1.023258455100000026e-02,-3.970286808909999701e-03,1.000000000000000000e+00
8.552150309999999589e-01,-2.627047708479999688e+00,3.141579385489999821e-01,-9.375674996469999911e+00,-3.853797540069999611e-02,-7.640196941789999426e-03,2.392509952190000153e-03,1.000000000000000000e+00
8.600850719999999505e-01,-2.691255099969999787e+00,2.987477313129999756e-01,-9.401916522189999625e+00,-3.410108387469999724e-02,-1.829570718109999744e-02,1.677767373619999886e-03,1.000000000000000000e+00
8.652159130000000031e-01,-2.510762631480000007e+00,2.351981278739999903e-01,-9.377508057120000018e+00,-3.785874694590000283e-02,-1.229068636889999941e-02,1.154591143129999990e-02,1.000000000000000000e+00
8.700940019999999775e-01,-2.619887899850000146e+00,2.956434086220000035e-01,-9.462022323580001171e+00,-4.508031532169999578e-02,-1.785027980800000039e-02,3.616552334280000256e-03,1.000000000000000000e+00
8.750862830000000203e-01,-2.594758134770000169e+00,3.445749963830000429e-01,-9.428780563720000174e+00,-3.756092488769999932e-02,-1.607175171380000045e-02,4.041502252219999428e-04,1.000000000000000000e+00
8.802445009999999570e-01,-2.604260707129999908e+00,4.211284765680000097e-01,-9.378107776580000277e+00,-4.168269410730000152e-02,-4.103677719830000487e-02,3.360190428790000346e-03,1.000000000000000000e+00
8.850487949999999993e-01,-2.691456467759999693e+00,4.414611070339999888e-01,-9.395220239419998620e+00,-4.811087250709999985e-02,-3.630581870680000406e-02,1.370359584689999875e-02,1.000000000000000000e+00
8.902730629999999756e-01,-2.669216871170000172e+00,4.161799873160000329e-01,-9.440816453949999243e+00,-3.761522471900000109e-02,-4.381270706649999930e-02,-3.741418477149999569e-04,1.000000000000000000e+00
8.950414060000000394e-01,-2.619569919939999991e+00,4.788074892079999811e-01,-9.449951946560000593e+00,-3.529170528049999783e-02,-2.253255248070000147e-02,7.701009977609999876e-03,1.000000000000000000e+00
9.000384460000000475e-01,-2.670862884809999560e+00,5.419488223730000165e-01,-9.468550264050000109e+00,-2.166355960069999906e-02,-2.152058668429999988e-02,4.596924874930000474e-03,1.000000000000000000e+00
9.050077279999999558e-01,-2.705693375170000081e+00,5.351974849489999908e-01,-9.424994615439999279e+00,-1.917880959809999813e-02,-4.631759971379999924e-02,9.507063776249999668e-03,1.000000000000000000e+00
9.102538249999999609e-01,-2.665366625479999918e+00,4.897890115470000527e-01,-9.439659100600000130e+00,-2.418792620300000071e-02,-3.794286400080000565e-02,5.658982787279999774e-03,1.000000000000000000e+00
9.150690089999999888e-01,-2.677012931870000223e+00,4.627863652660000326e-01,-9.404810490060000916e+00,-1.061369106170000076e-02,-3.339855372910000009e-02,2.511721104379999723e-04,1.000000000000000000e+00
9.201168309999999684e-01,-2.689317994430000081e+00,3.673659067210000018e-01,-9.435164711789999714e+00,-2.400167658930000072e-02,-3.981387242669999493e-02,1.514226198199999842e-03,1.000000000000000000e+00
9.252235559999999470e-01,-2.606335175319999919e+00,3.589984393370000415e-01,-9.418708082510001134e+00,-1.289351377639999865e-02,-2.312397770579999873e-02,-1.335346512500000006e-02,1.000000000000000000e+00
9.301372270000000109e-01,-2.737225408510000069e+00,4.065482721500000562e-01,-9.449325923620000012e+00,6.638824939730000180e-03,-3.311586752529999816e-02,4.699743818489999884e-03,1.000000000000000000e+00
9.350724510000000267e-01,-2.697131883049999956e+00,3.831033914159999720e-01,-9.408656644099998800e+00,-8.599179796870000739e-03,-3.956836089489999819e-02,3.400205634530000486e-03,1.000000000000000000e+00
9.401141640000000299e-01,-2.706243994790000329e+00,4.082779089540000128e-01,-9.400644602559999896e+00,6.084650289269999922e-03,-2.348138205710000037e-02,-1.134292036289999937e-02,1.000000000000000000e+00
9.450570480000000106e-01,-2.691726809140000398e+00,3.295417875000000163e-01,-9.415283953280001228e+00,8.071848424150000235e-05,-3.038942813870000245e-02,-1.829196698959999895e-02,1.000000000000000000e+00
9.501520940000000026e-01,-2.709445128920000112e+00,3.553839021019999933e-01,-9.450251806289999834e+00,-4.385943058879999620e-03,-1.787624321879999895e-02,-1.299669034779999885e-02,1.000000000000000000e+00
9.550957820000000043e-01,-2.704365925959999473e+00,4.103834663989999743e-01,-9.418360291989998245e+00,5.775155499579999463e-03,-2.563051879409999900e-02,-1.162337698039999853e-02,1.000000000000000000e+00
9.600795629999999692e-01,-2.646042916329999883e+00,3.615675591729999860e-01,-9.391660501110001391e+00,-1.104196347300000040e-02,-1.352784410120000218e-02,-8.865376003089999780e-05,1.000000000000000000e+00
9.650907859999999783e-01,-2.612287361720000423e+00,3.913949074859999766e-01,-9.396735904679999862e+00,3.331291489300000370e-03,-3.104497306049999739e-02,-2.504279650749999947e-02,1.000000000000000000e+00
9.701564969999999510e-01,-2.726898952550000033e+00,4.184172813809999836e-01,-9.449612339339999778e+00,1.462750136849999896e-02,-2.780463173989999870e-02,-9.109435603020001049e-03,1.000000000000000000e+00
9.750511400000000384e-01,-2.687414791160000149e+00,4.718364811509999646e-01,-9.448544417849999988e+00,-6.869577919129999950e-04,-1.731421798470000190e-02,2.994717098770000030e-03,1.000000000000000000e+00
9.800696589999999819e-01,-2.665224002139999993e+00,4.473384381019999689e-01,-9.409065224900000857e+00,-1.209157239649999958e-02,-4.563131183389999845e-02,-1.587131060659999898e-02,1.000000000000000000e+00
9.850089189999999828e-01,-2.721646146579999925e+00,4.345223938120000295e-01,-9.377968075840000139e+00,-1.091670244929999860e-02,-3.476794436570000008e-02,-5.751324817539999606e-03,1.000000000000000000e+00
9.900938369999999766e-01,-2.718171748470000093e+00,3.998095750119999847e-01,-9.413948320760001209e+00,-4.620026797060000634e-03,-2.040285244580000018e-02,-1.055471226570000101e-02,1.000000000000000000e+00
9.950624460000000449e-01,-2.712909005640000260e+00,4.174115384049999489e-01,-9.441520218300000877e+00,1.170414779339999829e-02,-3.639355674390000461e-02,-1.793288439510000096e-02,1.000000000000000000e+00
1.000041076000000029e+00,-2.758962900799999840e+00,3.723505632660000231e-01,-9.436827676569999213e+00,2.697235438969999757e-03,-1.927595213059999854e-02,-1.561790332200000027e-02,1.000000000000000000e+00
1.005009712999999971e+00,-2.710224296600000304e+00,3.141396722390000229e-01,-9.413605206419999760e+00,9.895093739030001029e-03,-1.700489036739999751e-02,-1.968768239019999880e-02,1.000000000000000000e+00
1.010303756999999969e+00,-2.801285792749999892e+00,3.558163752350000375e-01,-9.434704108550000967e+00,1.059712283310000093e-02,-1.677081547679999673e-02,-9.959510527549999756e-03,1.000000000000000000e+00
1.015109912000000003e+00,-2.802536085070000293e+00,4.272595997349999952e-01,-9.431254844870000653e+00,1.311353291380000117e-03,-1.279354002329999816e-02,-6.321630906310000096e-03,1.000000000000000000e+00
1.020095945000000004e+00,-2.764975292959999997e+00,4.894853524250000198e-01,-9.390928679700000004e+00,-1.348882168529999884e-02,-9.125234559180000343e-03,-2.553313225509999673e-02,1.000000000000000000e+00
1.025169720000000062e+00,-2.800239790830000075e+00,5.273831579369999689e-01,-9.409148227010000198e+00,-5.309505853800000272e-03,-1.407198328520000048e-02,-2.586814016100000280e-02,1.000000000000000000e+00
1.030158233000000090e+00,-2.747374754340000003e+00,5.745143269460000202e-01,-9.430691950289999070e+00,1.893868856129999820e-02,-8.562679402530000775e-03,-1.619973592460000056e-02,1.000000000000000000e+00
1.035195942999999952e+00,-2.698562500380000007e+00,5.577817667989999340e-01,-9.440107428890000207e+00,6.915889214720001045e-03,-6.060460116710000324e-03,-3.156609088179999911e-02,1.000000000000000000e+00
1.040222820000000103e+00,-2.743719154439999919e+00,5.242960055759999793e-01,-9.456865671470000123e+00,2.514758892360000053e-02,6.728924810889999955e-03,-1.871882379060000115e-02,1.000000000000000000e+00
1.045082695999999922e+00,-2.720433263659999934e+00,4.340524382129999914e-01,-9.446175935150000313e+00,2.166069671509999670e-02,8.376245386900000797e-04,-2.640183828769999963e-02,1.000000000000000000e+00
1.050114444999999952e+00,-2.743788128029999829e+00,3.704225178119999740e-01,-9.387693351050000246e+00,4.258424416180000421e-02,-4.490616265680000144e-04,-3.542666882280000318e-02,1.000000000000000000e+00
1.055083422000000049e+00,-2.787800580490000346e+00,3.546878461289999507e-01,-9.424203757320000818e+00,3.053763695059999797e-02,-1.082063931970000080e-02,-2.829647995529999821e-02,1.000000000000000000e+00
1.060097312999999986e+00,-2.805844478970000111e+00,4.027603145770000115e-01,-9.383984559660000002e+00,2.982405573129999835e-02,-1.180264260620000026e-02,-3.286424651740000452e-02,1.000000000000000000e+00
1.065083868000000100e+00,-2.760250310270000007e+00,4.164985882779999593e-01,-9.420465155309999616e+00,2.185736596580000260e-02,-1.646697707470000036e-02,-2.950519509610000091e-02,1.000000000000000000e+00
1.070120602999999893e+00,-2.730813203379999887e+00,4.899889545660000567e-01,-9.434041845239999446e+00,3.861933946610000140e-02,-2.485218923540000093e-03,-2.165926247840000221e-02,1.000000000000000000e+00
1.074988159000000110e+00,-2.720176658550000237e+00,4.875519366769999752e-01,-9.437810842390000232e+00,2.821238711480000133e-02,8.466445840900000200e-03,-1.560037583109999924e-02,1.000000000000000000e+00
1.080082567999999910e+00,-2.656455004749999738e+00,3.961613912359999712e-01,-9.407845327709999594e+00,4.070617631080000048e-02,-3.259083721790000023e-03,-3.297808021309999588e-02,1.000000000000000000e+00
1.085043210999999896e+00,-2.731353593870000207e+00,3.227111742950000139e-01,-9.395078785119999054e+00,4.610665142540000538e-02,1.919592916970000104e-02,-3.836701810359999937e-02,1.000000000000000000e+00
1.090279757000000016e+00,-2.774064316079999593e+00,2.776604282890000053e-01,-9.375820542419999626e+00,4.524315521119999517e-02,2.600122243169999828e-04,-1.928448490799999915e-02,1.000000000000000000e+00
1.095071276000000093e+00,-2.754322673780000397e+00,2.123918738369999781e-01,-9.369779508689999759e+00,3.869582712650000006e-02,-8.436702191830000586e-03,-2.421779744330000012e-02,1.000000000000000000e+00
1.100081590000000054e+00,-2.761201035120000036e+00,1.761550420740000122e-01,-9.435042546720000090e+00,2.074338868259999885e-02,1.163730630650000077e-03,-2.725240588190000132e-02,1.000000000000000000e+00
1.104971866000000080e+00,-2.747391120950000154e+00,2.464821950899999947e-01,-9.399823933820000477e+00,3.150135651230000222e-02,1.159885991360000076e-02,-1.534735970200000119e-02,1.000000000000000000e+00
1.110287680000000110e+00,-2.760984469759999893e+00,3.356489452690000208e-01,-9.416336092679999936e+00,8.830166421830000154e-03,2.242377027869999970e-02,-1.105177961289999927e-02,1.000000000000000000e+00
1.115108195999999996e+00,-2.766373177059999744e+00,3.268167464499999730e-01,-9.340869640550000241e+00,2.214850485319999965e-02,5.385641939940000004e-03,-8.248336613180000040e-03,1.000000000000000000e+00
1.120084174000000043e+00,-2.753290408129999811e+00,3.638187356329999900e-01,-9.325646352459999733e+00,1.417091023179999944e-02,1.420779526229999992e-02,-1.178766600790000056e-02,1.000000000000000000e+00
1.125087482999999944e+00,-2.726661636660000276e+00,3.642456192759999656e-01,-9.403887530000000439e+00,-1.763426931569999972e-03,1.177104655650000088e-02,-1.681110262869999969e-02,1.000000000000000000e+00
1.130115184999999967e+00,-2.750405208079999664e+00,4.115970069070000181e-01,-9.428214746529999246e+00,-4.032247234140000011e-03,2.959742955859999761e-02,-7.540401071309999967e-03,1.000000000000000000e+00
1.135079857000000025e+00,-2.679210734179999776e+00,4.124067523870000307e-01,-9.456739999260001639e+00,1.274073682730000011e-02,3.161627054209999871e-02,-1.568681187929999929e-02,1.000000000000000000e+00
1.140077119999999944e+00,-2.698270531690000418e+00,3.289618321880000140e-01,-9.473184353589999773e+00,2.303976193070000206e-02,7.955147884789999166e-03,-8.121846243740000679e-03,1.000000000000000000e+00
1.145236592000000053e+00,-2.711049641509999830e+00,3.027791787860000250e-01,-9.482038106650000131e+00,3.288536518810000059e-02,2.524933777749999858e-02,-2.803224604580000206e-03,1.000000000000000000e+00
1.150264257999999984e+00,-2.616033854769999945e+00,3.647939008079999490e-01,-9.434401910730001006e+00,2.224691025910000008e-02,1.941447146240000282e-02,-1.058248430489999899e-02,1.000000000000000000e+00
1.155211078000000002e+00,-2.673416076420000120e+00,3.602592530529999948e-01,-9.430444697539998700e+00,3.923103213310000226e-02,1.112475059929999947e-02,-1.597924530510000038e-02,1.000000000000000000e+00
1.160110441000000048e+00,-2.625394680569999917e+00,2.722084647599999907e-01,-9.418957673360001337e+00,3.881222754719999835e-02,2.762986160809999953e-02,-2.703824825580000007e-02,1.000000000000000000e+00
1.165227196000000021e+00,-2.635401695330000127e+00,2.525469932880000101e-01,-9.472657114840000503e+00,4.476365074519999404e-02,1.257267873729999916e-02,-9.449658915400000261e-03,1.000000000000000000e+00
1.170140538999999924e+00,-2.576644385929999892e+00,1.549303581389999962e-01,-9.475975445610000492e+00,3.123793192210000055e-02,1.845281198620000312e-02,-1.408484205599999997e-02,1.000000000000000000e+00
1.175107982999999967e+00,-2.576855106070000012e+00,2.535081482039999723e-01,-9.491116900639999798e+00,4.383235052230000789e-02,1.469874940810000051e-02,-1.660253666339999920e-02,1.000000000000000000e+00
1.180224053999999967e+00,-2.641586521440000279e+00,3.464593853580000271e-01,-9.491521974310000331e+00,1.606478355820000273e-02,-1.475428696720000078e-02,-1.159047335389999829e-02,1.000000000000000000e+00
1.185084948000000082e+00,-2.654369138390000327e+00,3.812709152909999899e-01,-9.470391507999998737e+00,8.271545171739998897e-03,-1.067960541699999877e-02,-1.926498673859999844e-02,1.000000000000000000e+00
1.190119131999999968e+00,-2.712827464829999702e+00,3.698664548319999801e-01,-9.428697561610000832e+00,2.176897414030000075e-02,-2.286010421809999901e-02,-1.547111012039999872e-02,1.000000000000000000e+00
1.198703483000000070e+00,-2.687551277020000295e+00,3.839807953050000111e-01,-9.440030856530000847e+00,1.701621897520000024e-02,-5.017102230340000609e-04,-1.592319086189999955e-02,1.000000000000000000e+00
1.199995742999999893e+00,-2.673892169499999749e+00,4.051678871750000188e-01,-9.464156412999999546e+00,2.237017080189999951e-02,-1.244364120070000183e-02,-2.136915363370000057e-02,1.000000000000000000e+00
1.205031949000000102e+00,-2.747780704790000250e+00,3.398832218379999603e-01,-9.456009346900000168e+00,1.760425418619999960e-02,-1.983303949240000294e-02,1.790248788890000126e-03,1.000000000000000000e+00
1.210122882999999927e+00,-2.670077579650000033e+00,3.208936400119999921e-01,-9.453338081869999243e+00,2.186802774670000213e-02,-2.366283163429999670e-02,-1.725975424050000054e-02,1.000000000000000000e+00
1.215046250999999966e+00,-2.706103125009999832e+00,3.432355279400000070e-01,-9.471047926080000678e+00,2.938357368109999548e-02,-2.810316532850000090e-02,-3.143466310579999794e-03,1.000000000000000000e+00
1.220102674000000054e+00,-2.678315538899999737e+00,3.126259066759999872e-01,-9.437236841889998118e+00,1.156990602610000023e-02,-2.626210823659999929e-02,-6.447078660130000326e-03,1.000000000000000000e+00
1.225235190999999890e+00,-2.726158071050000409e+00,2.638285580199999925e-01,-9.454971236030001336e+00,2.435008808969999980e-02,-8.354137651620000340e-03,-2.867601579059999607e-03,1.000000000000000000e+00
1.230132564000000039e+00,-2.751122708700000086e+00,2.808018681199999644e-01,-9.428123561110000495e+00,1.267338730389999842e-02,-1.155328750609999934e-02,8.072685450319999840e-04,1.000000000000000000e+00
1.235220285999999890e+00,-2.703143690690000156e+00,3.128037109279999672e-01,-9.441456505410000588e+00,-8.446983061729999506e-03,-1.381381787360000044e-02,-2.034332603220000146e-02,1.000000000000000000e+00
1.240240669000000073e+00,-2.743816185080000025e+00,3.985675390619999869e-01,-9.416568732400000030e+00,-7.152126636359999495e-05,-1.489358395339999974e-02,-7.816491648550000226e-03,1.000000000000000000e+00
1.245073354999999937e+00,-2.773326064940000002e+00,3.653867886680000066e-01,-9.419863682289999929e+00,9.321455843749999748e-03,-1.560478657479999823e-02,-1.873727189380000125e-03,1.000000000000000000e+00
1.250145277999999971e+00,-2.702103241719999716e+00,3.900316197759999826e-01,-9.440397351749998833e+00,-4.282890586180000399e-04,-1.250905916089999938e-02,-1.010860502720000061e-02,1.000000000000000000e+00
1.255074787000000081e+00,-2.754155792779999778e+00,3.986673096419999784e-01,-9.412467142300000589e+00,2.692426741119999939e-02,-8.420683443550000535e-03,-1.455524121410000033e-03,1.000000000000000000e+00
1.260052487999999915e+00,-2.760819050059999835e+00,3.235255959510000001e-01,-9.436941658340000316e+00,2.360988408329999996e-02,-3.642445430159999692e-02,9.944850578899998989e-03,1.000000000000000000e+00
1.265209639000000053e+00,-2.697560045340000379e+00,2.899916847370000439e-01,-9.456294593580000907e+00,1.705373823639999911e-02,-2.156405895949999735e-02,-2.062524901699999864e-03,1.000000000000000000e+00
1.270115834000000055e+00,-2.707578166000000230e+00,2.329300368109999964e-01,-9.454559148089998644e+00,2.232579700649999985e-02,-2.114082314069999982e-02,-1.125967688860000059e-02,1.000000000000000000e+00
1.275209105999999926e+00,-2.764213368679999672e+00,2.167316931390000090e-01,-9.404192650429999745e+00,2.188248373570000210e-02,-2.346186712379999886e-02,5.916978698220000735e-03,1.000000000000000000e+00
1.280219073999999901e+00,-2.688602831899999934e+00,2.285236368120000250e-01,-9.405051897599999933e+00,1.320834737270000156e-02,-3.260659519580000072e-03,-1.940251328049999967e-03,1.000000000000000000e+00
1.285076434999999906e+00,-2.740164092310000132e+00,2.510719522989999786e-01,-9.416734736609999601e+00,1.098900381479999896e-02,1.133053656670000159e-02,9.342497214670000480e-03,1.000000000000000000e+00
1.290251601000000026e+00,-2.724125396179999825e+00,2.727038470609999821e-01,-9.401817153470000576e+00,1.441993750629999918e-02,-1.280618831519999938e-02,-7.770529482510000465e-04,1.000000000000000000e+00
1.295099207000000030e+00,-2.702076353719999879e+00,2.891784321249999956e-01,-9.408851289890000302e+00,-5.202580709010000068e-03,5.070725455880000301e-03,-5.541183985770000223e-03,1.000000000000000000e+00
1.300082567000000022e+00,-2.744220674219999712e+00,2.924367398020000230e-01,-9.440206797610001033e+00,1.143079716709999966e-04,-1.992525160309999849e-02,1.665841601789999973e-02,1.000000000000000000e+00
1.305089560000000093e+00,-2.719455943059999825e+00,3.296726108060000215e-01,-9.396458841299999420e+00,6.708541419360000008e-03,-5.273234564810000326e-04,2.843154594300000004e-02,1.000000000000000000e+00
1.310137807000000043e+00,-2.670384745899999857e+00,3.061275758989999707e-01,-9.365472166889999173e+00,8.389986120160000324e-03,-2.071077935400000240e-03,1.869298890229999927e-02,1.000000000000000000e+00
1.315084914000000049e+00,-2.649234405850000140e+00,2.918240147310000032e-01,-9.356692063580000607e+00,2.283813431860000007e-02,-1.264908816670000033e-02,1.331480406219999989e-02,1.000000000000000000e+00
1.320039769000000085e+00,-2.605093066299999816e+00,3.485485761890000367e-01,-9.381049675249998998e+00,-8.893632329999999822e-03,-1.091398671270000023e-02,7.825426757339999650e-03,1.000000000000000000e+00
1.325209636999999940e+00,-2.651835235990000150e+00,3.507908386909999732e-01,-9.421107544869999018e+00,-8.156578987840000169e-03,-1.094463746989999924e-02,-3.763030748809999791e-03,1.000000000000000000e+00
1.329951595000000042e+00,-2.691965586330000271e+00,3.346417409879999805e-01,-9.367023487979999175e+00,-1.076038274910000141e-02,-3.379723802209999572e-02,1.782064791770000074e-04,1.000000000000000000e+00
1.334991806999999975e+00,-2.779571973590000411e+00,3.599253083910000095e-01,-9.359297277639999635e+00,2.011085161940000059e-04,-3.669403493400000271e-02,1.484357751910000099e-02,1.000000000000000000e+00
1.340001774000000090e+00,-2.739171281879999587e+00,3.419587494699999897e-01,-9.367928327869998739e+00,6.200442090630000486e-03,-3.030960820619999982e-02,1.606822572650000100e-02,1.000000000000000000e+00
1.345111900000000027e+00,-2.725820509659999669e+00,3.176938210570000032e-01,-9.422651267180000900e+00,-3.016214817760000041e-03,-1.911789178849999937e-02,1.081676222379999996e-02,1.000000000000000000e+00
1.350120020999999948e+00,-2.720755627479999550e+00,3.189312173649999638e-01,-9.415608362929999586e+00,-4.966185893859999603e-03,-2.349874749779999605e-02,4.833637736739999739e-03,1.000000000000000000e+00
1.355075427999999915e+00,-2.751579804819999975e+00,1.590969032339999978e-01,-9.482592817919998751e+00,-1.026113750409999919e-03,-2.092225477100000119e-02,-3.926002420490000075e-03,1.000000000000000000e+00
1.360090709000000064e+00,-2.703841025299999590e+00,2.434592853389999922e-01,-9.451510281919999201e+00,-1.351429149510000212e-02,-1.295393332840000071e-02,1.373698562379999967e-02,1.000000000000000000e+00
1.365230742999999913e+00,-2.733686128470000032e+00,2.577365612879999879e-01,-9.481662843600000556e+00,-7.403302937750000541e-03,-2.765166759490000209e-02,8.870897814629997991e-03,1.000000000000000000e+00
1.370123836000000095e+00,-2.653927239840000230e+00,2.301145409990000001e-01,-9.458978133580000502e+00,8.039655163879999566e-03,-1.639683917159999796e-02,2.902954258020000108e-02,1.000000000000000000e+00
1.375083636000000054e+00,-2.710243585820000245e+00,2.601930327950000010e-01,-9.463259171900000766e+00,-1.053498941469999985e-03,-3.096008673309999862e-02,2.385115437209999606e-02,1.000000000000000000e+00
1.380038327000000065e+00,-2.711322028709999721e+00,2.522750079459999961e-01,-9.412181311090000335e+00,2.976941410449999818e-03,-3.301478549839999971e-02,2.411016449329999797e-02,1.000000000000000000e+00
1.385067679999999912e+00,-2.697118439049999594e+00,3.187385443369999960e-01,-9.421531323239998201e+00,8.847588673229999506e-03,-2.910596318540000296e-02,2.620048448439999886e-02,1.000000000000000000e+00
1.390113522000000046e+00,-2.711068638470000014e+00,4.157276769709999931e-01,-9.358212989540000137e+00,8.540533017369999862e-04,-1.491990499199999896e-02,2.164716087280000104e-02,1.000000000000000000e+00
1.395091832999999948e+00,-2.699338745449999966e+00,3.258983894959999739e-01,-9.420288045179999514e+00,-1.795261516240000002e-03,-1.509741786870000269e-02,2.309771068390000306e-02,1.000000000000000000e+00
1.400087021000000043e+00,-2.756744640229999987e+00,3.579920022410000291e-01,-9.446295177619999706e+00,-4.915331490339999720e-03,-4.232746735219999890e-02,2.477066591380000168e-02,1.000000000000000000e+00
1.405094840000000067e+00,-2.666851018820000085e+00,3.689636973059999825e-01,-9.384162254310000506e+00,9.364240104330001039e-04,-1.512716803700000015e-02,1.921210251749999945e-02,1.000000000000000000e+00
1.410118790999999927e+00,-2.691018660870000190e+00,3.109271399340000075e-01,-9.359614088509999874e+00,-2.077786065640000249e-02,-2.711410447959999859e-02,2.126769907770000023e-02,1.000000000000000000e+00
1.415063826999999996e+00,-2.754039180670000420e+00,3.631136195709999681e-01,-9.387841819610001082e+00,6.278685294090000611e-03,-3.005979955200000289e-02,4.181767255069999273e-02,1.000000000000000000e+00
1.420082768999999967e+00,-2.724889366290000225e+00,3.467353162219999896e-01,-9.366702585460000563e+00,-1.717230491340000081e-02,-4.501801356669999504e-02,3.459620848300000440e-02,1.000000000000000000e+00
1.425209812000000076e+00,-2.695183963849999920e+00,2.244359839060000028e-01,-9.328602864169999620e+00,-1.091132778670000220e-02,-4.458460584280000277e-02,2.896437235179999750e-02,1.000000000000000000e+00
1.430085046999999943e+00,-2.679729205090000121e+00,1.349861059370000005e-01,-9.339875368819999579e+00,-2.368406206370000239e-02,-3.940941393379999991e-02,3.605499118569999162e-02,1.000000000000000000e+00
1.435089056999999890e+00,-2.596859783219999773e+00,1.402835547580000009e-01,-9.378288393840000126e+00,-2.236961573359999914e-02,-2.883755415680000142e-02,4.602625593539999560e-02,1.000000000000000000e+00
1.440204054999999927e+00,-2.555277480510000032e+00,2.575368374650000014e-01,-9.436378179239998332e+00,-3.804770112039999874e-02,-4.889052361250000034e-02,3.446710109710000164e-02,1.000000000000000000e+00
1.445076430000000078e+00,-2.670878959159999955e+00,2.989207315260000164e-01,-9.354813994749999750e+00,-4.782389476900000130e-02,-5.633528530600000195e-02,4.815530031919999787e-02,1.000000000000000000e+00
1.450141885000000075e+00,-2.709462372309999978e+00,3.277686403480000177e-01,-9.346028046229999831e+00,-4.392490535969999915e-02,-6.446564197540000096e-02,4.943918064240000049e-02,1.000000000000000000e+00
1.455068395000000070e+00,-2.704701733780000339e+00,3.778630796090000077e-01,-9.325253553750000535e+00,-5.259455367920000401e-02,-6.931328773500000651e-02,5.423738807440000448e-02,1.000000000000000000e+00
1.460050233999999891e+00,-2.602954592970000203e+00,3.508744253209999941e-01,-9.388155707859999310e+00,-3.090218827130000040e-02,-7.152473926539999749e-02,4.649138823149999433e-02,1.000000000000000000e+00
1.465000351999999895e+00,-2.646624515610000117e+00,3.622365079429999968e-01,-9.453574228709999971e+00,-2.348048426209999734e-02,-5.465189740059999551e-02,5.612218379969999976e-02,1.000000000000000000e+00
1.470074474000000020e+00,-2.696198109329999593e+00,3.531144227999999941e-01,-9.439375022969999307e+00,-3.492944687599999765e-02,-8.105526119469999569e-02,5.256316438319999507e-02,1.000000000000000000e+00
1.475033594999999975e+00,-2.754065776409999611e+00,3.152865772519999887e-01,-9.432880984769999699e+00,-2.654949948190000325e-02,-6.574141979219999543e-02,5.317899957299999925e-02,1.000000000000000000e+00
1.480002489000000088e+00,-2.788729678040000159e+00,4.156566940940000232e-01,-9.392183648200001400e+00,-2.454716339709999903e-02,-8.644926548000000932e-02,5.650955438609999576e-02,1.000000000000000000e+00
1.485039454999999897e+00,-2.768990958339999864e+00,5.759707728320000442e-01,-9.423097257380000258e+00,-2.191242389379999961e-02,-7.712776958939999983e-02,4.859796538950000161e-02,1.000000000000000000e+00
1.490069590000000055e+00,-2.857321568230000164e+00,6.117503806130000221e-01,-9.444890571520000222e+00,6.305681075899999440e-03,-7.736890017990000201e-02,4.510089755059999705e-02,1.000000000000000000e+00
1.495087617999999896e+00,-2.819273284859999951e+00,4.915704516040000360e-01,-9.433295410790000446e+00,-6.266651675109999840e-03,-8.181080222130000801e-02,4.320106282829999644e-02,1.000000000000000000e+00
1.500068798999999897e+00,-2.800758261740000421e+00,4.338473440950000315e-01,-9.504568502889998882e+00,1.643723994489999785e-02,-7.245199382309999714e-02,3.370652720330000185e-02,1.000000000000000000e+00
1.505044234999999953e+00,-2.813989791499999615e+00,4.560856620509999848e-01,-9.412605089460001295e+00,1.789676956830000068e-02,-6.745515018700000420e-02,2.638486400250000113e-02,1.000000000000000000e+00
1.510134220000000083e+00,-2.819469099690000480e+00,3.545216227169999956e-01,-9.453326975950000488e+00,3.396915271880000115e-02,-7.372863590719999638e-02,3.743674233559999426e-02,1.000000000000000000e+00
1.515051517000000070e+00,-2.810135161899999900e+00,2.940629344979999726e-01,-9.440235439189999411e+00,2.932369336490000047e-02,-8.051886409519999621e-02,3.105307929220000110e-02,1.000000000000000000e+00
1.520082032999999999e+00,-2.833600793160000020e+00,3.152614793440000063e-01,-9.470960247799999010e+00,1.705891452730000021e-02,-6.983842700719999907e-02,2.883126400409999693e-02,1.000000000000000000e+00
1.525215549999999975e+00,-2.836819755209999627e+00,4.091405901979999760e-01,-9.477820196689998866e+00,2.978707477450000252e-02,-8.775395154949999776e-02,3.207141160960000348e-02,1.000000000000000000e+00
1.530129787999999991e+00,-2.870464835179999952e+00,4.286358565239999918e-01,-9.448786409910001183e+00,3.074358217420000011e-02,-7.014096528289999466e-02,2.215103246270000090e-02,1.000000000000000000e+00
1.535068249999999912e+00,-2.838395333959999878e+00,4.163932647399999909e-01,-9.465841589610000995e+00,3.599864989519999808e-02,-8.465772122140000078e-02,2.443378977479999936e-02,1.000000000000000000e+00
1.540231844000000017e+00,-2.895796552570000237e+00,4.932654189530000233e-01,-9.410515423710000604e+00,2.524619176979999921e-02,-8.504832535980001718e-02,1.765394583340000254e-02,1.000000000000000000e+00
1.545206078999999955e+00,-2.950901184679999734e+00,4.529891208070000452e-01,-9.410106258380000810e+00,3.297669440509999605e-02,-6.562294811009999895e-02,1.605299487710000125e-02,1.000000000000000000e+00
1.550109801000000065e+00,-2.918499382770000317e+00,4.048840287319999676e-01,-9.315596667610000381e+00,2.431096695359999740e-02,-5.735331773760000279e-02,2.024064958100000103e-02,1.000000000000000000e+00
1.555047783000000017e+00,-2.856035327809999469e+00,4.218635128450000105e-01,-9.395821712440000084e+00,4.252511262889999838e-02,-6.283783912660000082e-02,1.639506965879999889e-02,1.000000000000000000e+00
1.560129408000000106e+00,-2.867984708799999893e+00,4.559940017119999967e-01,-9.431132095280000627e+00,5.127142742279999776e-02,-7.708832621569999821e-02,2.680906653400000339e-02,1.000000000000000000e+00
1.564988492999999981e+00,-2.837056778830000070e+00,4.499259703769999952e-01,-9.443153956980001595e+00,4.969588667150000305e-02,-8.229731023310001004e-02,2.382998540999999720e-02,1.000000000000000000e+00
1.570905047999999971e+00,-2.877655331200000166e+00,4.181970627589999823e-01,-9.421059029550001185e+00,6.062129139900000047e-02,-7.426057010889999810e-02,1.385848037900000093e-02,1.000000000000000000e+00
1.575381386999999966e+00,-2.839029832469999626e+00,4.494823182630000025e-01,-9.481074230049999940e+00,4.845159128309999702e-02,-9.669443219900000774e-02,2.831004187459999766e-02,1.000000000000000000e+00
1.579997992000000018e+00,-2.747948170309999494e+00,5.818794123539999807e-01,-9.433460245960000989e+00,7.430765032769999501e-02,-8.836423605679999405e-02,2.338801976289999959e-03,1.000000000000000000e+00
1.585034867999999930e+00,-2.769090911590000204e+00,6.763401224889999952e-01,-9.496211008910000473e+00,8.295614272360000985e-02,-9.210885316130000555e-02,8.576110005379999901e-03,1.000000000000000000e+00
1.590050398999999892e+00,-2.766305957040000152e+00,6.477594863009999981e-01,-9.515224336939999361e+00,8.735311776399999617e-02,-9.972143918279999242e-02,-5.168693605810000501e-03,1.000000000000000000e+00
1.595034896000000035e+00,-2.774355115730000154e+00,6.574043897419999949e-01,-9.498701656679999772e+00,1.244049221280000006e-01,-9.773050993680000575e-02,-1.289485953750000094e-02,1.000000000000000000e+00
1.600039042999999994e+00,-2.759305722890000201e+00,5.692550547110000192e-01,-9.499107899389999332e+00,1.395067274569999904e-01,-1.132047995919999994e-01,-1.011093705889999986e-02,1.000000000000000000e+00
1.605038235000000091e+00,-2.813565720870000231e+00,5.565696145299999786e-01,-9.480388585880000107e+00,1.468676477669999814e-01,-1.191915497180000005e-01,-1.329398714009999947e-02,0.000000000000000000e+00
1.610111736999999987e+00,-2.780036376229999551e+00,4.723549520669999557e-01,-9.442372451219998908e+00,1.682982742790000152e-01,-1.155236810449999929e-01,-2.019314281640000042e-02,0.000000000000000000e+00
1.615082568000000052e+00,-2.834567884630000201e+00,4.767173850609999763e-01,-9.372837727220000303e+00,1.734659075739999889e-01,-1.423907130959999878e-01,-2.659810148180000167e-02,0.000000000000000000e+00
1.620100942999999960e+00,-2.884590391160000156e+00,4.264166095720000049e-01,-9.430839834330001281e+00,1.635377556089999962e-01,-1.442091614010000133e-01,-2.994710765779999909e-02,0.000000000000000000e+00
1.625236158000000097e+00,-2.929129205590000229e+00,3.013806188340000247e-01,-9.322872211569999124e+00,1.809542328119999877e-01,-1.236083880069999974e-01,-2.612682990729999627e-02,0.000000000000000000e+00
1.630116278999999890e+00,-2.846941628510000211e+00,2.110308146159999843e-01,-9.431253091310001224e+00,1.782922297720000160e-01,-1.488945633170000171e-01,-3.519973158840000033e-02,0.000000000000000000e+00
1.635090447999999919e+00,-2.881858335849999619e+00,2.579826815360000136e-01,-9.363756595139999916e+00,1.995051354170000180e-01,-1.146397814150000027e-01,-2.357651107010000011e-02,0.000000000000000000e+00
1.640127362000000089e+00,-2.838700162120000314e+00,2.277587168540000095e-01,-9.408500576749998956e+00,1.958481520410000065e-01,-1.403685808179999939e-01,-1.962068676950000021e-02,0.000000000000000000e+00
1.645102470000000094e+00,-2.847027260970000029e+00,2.446994489919999960e-02,-9.418595854310000348e+00,1.939733475450000078e-01,-1.653014868500000123e-01,-3.870886936779999871e-02,0.000000000000000000e+00
1.650127947999999956e+00,-2.890592261930000184e+00,1.002494039379999979e-01,-9.426184702000000470e+00,1.930112540720000103e-01,-1.630500853060000144e-01,4.063730128109999812e-03,0.000000000000000000e+00
1.655082128999999957e+00,-2.877551286309999679e+00,2.121547588789999828e-01,-9.446246077779999695e+00,1.854768097399999982e-01,-1.758462041620000027e-01,1.442318316549999913e-03,0.000000000000000000e+00
1.660073565999999889e+00,-2.749761357220000146e+00,2.176539408170000134e-01,-9.451921785330000603e+00,1.856189519170000080e-01,-1.879912018780000027e-01,-9.552026167510000582e-03,0.000000000000000000e+00
1.665113467999999930e+00,-2.873940986850000101e+00,9.381012813840000630e-02,-9.507892678870000225e+00,2.019382715230000069e-01,-1.987492889169999999e-01,-5.919734947379999383e-03,0.000000000000000000e+00
1.670099578000000085e+00,-2.874976175120000033e+00,5.673358501510000068e-02,-9.524798805489998799e+00,1.955345422030000113e-01,-2.164023816589999982e-01,6.477251183239999405e-03,0.000000000000000000e+00
1.675090219999999963e+00,-2.916211856349999909e+00,7.179655428210000856e-02,-9.584774843029999047e+00,2.049113214019999962e-01,-2.076934576029999813e-01,2.284020558000000173e-02,0.000000000000000000e+00
1.680099108000000063e+00,-2.711079744379999656e+00,1.947397146269999879e-01,-9.744180976610000045e+00,2.007949352259999765e-01,-2.359090149400000225e-01,1.535325869919999982e-02,0.000000000000000000e+00
1.685072888000000102e+00,-2.697387611379999939e+00,2.095549516440000093e-01,-9.797126969369999827e+00,1.855918914080000037e-01,-2.599745690820000066e-01,2.783156372609999971e-02,0.000000000000000000e+00
1.690102961000000015e+00,-2.530618255549999862e+00,7.222670302739998827e-02,-9.936432564209999541e+00,2.183996438980000121e-01,-2.787528336050000277e-01,3.019788302480000061e-02,0.000000000000000000e+00
1.695075944000000057e+00,-2.530395552709999940e+00,-2.177901161510000135e-03,-9.867264919960000213e+00,2.283806055779999955e-01,-2.996902465819999972e-01,4.233384877440000277e-02,0.000000000000000000e+00
1.700068453000000090e+00,-2.627562087740000329e+00,-1.792135528609999917e-01,-1.002412136909999951e+01,2.580960094929999893e-01,-3.439018726349999944e-01,5.296385288240000599e-02,0.000000000000000000e+00
1.705121901999999912e+00,-2.610676711650000037e+00,-4.355615276009999759e-01,-1.034275944870000075e+01,2.529756724830000136e-01,-4.140773415569999893e-01,8.923814445730000877e-02,0.000000000000000000e+00
1.710123078000000074e+00,-2.346337646829999901e+00,-5.074599485220000483e-01,-1.003959717059999868e+01,2.584859728810000035e-01,-4.534169435499999512e-01,1.017211303109999965e-01,0.000000000000000000e+00
1.715112842999999998e+00,-2.032069891229999925e+00,-3.905566665640000101e-01,-1.068497714139999921e+01,2.666166126729999641e-01,-5.077718496320000607e-01,1.262522786860000024e-01,0.000000000000000000e+00
1.720132513000000030e+00,-1.848803281849999980e+00,-5.350179271310000484e-01,-1.094804121780000017e+01,2.691586017609999826e-01,-6.027228236199999589e-01,1.489315181970000124e-01,0.000000000000000000e+00
1.725103841999999998e+00,-1.650571012400000148e+00,-3.468043994030000077e-01,-1.096735148299999985e+01,2.927219569680000189e-01,-6.785618662829999703e-01,1.761161684989999976e-01,0.000000000000000000e+00
1.730108050999999980e+00,-1.775879061549999971e+00,-3.721140510959999870e-01,-1.104993974980000004e+01,3.069685399529999970e-01,-7.840133905410000548e-01,2.132020592689999883e-01,0.000000000000000000e+00
1.735239672999999927e+00,-1.676707762569999982e+00,-1.599364958639999945e-01,-1.122200078230000031e+01,3.168720006940000111e-01,-9.085623621939999950e-01,2.619430720809999835e-01,0.000000000000000000e+00
1.740129899000000036e+00,-1.638557334000000143e+00,4.495258651440000031e-01,-1.175350536750000074e+01,3.107957243919999835e-01,-1.023131012920000193e+00,2.469974458219999780e-01,0.000000000000000000e+00
1.745229367000000087e+00,-1.332957015110000087e+00,8.330932573420000153e-01,-1.183672141089999919e+01,3.435942232609999758e-01,-1.175735354419999990e+00,2.323868423699999852e-01,0.000000000000000000e+00
1.750137658999999957e+00,-1.488222541759999906e+00,4.645176460379999983e-01,-1.147386308130000110e+01,3.732871711249999835e-01,-1.296844363210000184e+00,2.161696255209999973e-01,0.000000000000000000e+00
1.754995489999999991e+00,-1.464669086079999794e+00,3.801113699930000478e-01,-1.174737607099999970e+01,4.250115752220000598e-01,-1.433876276019999896e+00,1.843781769280000149e-01,0.000000000000000000e+00
1.760017434000000103e+00,-1.337457395270000182e+00,4.614736021670000077e-01,-1.203887596829999929e+01,4.229506552220000382e-01,-1.564032673840000109e+00,1.695599406960000000e-01,0.000000000000000000e+00
1.765070149999999893e+00,-1.106839032939999967e+00,1.334319992300000146e-01,-1.289386782680000110e+01,3.991486132140000254e-01,-1.749967336649999927e+00,1.367474347350000063e-01,0.000000000000000000e+00
1.770107541000000007e+00,-1.320572311449999869e+00,1.208356621050000052e-01,-1.307965343329999897e+01,3.102790713309999671e-01,-1.966156363490000114e+00,8.821769803760001749e-02,0.000000000000000000e+00
1.774987378000000060e+00,-1.215073270750000045e+00,5.896546859979999722e-01,-1.292192955369999829e+01,1.949542611839999995e-01,-2.192802429199999903e+00,-9.325600229200000854e-03,0.000000000000000000e+00
1.780051067000000042e+00,-1.196356368390000036e+00,6.463689087249999687e-01,-1.294302261059999992e+01,7.295343279839998363e-02,-2.437268018720000207e+00,-8.159408718350000256e-02,0.000000000000000000e+00
1.785045135000000061e+00,-1.251740036629999775e+00,1.508261742239999925e-01,-1.316720545999999992e+01,2.363855950529999972e-02,-2.655097007750000238e+00,-1.214263737200000082e-01,0.000000000000000000e+00
1.790103656999999959e+00,-9.884649477740000689e-01,-1.358822282260000076e-02,-1.337126906599999820e+01,3.396760439500000166e-04,-2.891657352450000218e+00,-1.627145111559999968e-01,0.000000000000000000e+00
1.795026862999999917e+00,-9.531731965749999924e-01,-1.782755596249999963e-01,-1.357392397420000130e+01,-2.420240268110000065e-02,-3.137522935870000307e+00,-2.169686704869999982e-01,0.000000000000000000e+00
1.800008591999999963e+00,-1.155984245179999981e+00,-1.143021449370000164e+00,-1.366748605499999947e+01,-6.375009566549999507e-02,-3.403022050859999759e+00,-2.573130428790000312e-01,0.000000000000000000e+00
1.805119268999999971e+00,-1.125915854660000104e+00,-1.943057874950000041e+00,-1.333409464280000023e+01,-1.812449395659999907e-01,-3.708825349810000116e+00,-2.918371558189999937e-01,0.000000000000000000e+00
1.810155077999999973e+00,-1.383527364789999936e+00,-3.901699688009999889e+00,-1.360933547930000032e+01,-3.566142022609999906e-01,-3.924860715869999517e+00,-2.345710843800000167e-01,0.000000000000000000e+00
1.815081522000000058e+00,-1.405103529039999799e+00,-4.721168982209999143e+00,-1.353211312339999850e+01,-6.305921673769999680e-01,-4.131250381469999233e+00,-6.430141627790000869e-02,0.000000000000000000e+00
1.820109234000000020e+00,-2.545325118559999655e+00,-4.064241781530000708e+00,-1.278368194349999953e+01,-9.364825487139999405e-01,-4.312420845030000116e+00,4.973449930549999481e-02,0.000000000000000000e+00
1.825183031999999983e+00,-3.359988766050000297e+00,-4.190476590130000289e+00,-1.344511405440000118e+01,-1.239218711849999988e+00,-4.444719791409999843e+00,1.377234607929999910e-01,0.000000000000000000e+00
1.830101288999999909e+00,-2.677064662059999822e+00,-4.983819509429999961e+00,-1.366981829730000086e+01,-1.484411597250000048e+00,-4.568830490109999865e+00,2.886335849760000016e-01,0.000000000000000000e+00
1.835095745999999917e+00,-3.017709114059999642e+00,-4.564384137050000234e+00,-1.250669572470000013e+01,-1.652502179149999861e+00,-4.657085418700000368e+00,4.249088168140000010e-01,0.000000000000000000e+00
1.840230569000000038e+00,-4.032721146369999232e+00,-4.493067498069999388e+00,-1.214119769420000061e+01,-1.757150530820000167e+00,-4.701133251189999918e+00,5.257524251940000060e-01,0.000000000000000000e+00
1.845074504999999920e+00,-4.977375155589999878e+00,-5.337379849369999540e+00,-1.263014324059999893e+01,-1.921133279799999816e+00,-4.783835411070000099e+00,6.579056978230000130e-01,0.000000000000000000e+00
1.850254617000000046e+00,-5.834867598719999826e+00,-6.155420572070000595e+00,-1.308837449990000046e+01,-2.113417863850000078e+00,-4.915431022639999981e+00,8.038429617879999656e-01,0.000000000000000000e+00
1.855278701999999891e+00,-7.673827239689999580e+00,-6.259010710399999233e+00,-1.427572784290000030e+01,-2.356074333190000036e+00,-4.977961540219999925e+00,9.583745002750000408e-01,0.000000000000000000e+00
1.859941848999999925e+00,-8.845805903469999620e+00,-6.113138596659999813e+00,-1.403731539270000006e+01,-2.739701271059999943e+00,-4.950687885280000700e+00,1.058303952219999955e+00,0.000000000000000000e+00
1.864962870999999911e+00,-1.026773489510000026e+01,-6.838509218969999637e+00,-1.322952133869999969e+01,-3.098306894300000280e+00,-4.911531448359999885e+00,1.167306661610000074e+00,0.000000000000000000e+00
1.869936508999999969e+00,-1.259148296289999891e+01,-5.134867564509999482e+00,-1.463598738819999845e+01,-3.552162647250000305e+00,-4.662677764890000631e+00,1.177200794220000013e+00,0.000000000000000000e+00
1.875008446000000051e+00,-1.258333472770000050e+01,-5.568355427640000244e+00,-1.365440211700000006e+01,-3.967782497409999998e+00,-4.327434539790000478e+00,1.273007154460000123e+00,0.000000000000000000e+00
1.879882529000000080e+00,-1.194002747160000055e+01,-5.036273919290000123e+00,-1.416054897359999920e+01,-4.245903015139999681e+00,-3.949970960619999971e+00,1.358647227290000092e+00,0.000000000000000000e+00
1.885006568000000104e+00,-1.062001922379999996e+01,-3.374124551169999986e+00,-1.455551275260000033e+01,-4.401652336119999731e+00,-3.613421440119999772e+00,1.380120396610000189e+00,0.000000000000000000e+00
1.889923664999999975e+00,-1.285147128510000059e+01,-2.538661569020000286e+00,-1.417845287910000174e+01,-4.515033245089999703e+00,-3.312203407290000179e+00,1.397104620929999985e+00,0.000000000000000000e+00
1.894765542000000025e+00,-1.321172615430000086e+01,-2.015326700090000145e+00,-1.580155443140000138e+01,-4.505760669709999888e+00,-3.004209518429999726e+00,1.273861289020000065e+00,0.000000000000000000e+00
1.899783347999999927e+00,-9.864916311010000882e+00,-1.148322770639999879e+00,-1.565334656819999992e+01,-4.364129066469999430e+00,-2.703452110290000654e+00,1.145136713979999943e+00,0.000000000000000000e+00
1.904677807999999972e+00,-5.506797673869999521e+00,6.035911856849999202e-01,-1.444639537519999983e+01,-4.079177856449999418e+00,-2.317173004149999826e+00,9.533518552779999267e-01,0.000000000000000000e+00
1.909764872000000002e+00,-1.866959993050000044e+00,8.022142810840000582e-01,-1.345213766940000077e+01,-3.670326948169999604e+00,-1.918396234509999854e+00,7.883919477459999658e-01,0.000000000000000000e+00
1.914731527000000044e+00,-8.915916235399999890e-01,-1.020350762989999938e+00,-1.073337789190000002e+01,-3.296651124949999900e+00,-1.654959559439999950e+00,6.356633305550000168e-01,0.000000000000000000e+00
1.920012872000000037e+00,1.985057343629999804e-01,-3.494496605209999718e+00,-8.996936376139998970e+00,-2.892693996430000247e+00,-1.411719560620000147e+00,5.502851605420000514e-01,0.000000000000000000e+00
1.925007560000000062e+00,3.473133353059999484e-01,-4.053122713879999672e+00,-6.952946330010000509e+00,-2.612365007400000216e+00,-1.300709843639999974e+00,3.222247064109999837e-01,0.000000000000000000e+00
1.930069843000000063e+00,-1.370674605220000064e+00,-1.271162968370000090e+00,-6.979592929400000756e+00,-2.381224870680000105e+00,-1.324968457220000007e+00,-6.200107932090000162e-02,0.000000000000000000e+00
1.935009881000000043e+00,-4.056407142380000330e+00,-1.218940394510000136e+00,-1.149567860720000034e+01,-2.166074514389999983e+00,-1.173713922499999951e+00,-3.992168009279999930e-01,0.000000000000000000e+00
1.940014997000000019e+00,-4.018607573080000606e+00,-4.116045910780000483e+00,-1.284108550020000017e+01,-1.897437930109999726e+00,-9.080143570899998906e-01,-7.763295173649999992e-01,0.000000000000000000e+00
1.945006683999999986e+00,-1.915027419999999925e+00,-5.207936307849999835e+00,-1.209065759349999958e+01,-1.609237909320000215e+00,-3.560495376589999927e-01,-9.712995290760000344e-01,0.000000000000000000e+00
1.950006574999999964e+00,1.186270187450000069e-01,-5.152165320790000003e+00,-1.012851697860000044e+01,-1.504670500760000085e+00,9.187147021289998605e-02,-1.122685551639999835e+00,0.000000000000000000e+00
1.954961471999999922e+00,7.564145798739999593e-01,-5.695422887669999490e+00,-9.229170430039999928e+00,-1.580722212789999803e+00,4.039601683619999939e-01,-1.215708017349999892e+00,0.000000000000000000e+00
1.960027691999999933e+00,2.041801742300000111e+00,-6.291385624310000146e+00,-8.463069737930000613e+00,-1.756379604340000178e+00,5.708744525910000034e-01,-1.349839568140000168e+00,0.000000000000000000e+00
1.964975327000000105e+00,3.281696150579999749e+00,-5.931804124390000155e+00,-7.701238393710000629e+00,-1.889920473100000109e+00,4.939359426500000150e-01,-1.565487265589999843e+00,0.000000000000000000e+00
1.970010781000000044e+00,2.606795194040000041e+00,-5.098205767069999617e+00,-7.121357023300000755e+00,-1.945050716399999935e+00,4.508920907969999892e-01,-1.707574486729999785e+00,0.000000000000000000e+00
1.975060720999999964e+00,2.528931325379999873e+00,-4.384303756489999593e+00,-6.991593748310000578e+00,-1.946466803549999902e+00,3.996357917789999936e-01,-1.850502967830000012e+00,0.000000000000000000e+00
1.980135090000000098e+00,2.584292562599999954e+00,-3.714014385410000063e+00,-6.753762897319999681e+00,-1.900688529009999961e+00,3.877332806589999792e-01,-1.985608220099999821e+00,0.000000000000000000e+00
1.985038392000000096e+00,1.845568099320000099e+00,-3.525827563019999999e+00,-6.273205239969999347e+00,-1.818388581279999805e+00,4.630779623990000093e-01,-2.033894777300000012e+00,0.000000000000000000e+00
1.990128281999999915e+00,1.609586383320000147e+00,-3.281531023139999892e+00,-6.581407265790000238e+00,-1.701221704479999763e+00,6.533218026160000358e-01,-2.068446397779999835e+00,0.000000000000000000e+00
1.995028247999999893e+00,1.238796091639999819e+00,-3.160633483920000320e+00,-7.050425876510000300e+00,-1.569612264629999920e+00,8.534352183339999343e-01,-2.092101335530000217e+00,0.000000000000000000e+00
2.000045109000000210e+00,1.057536292039999992e+00,-2.967977699420000448e+00,-7.286133743999999801e+00,-1.439370512960000070e+00,1.008858561520000086e+00,-2.137965440749999946e+00,0.000000000000000000e+00
2.005050075999999848e+00,1.132500493740000058e+00,-2.874925613979999905e+00,-7.481066533519999950e+00,-1.354171991349999882e+00,1.136065602299999977e+00,-2.161551475520000043e+00,0.000000000000000000e+00
2.010117990999999993e+00,1.064357954760000169e+00,-3.306909794549999670e+00,-7.430650351489998862e+00,-1.300524115560000027e+00,1.264041781430000011e+00,-2.224090337749999868e+00,0.000000000000000000e+00
2.015054430000000174e+00,6.728909318829999764e-01,-3.451670732180000645e+00,-7.500552739749999809e+00,-1.263329505920000040e+00,1.415652632710000081e+00,-2.221881151199999849e+00,0.000000000000000000e+00
2.020042942999999980e+00,5.445629138620000642e-01,-3.488788164439999839e+00,-7.593546665269999885e+00,-1.231298089030000042e+00,1.622976064679999997e+00,-2.231660366059999845e+00,0.000000000000000000e+00
2.025169019999999875e+00,5.612483103980000498e-01,-3.511924125350000203e+00,-7.504843714949999800e+00,-1.234871387479999916e+00,1.846906661990000087e+00,-2.231072902680000247e+00,0.000000000000000000e+00
2.030097721000000188e+00,6.548415535160000411e-01,-3.571197859840000266e+00,-7.320040105260000374e+00,-1.256491780279999970e+00,2.011788129809999770e+00,-2.245652437209999963e+00,0.000000000000000000e+00
2.035049227000000016e+00,6.628429275339999815e-01,-3.568544422719999609e+00,-7.264477792510000143e+00,-1.280600905420000046e+00,2.137189388279999935e+00,-2.233638048170000001e+00,0.000000000000000000e+00
2.040022124000000048e+00,7.654306838919999745e-01,-3.496387825789999848e+00,-7.173141571069999500e+00,-1.279929399490000064e+00,2.261532783509999867e+00,-2.271024703980000226e+00,0.000000000000000000e+00
2.045031262999999822e+00,6.308923034560000032e-01,-3.341977600799999948e+00,-7.112171261810001255e+00,-1.281641602520000145e+00,2.349522352220000165e+00,-2.300991296770000361e+00,0.000000000000000000e+00
2.050238490999999996e+00,3.375122914549999464e-01,-3.132003017240000187e+00,-7.141078791860000941e+00,-1.258074641229999902e+00,2.452383518220000003e+00,-2.304992675779999889e+00,0.000000000000000000e+00
2.054997735999999797e+00,3.008610884709999808e-02,-3.056967942260000015e+00,-7.297945762350000365e+00,-1.234754443169999938e+00,2.533897638320000034e+00,-2.356854200359999929e+00,0.000000000000000000e+00
2.060031439999999936e+00,-4.431381003350000070e-01,-3.027744478120000249e+00,-7.389938986389999798e+00,-1.196953296660000055e+00,2.629929780959999963e+00,-2.374381780620000271e+00,0.000000000000000000e+00
2.065040513000000022e+00,-7.874901016179999269e-01,-3.119008218849999903e+00,-7.652223895169999679e+00,-1.149852633479999886e+00,2.740125417709999844e+00,-2.412475109099999848e+00,0.000000000000000000e+00
2.070060667999999993e+00,-1.190322495049999985e+00,-3.124179776259999652e+00,-7.871524817739999236e+00,-1.075718998910000002e+00,2.824856996540000331e+00,-2.452709674840000353e+00,0.000000000000000000e+00
2.075127657999999986e+00,-1.677629261329999899e+00,-3.188580352240000249e+00,-8.209069257899999528e+00,-1.024912357329999857e+00,2.940248012540000122e+00,-2.463224649429999857e+00,0.000000000000000000e+00
2.080055788000000128e+00,-2.064416163559999795e+00,-3.318692294539999921e+00,-8.433481239880000757e+00,-9.743535518649999450e-01,3.050071716309999736e+00,-2.483171463010000135e+00,0.000000000000000000e+00
2.085022876000000025e+00,-2.387491933380000209e+00,-3.486996020319999445e+00,-8.763509313060001915e+00,-9.280813932420000079e-01,3.205102443699999970e+00,-2.486611604690000199e+00,0.000000000000000000e+00
2.090102372000000042e+00,-2.592344643890000189e+00,-3.586998655559999971e+00,-9.007706191949999663e+00,-8.992298841479999805e-01,3.335866212840000511e+00,-2.500022649769999994e+00,0.000000000000000000e+00
2.095162703999999820e+00,-2.778004578140000014e+00,-3.655925184530000038e+00,-9.081444212859999254e+00,-8.648023009299999897e-01,3.492896080019999960e+00,-2.512692213059999791e+00,0.000000000000000000e+00
2.100026782000000036e+00,-2.870207645540000296e+00,-3.721623691369999598e+00,-9.266021612579999456e+00,-8.394111990929999934e-01,3.616188764569999492e+00,-2.493022680280000181e+00,0.000000000000000000e+00
2.105002416000000043e+00,-2.908728222599999746e+00,-3.751830613580000584e+00,-9.342950538480000233e+00,-8.202178478239999793e-01,3.745573759080000453e+00,-2.477328777309999897e+00,0.000000000000000000e+00
2.110113880000000108e+00,-3.010298253280000225e+00,-3.684202307730000125e+00,-9.403760104229998973e+00,-7.744228839869999881e-01,3.840629577640000125e+00,-2.457023143769999862e+00,0.000000000000000000e+00
2.115076111000000036e+00,-3.140518916650000047e+00,-3.619122809569999433e+00,-9.461385779239998683e+00,-7.053580284119999044e-01,3.932287693019999697e+00,-2.390101432799999870e+00,0.000000000000000000e+00
2.120068406000000127e+00,-3.213455558040000160e+00,-3.516694408500000257e+00,-9.633898062629999259e+00,-6.378840804099999984e-01,3.972558021549999818e+00,-2.347064018249999773e+00,0.000000000000000000e+00
2.125178502999999886e+00,-3.368030325940000402e+00,-3.404629579539999895e+00,-9.781042680529999700e+00,-5.752245783810000512e-01,4.026007652280000570e+00,-2.272405862809999899e+00,0.000000000000000000e+00
2.130112167000000056e+00,-3.509742689659999471e+00,-3.280098359990000212e+00,-1.002769279780000033e+01,-4.645195007320000458e-01,4.078222751619999364e+00,-2.206257343290000339e+00,0.000000000000000000e+00
2.135195890999999957e+00,-3.724941729869999829e+00,-3.088995650159999773e+00,-1.031629931179999993e+01,-3.659337162970000001e-01,4.111166954040000654e+00,-2.158129930499999904e+00,0.000000000000000000e+00
2.140072736000000031e+00,-4.099501603219999346e+00,-2.969234421489999942e+00,-1.062875314979999963e+01,-2.404330670829999683e-01,4.164687156680000335e+00,-2.078920364380000052e+00,0.000000000000000000e+00
2.145070617000000013e+00,-4.507967837819999879e+00,-2.987071691470000179e+00,-1.106348546010000078e+01,-1.148116588590000070e-01,4.186270236969999559e+00,-1.987603187559999762e+00,0.000000000000000000e+00
2.150099929000000021e+00,-5.117282807980000570e+00,-3.014223317769999966e+00,-1.142070432250000067e+01,4.660699516529999246e-03,4.246157169339999982e+00,-1.882875204090000087e+00,0.000000000000000000e+00
2.155049656000000091e+00,-5.439414574949999803e+00,-3.174094146249999859e+00,-1.177449204150000028e+01,1.125842556359999969e-01,4.291502475739999767e+00,-1.808657288549999853e+00,0.000000000000000000e+00
2.160070231999999812e+00,-5.919162669480000361e+00,-3.307312530129999928e+00,-1.208354162400000043e+01,2.257096022370000121e-01,4.373781681059999649e+00,-1.697087168689999981e+00,0.000000000000000000e+00
2.165207849000000184e+00,-6.284354995020000167e+00,-3.563269989449999731e+00,-1.242357788099999993e+01,3.050890862940000003e-01,4.413163661959999651e+00,-1.614480137829999995e+00,0.000000000000000000e+00
2.170088622000000189e+00,-6.691481505449999645e+00,-3.707159404950000070e+00,-1.272226505949999975e+01,3.688587248330000290e-01,4.463381767269999578e+00,-1.525490522380000158e+00,0.000000000000000000e+00
2.175196335999999953e+00,-7.016886010479999491e+00,-3.939759954069999459e+00,-1.296753745869999896e+01,4.111225605009999895e-01,4.494766235350000194e+00,-1.477352619169999937e+00,0.000000000000000000e+00
2.180095833999999844e+00,-7.467717807120000550e+00,-4.215833441970000095e+00,-1.315272685279999898e+01,4.266186654570000014e-01,4.513307571409999497e+00,-1.409664630889999826e+00,0.000000000000000000e+00
2.185035303999999901e+00,-7.793962854630000159e+00,-4.491473214610000042e+00,-1.330006260940000118e+01,4.374603629110000447e-01,4.533493995669999777e+00,-1.400318861010000138e+00,0.000000000000000000e+00
2.190131045999999859e+00,-8.361664542419999790e+00,-4.534414822980000537e+00,-1.339193775999999936e+01,4.615639746190000059e-01,4.524690628050000107e+00,-1.367099642749999955e+00,0.000000000000000000e+00
2.195064164999999790e+00,-8.752610902419998951e+00,-4.445037334390000261e+00,-1.344683021059999994e+01,4.506402909760000020e-01,4.504679679869999731e+00,-1.396396994589999885e+00,0.000000000000000000e+00
2.200084514999999907e+00,-9.176965026510000456e+00,-4.522007469090000065e+00,-1.346584587680000134e+01,4.593440592290000124e-01,4.494441032410000147e+00,-1.450481772420000093e+00,0.000000000000000000e+00
2.205022956000000089e+00,-9.580243044810000441e+00,-4.662050146030000342e+00,-1.347019471960000025e+01,4.779979586600000552e-01,4.481823921200000171e+00,-1.517086982729999978e+00,0.000000000000000000e+00
2.210259356999999980e+00,-9.803417009430001272e+00,-4.692923715460000089e+00,-1.343045073829999936e+01,4.803213477130000020e-01,4.451973915099999957e+00,-1.597703456879999928e+00,0.000000000000000000e+00
2.215075193000000109e+00,-1.005241924279999921e+01,-4.729034601020000395e+00,-1.346007080049999871e+01,5.116800665860000707e-01,4.415448665619999602e+00,-1.695688247680000149e+00,0.000000000000000000e+00
2.220076308999999970e+00,-1.042574752850000053e+01,-4.940339264140000353e+00,-1.357807291049999954e+01,5.226742029190000194e-01,4.364764213559999995e+00,-1.807922363279999889e+00,0.000000000000000000e+00
2.225182515999999833e+00,-1.112621284210000105e+01,-5.221175728650000458e+00,-1.360028591140000032e+01,5.147695541379999629e-01,4.285924434659999172e+00,-1.912491321559999902e+00,0.000000000000000000e+00
2.230076250000000204e+00,-1.194665828790000006e+01,-5.223924150580000259e+00,-1.330818512549999966e+01,4.997511208059999821e-01,4.213794231409999647e+00,-2.033890008930000270e+00,0.000000000000000000e+00
2.235210594000000217e+00,-1.274597560539999996e+01,-5.229108859740000170e+00,-1.300648181410000070e+01,4.714275002480000087e-01,4.078948020940000418e+00,-2.165341615680000054e+00,0.000000000000000000e+00
2.240092413999999810e+00,-1.346579560789999874e+01,-5.195777083500000337e+00,-1.246742169890000085e+01,4.545713663100000579e-01,3.968143463130000104e+00,-2.287361621859999694e+00,0.000000000000000000e+00
2.245036450000000183e+00,-1.389541568970000007e+01,-4.822292438169999862e+00,-1.169000758560000008e+01,4.543689489359999945e-01,3.878510713580000324e+00,-2.418028593059999842e+00,0.000000000000000000e+00
2.250114153999999811e+00,-1.395254569009999912e+01,-2.647003870309999840e+00,-1.062740524240000006e+01,4.706424772739999929e-01,3.744936943049999911e+00,-2.538870334629999892e+00,0.000000000000000000e+00
2.254985394000000198e+00,-1.352722768940000009e+01,-3.041106831179999914e-01,-9.937273106689998414e+00,5.508550405500000080e-01,3.579677820209999695e+00,-2.662288904190000416e+00,0.000000000000000000e+00
2.260073862000000045e+00,-1.328784843999999943e+01,6.447477372640000315e-01,-9.614792964670000330e+00,6.456316709520000252e-01,3.372144222260000213e+00,-2.806576967240000275e+00,0.000000000000000000e+00
2.265195369999999819e+00,-1.357527772690000134e+01,6.249804490640000765e-01,-9.372652433780000791e+00,7.914209365840000343e-01,3.120160341260000081e+00,-2.929354190830000260e+00,0.000000000000000000e+00
2.270094514000000174e+00,-1.402159058480000020e+01,4.603700248390000249e-01,-9.407284771220000508e+00,8.896087408069999203e-01,2.812550544740000547e+00,-2.977499008180000128e+00,0.000000000000000000e+00
2.275184431000000007e+00,-1.428551741549999932e+01,8.732689446569999459e-02,-9.432201770339998959e+00,8.851596117020000820e-01,2.547898054120000033e+00,-2.992362737659999716e+00,0.000000000000000000e+00
2.280074716000000112e+00,-1.489595583680000068e+01,-4.323295599429999858e-01,-9.485539392769998912e+00,7.936809659000000350e-01,2.316626310349999773e+00,-2.957978963850000031e+00,0.000000000000000000e+00
2.285077906000000159e+00,-1.498562967799999868e+01,-1.060819624559999896e+00,-9.731277655890000489e+00,6.098700165749999513e-01,2.133814573290000460e+00,-2.951948404309999940e+00,0.000000000000000000e+00
2.290087944999999792e+00,-1.527937413939999978e+01,-1.300040980070000129e+00,-9.819915139760000855e+00,3.758764564989999779e-01,2.023339509960000004e+00,-2.891637563709999803e+00,0.000000000000000000e+00
2.295065759999999955e+00,-1.541061567020000034e+01,-1.128675090239999790e+00,-9.572765840800000703e+00,1.089771538969999953e-01,1.955930113790000036e+00,-2.816464662550000053e+00,0.000000000000000000e+00
2.299977659000000063e+00,-1.527438582959999991e+01,-5.664349923210000304e-01,-8.982563567389998838e+00,-1.299391537900000115e-01,1.892707943920000302e+00,-2.715216875080000314e+00,0.000000000000000000e+00
2.305033311999999945e+00,-1.508715645400000049e+01,2.471258998210000002e-01,-8.332359537480000355e+00,-2.828705608839999774e-01,1.801480531690000220e+00,-2.589799880979999802e+00,0.000000000000000000e+00
2.310138289000000178e+00,-1.504517141569999872e+01,1.085992498129999984e+00,-7.693167315449999322e+00,-3.379699289800000006e-01,1.695347666740000037e+00,-2.426301956180000108e+00,0.000000000000000000e+00
2.315063952000000036e+00,-1.500530819190000109e+01,1.703690754300000165e+00,-7.067582178489999478e+00,-3.034995496269999871e-01,1.564004778860000000e+00,-2.249392747879999988e+00,0.000000000000000000e+00
2.320053595000000080e+00,-1.502085647420000036e+01,2.126858006690000469e+00,-6.538153230479999856e+00,-2.053179442880000150e-01,1.405105948449999920e+00,-2.056151151659999954e+00,0.000000000000000000e+00
2.325058502000000082e+00,-1.507654738170000108e+01,2.469539809740000091e+00,-5.855702881480000066e+00,-7.763384282589999574e-02,1.233021974559999956e+00,-1.862669467929999767e+00,0.000000000000000000e+00
2.330067677000000170e+00,-1.496319923499999938e+01,2.565369250939999901e+00,-5.194287137199999904e+00,3.218337148429999822e-02,1.029118299479999887e+00,-1.689727425579999887e+00,0.000000000000000000e+00
2.335191148999999911e+00,-1.473270354920000003e+01,2.402160510209999877e+00,-4.732260577330000828e+00,7.762896269560000395e-02,8.488305211069999689e-01,-1.540115475649999954e+00,0.000000000000000000e+00
2.340021679999999993e+00,-1.450683961480000050e+01,2.021435684490000106e+00,-4.534235667019999916e+00,9.919534623619999381e-02,6.554716229439999653e-01,-1.419041156770000089e+00,0.000000000000000000e+00
2.345073699999999928e+00,-1.440835001449999986e+01,1.570910615710000124e+00,-4.487913768570000350e+00,5.712106823919999715e-02,4.569039642809999968e-01,-1.332081437110000044e+00,0.000000000000000000e+00
2.350240249000000059e+00,-1.437044961520000008e+01,1.299735128989999877e+00,-4.485972279110000294e+00,-4.212454706430000112e-02,2.566414773460000132e-01,-1.265998363489999834e+00,0.000000000000000000e+00
2.355040409999999973e+00,-1.421748257469999999e+01,1.080476365059999999e+00,-4.486449248969999637e+00,-1.617373526099999959e-01,8.004252612589998761e-02,-1.222007274629999918e+00,0.000000000000000000e+00
2.360077865000000052e+00,-1.405843183040000000e+01,9.864210939219999474e-01,-4.586934407030000216e+00,-3.029466271400000354e-01,-8.220486342910000854e-02,-1.200922489170000107e+00,0.000000000000000000e+00
2.365136753999999897e+00,-1.380625739680000130e+01,1.154423571739999987e+00,-4.617181368989999868e+00,-4.616133272649999841e-01,-1.989399641750000114e-01,-1.217314600939999991e+00,0.000000000000000000e+00
2.370081834000000054e+00,-1.347795015609999858e+01,1.291627664249999974e+00,-4.711029865509999581e+00,-5.765388011930000500e-01,-2.952257394789999934e-01,-1.236962795259999970e+00,0.000000000000000000e+00
2.375205196000000019e+00,-1.301176823009999950e+01,1.479035172829999967e+00,-4.839131637030000377e+00,-6.117194890980000022e-01,-3.868940770629999970e-01,-1.238497614859999985e+00,0.000000000000000000e+00
2.380092107999999929e+00,-1.199678805420000138e+01,1.431755973650000069e+00,-5.072375160240000014e+00,-6.467553377149999339e-01,-4.663563072680000365e-01,-1.240247011179999914e+00,0.000000000000000000e+00
2.385065862999999897e+00,-1.585810926230000106e+01,2.979969750510000015e+00,-1.061404073389999958e+01,-5.566704869269999412e-01,-8.948104977609999677e-01,-1.130674958229999971e+00,0.000000000000000000e+00
2.390208292000000068e+00,-1.352230367700000002e+01,1.454460849670000000e+00,-3.338732919790000420e+00,-5.882558822629999629e-01,-1.375710844989999737e+00,-1.101622581479999807e+00,0.000000000000000000e+00
2.395048071000000167e+00,-9.898217692110000243e+00,-1.214781594329999992e+00,-1.090266302999999937e+00,-4.107407331469999923e-01,-1.426178216929999909e+00,-9.752834439280000378e-01,0.000000000000000000e+00
2.400021521000000213e+00,-9.514275657909999850e+00,-5.393996128140000623e-01,-3.129075439350000210e+00,-1.732044070960000182e-01,-1.803321361540000112e+00,-8.148545026780000811e-01,0.000000000000000000e+00
2.405047011999999818e+00,-1.332566583720000075e+01,-9.542181025179999887e-01,-3.228513134179999966e+00,-1.604409813880000035e-01,-1.906344175340000113e+00,-5.684584975240000171e-01,0.000000000000000000e+00
2.410152032000000055e+00,-1.464213188239999930e+01,-3.034034810440000118e+00,-5.253746457390000124e+00,-8.680836111310001602e-02,-2.095141410830000162e+00,-3.543471395970000382e-01,0.000000000000000000e+00
2.415056792000000119e+00,-1.028385483980000004e+01,-2.400370411920000002e+00,-5.537528912219999988e+00,-1.204221397639999858e-01,-2.343806505199999890e+00,-2.928107082840000208e-01,0.000000000000000000e+00
2.420058839000000184e+00,-2.849650595209999526e+00,-2.993577420099999831e+00,-5.822093457339999389e+00,-1.221994385119999915e-01,-1.933538675309999899e+00,-1.947241276499999951e-01,0.000000000000000000e+00
2.425033833000000083e+00,-1.644843720800000186e+00,-3.667506316730000382e+00,-1.052073350460000078e+01,-2.311871647830000265e-01,-1.644911646839999797e+00,-1.419825404880000197e-01,0.000000000000000000e+00
2.430017337999999860e+00,1.156379966500000078e+00,-5.927082356560000598e+00,-1.443410404890000187e+01,-4.750251471999999975e-01,-1.327707052229999851e+00,3.915148973460000348e-02,0.000000000000000000e+00
2.435054979999999869e+00,4.452077316030000453e+00,-4.776110824969999946e+00,-1.599109149940000130e+01,-6.971626281739999875e-01,-1.093974709510000087e+00,6.163618341090000563e-02,0.000000000000000000e+00
2.440003314000000145e+00,5.223174793510000136e+00,-2.372432895940000286e+00,-1.593179526079999953e+01,-1.032164096829999878e+00,-1.374316930770000278e+00,-3.599798679349999753e-02,0.000000000000000000e+00
2.445036374999999929e+00,3.012022885120000382e+00,-5.756271104929999716e-01,-1.347756437160000154e+01,-1.382740974429999881e+00,-1.887687444690000049e+00,-1.381846368309999906e-01,0.000000000000000000e+00
2.450268573999999866e+00,3.508329973319999628e-01,1.394437758120000037e+00,-1.127380461929999989e+01,-1.629536390299999971e+00,-2.479825496669999740e+00,-2.616551816459999902e-01,0.000000000000000000e+00
2.455081659999999832e+00,-4.220023002609999629e+00,2.364608924320000138e+00,-9.331604384080000258e+00,-1.655947923659999876e+00,-3.062143087390000407e+00,-3.217289447780000144e-01,0.000000000000000000e+00
2.460042150000000039e+00,-6.409210039700000472e+00,4.049916611319999582e+00,-9.251365310710001566e+00,-1.472784519199999975e+00,-3.390152215959999715e+00,-4.931883513930000462e-01,0.000000000000000000e+00
2.465074897000000043e+00,-7.556907664179999706e+00,5.618399853749999728e+00,-1.028279451710000103e+01,-1.071788310999999938e+00,-3.416769742969999690e+00,-6.245285868639999238e-01,0.000000000000000000e+00
2.470152226000000173e+00,-8.686432503119998927e+00,7.160037759349999753e+00,-1.264892743609999926e+01,-6.331036090849999631e-01,-3.003591299059999553e+00,-5.979050993919999835e-01,0.000000000000000000e+00
2.475201484999999924e+00,-6.737326726300000068e+00,6.186247672009999476e+00,-1.236608664599999940e+01,-3.044447600840000101e-01,-2.602497100829999965e+00,-6.066002845760000151e-01,0.000000000000000000e+00
2.480088233000000031e+00,-6.669279025989999887e+00,5.725749636880000715e+00,-1.215044950670000112e+01,8.960892446339999498e-03,-2.038295745850000174e+00,-3.758521378040000083e-01,0.000000000000000000e+00
2.485023475999999842e+00,-5.715861280069999495e+00,4.607494964499999845e+00,-1.157476324990000016e+01,8.814460039139998537e-02,-1.523784279819999865e+00,-7.472389936449999603e-02,0.000000000000000000e+00
2.490214692999999979e+00,-2.881021008239999848e+00,4.423642956450000163e+00,-1.093835335200000003e+01,1.120053008200000005e-01,-1.362057685849999977e+00,1.678055375810000027e-01,0.000000000000000000e+00
2.495057026000000011e+00,-2.716494170649999873e+00,5.376107347170000494e+00,-1.016371221059999996e+01,1.221270561219999912e-01,-1.450531959529999693e+00,3.057181835170000306e-01,0.000000000000000000e+00
2.500046331000000066e+00,-2.581550570409999690e+00,4.497884835219999822e+00,-1.011628527350000084e+01,2.220788300039999996e-01,-1.660272598270000177e+00,3.261096179490000080e-01,0.000000000000000000e+00
2.505037547000000142e+00,-4.083984592869999375e+00,2.599360075609999932e+00,-1.181090074089999931e+01,3.183858394619999976e-01,-1.988836646079999770e+00,2.399862408639999722e-01,0.000000000000000000e+00
2.510151411999999915e+00,-8.177513259159999492e+00,-3.416366194570000125e+00,-1.559388432539999947e+01,1.935210675000000047e-01,-2.166715383529999706e+00,2.301850169900000187e-01,0.000000000000000000e+00
2.515057869000000057e+00,-1.181310906460000076e+01,-5.964407001830000610e+00,-1.438476689430000022e+01,8.918234705920000116e-02,-2.116966962809999853e+00,2.173666357990000075e-01,0.000000000000000000e+00
2.520043063000000139e+00,-1.344988842920000138e+01,-2.842221029729999682e+00,-1.190585632189999998e+01,-5.403933674100000473e-02,-1.880457878109999870e+00,2.084771990779999973e-01,0.000000000000000000e+00
2.525210174000000141e+00,-7.476769713110001270e+00,-5.995079349600000995e-01,-1.302635322029999898e+01,-2.492821067570000215e-01,-1.191080689429999895e+00,7.541619241239999605e-02,0.000000000000000000e+00
2.530113071000000158e+00,-4.900747842990000436e+00,7.916955904829999779e-01,-9.555359947969998657e+00,-2.551105916499999959e-01,-2.242662310599999875e-01,8.310464024539999939e-02,0.000000000000000000e+00
2.535083129999999851e+00,-3.516348956059999864e+00,1.896529348010000060e+00,-9.763136436970000887e+00,-1.888991743329999917e-01,3.603909015660000104e-01,1.659576445819999913e-01,0.000000000000000000e+00
2.540075735999999917e+00,-2.979585135109999783e+00,1.373775639979999852e+00,-9.775410812130001403e+00,-1.260289251800000010e-01,6.426617503170000134e-01,2.150722146029999948e-01,0.000000000000000000e+00
2.545051144999999959e+00,-3.742155607259999961e+00,1.375459190880000127e-01,-9.605824645320000243e+00,-2.133430540559999589e-02,2.758490741250000378e-01,2.416086196899999983e-01,0.000000000000000000e+00
2.550134712999999831e+00,-3.674543375759999897e+00,-7.700156735950000053e-01,-9.999119029750000109e+00,3.647045418619999924e-02,-2.292174547910000026e-01,9.042716771360000128e-02,0.000000000000000000e+00
2.555056556999999895e+00,-3.252496067320000073e+00,-1.430174403549999917e+00,-9.513163897280000114e+00,8.052295446399999890e-02,-5.371764898299999924e-01,-1.131185516720000124e-02,0.000000000000000000e+00
2.560215364999999910e+00,-2.845065897759999629e+00,-7.239216656139999539e-01,-9.611636546469998876e+00,6.743782013650000129e-02,-7.209197878839999074e-01,-6.385076045989999949e-02,0.000000000000000000e+00
2.565052613000000203e+00,-3.468284890109999630e+00,1.444232301120000062e-01,-9.830997674789999863e+00,8.523614145820000709e-03,-5.905516743659999790e-01,-7.792516797780001114e-02,0.000000000000000000e+00
2.570125613000000087e+00,-4.029835654059999328e+00,4.492052183550000466e-01,-9.870842193930000619e+00,-3.131119161839999998e-02,-2.852272391319999878e-01,-6.621132045979999381e-02,0.000000000000000000e+00
2.575202222999999790e+00,-3.834110837380000358e+00,1.188637501099999993e-01,-9.618644379400000943e+00,-1.774510368700000021e-02,-8.598887920379999494e-02,-5.883884802460000174e-02,0.000000000000000000e+00
2.580051500000000164e+00,-3.599081892059999621e+00,-1.960362755099999965e-01,-9.440399689839999553e+00,4.402367398140000221e-02,5.185496807099999883e-02,5.686001386489999282e-03,1.000000000000000000e+00
2.585051759999999810e+00,-2.761961205840000044e+00,-3.004399404499999982e-01,-9.475976614649999519e+00,5.346968024969999539e-02,7.870919257399999758e-02,6.957384943960000234e-02,1.000000000000000000e+00
2.590279729999999780e+00,-2.344351587579999840e+00,1.877968732189999879e-01,-9.430496719980000719e+00,2.714440412820000315e-02,-2.642122097309999515e-02,6.487294286490000172e-02,1.000000000000000000e+00
2.595076667999999920e+00,-2.382715220500000175e+00,3.950274553019999524e-01,-9.455472171289999395e+00,9.444748982790001496e-03,-1.783709228039999928e-01,1.076052524149999877e-02,1.000000000000000000e+00
2.600082444999999964e+00,-2.488537063409999917e+00,-8.058638896330000412e-02,-9.360653368430000398e+00,9.640151401980000517e-04,-2.641784548760000018e-01,-6.434087455270000311e-02,1.000000000000000000e+00
2.604995139000000126e+00,-2.815155620410000115e+00,-2.912488817240000416e-01,-9.301238471910000527e+00,1.651263050730000098e-02,-2.831835746770000051e-01,-6.725813448430000008e-02,1.000000000000000000e+00
2.610142847000000099e+00,-2.968567482009999647e+00,-3.285281900109999764e-01,-9.374290264109999882e+00,2.558975666759999781e-02,-2.382719367739999927e-01,-2.423048205669999997e-02,1.000000000000000000e+00
2.615046637999999923e+00,-2.728701910309999423e+00,-3.411179147319999827e-01,-9.360128467770000071e+00,-5.796265322720000127e-03,-1.364308148619999828e-01,1.278001256289999950e-02,1.000000000000000000e+00
2.620078949999999907e+00,-2.394891834380000084e+00,-4.797388517739999969e-01,-9.448948907000000119e+00,-2.539507858459999837e-02,-1.065832078460000054e-01,3.142837435009999958e-02,1.000000000000000000e+00
2.625195584000000082e+00,-2.360681813999999878e+00,-7.829759121289999735e-01,-9.434127769959999910e+00,-8.089432865380000170e-02,-1.333983391520000006e-01,4.121565446259999738e-02,1.000000000000000000e+00
2.630081899999999973e+00,-2.633320505140000378e+00,-8.314122454520000982e-01,-9.386571653539999005e+00,-8.549121767280001838e-02,-1.727517992260000079e-01,3.236223757270000057e-02,0.000000000000000000e+00
2.635026171999999889e+00,-2.986618979269999752e+00,-4.170202375320000154e-01,-9.325483270850000395e+00,-1.182297766209999962e-01,-2.581906914709999890e-01,4.329956695440000114e-02,0.000000000000000000e+00
2.639996468000000096e+00,-3.176863318700000161e+00,9.250891847980000082e-02,-9.367809669919999749e+00,-1.234381198880000058e-01,-3.158338367940000113e-01,3.478102013469999698e-02,0.000000000000000000e+00
2.645037610000000150e+00,-3.293742562200000279e+00,4.562744991539999795e-01,-9.450937450469998780e+00,-1.161447018380000057e-01,-3.172419965269999698e-01,1.185260340569999939e-02,0.000000000000000000e+00
2.650208155000000065e+00,-3.406395127910000209e+00,4.703315930139999601e-01,-9.496138528200001261e+00,-1.016692668200000066e-01,-2.546462118629999605e-01,2.117116935550000106e-02,0.000000000000000000e+00
2.655053125999999875e+00,-3.480921376590000449e+00,3.007973573189999805e-01,-9.462918980159999549e+00,-6.869099289180000123e-02,-1.695922762159999819e-01,3.029124997559999935e-02,1.000000000000000000e+00
2.660033655999999969e+00,-3.363505834260000160e+00,2.523243452469999815e-01,-9.385693117140000652e+00,-4.487371072169999558e-02,-1.252615004779999985e-01,3.284728899600000002e-02,1.000000000000000000e+00
2.665053555000000074e+00,-3.332766120340000526e+00,3.598068696430000157e-01,-9.327396410989999609e+00,-8.717253804210000137e-03,-1.058685854079999961e-01,2.980209700760000011e-02,1.000000000000000000e+00
2.670111785000000015e+00,-3.251656401620000025e+00,5.977895867339999558e-01,-9.669679570110000455e+00,-2.498307824129999966e-02,-9.680132567880000982e-02,5.765371024609999839e-02,1.000000000000000000e+00
2.675165741999999902e+00,-2.934300470749999779e+00,4.232232934229999688e-01,-9.413270859889999898e+00,-1.412861607970000016e-02,-1.550992578270000144e-01,3.066037036479999853e-02,1.000000000000000000e+00
2.680070397000000160e+00,-3.170309367020000213e+00,3.770478907689999715e-01,-9.469290853280000420e+00,2.132643386720000159e-02,-1.530026197430000012e-01,2.467983774840000130e-02,1.000000000000000000e+00
2.685050384999999817e+00,-3.138497347689999994e+00,1.748963472489999949e-01,-9.448592933169999597e+00,4.905511438849999295e-02,-1.758231073620000195e-01,2.066222205759999861e-02,1.000000000000000000e+00
2.690076826999999948e+00,-3.050941813840000183e+00,1.268394873630000197e-01,-9.329200830070000450e+00,7.926116883750000675e-02,-1.602884382009999997e-01,1.809415407479999724e-02,1.000000000000000000e+00
2.695019793999999802e+00,-3.145459587920000022e+00,1.216330321609999932e-01,-9.394986430660001275e+00,4.514046013359999943e-02,-1.569809764619999881e-01,4.653247445820000300e-02,1.000000000000000000e+00
2.699999220000000033e+00,-2.980488513690000119e+00,1.954108188210000041e-01,-9.349541022780000432e+00,5.530994758010000095e-02,-1.566255688669999924e-01,4.215373098849999750e-02,1.000000000000000000e+00
2.705002330000000121e+00,-3.040064445990000586e+00,1.368425474589999857e-01,-9.395900622899999277e+00,3.335995972159999656e-02,-1.544547080989999988e-01,5.176033452150000103e-02,1.000000000000000000e+00
2.710072514000000155e+00,-2.923857402670000383e+00,-4.164049917109999971e-02,-9.376277054019999113e+00,2.566287480290000214e-02,-1.406092047689999902e-01,3.603955730800000035e-02,1.000000000000000000e+00
2.715037478999999809e+00,-2.964161648270000171e+00,-1.144990338289999937e-01,-9.269861336869999136e+00,2.841039095070000114e-03,-1.340082287790000104e-01,4.592077806590000311e-02,1.000000000000000000e+00
2.720042251000000189e+00,-2.872036030020000297e+00,-1.087671391129999970e-01,-9.257052124179999453e+00,-3.625690937039999836e-03,-1.396137773989999942e-01,5.527623742819999519e-02,1.000000000000000000e+00
2.725188034999999953e+00,-2.780211732799999780e+00,3.445609952569999440e-02,-9.300102745880000299e+00,-1.206860318779999844e-02,-1.640401631589999965e-01,6.412464380259999541e-02,1.000000000000000000e+00
2.730144425000000208e+00,-2.783353245689999866e+00,9.849624926110001066e-02,-9.326488648499999812e+00,-2.878940291699999890e-02,-1.722806543110000088e-01,6.899550557139999540e-02,1.000000000000000000e+00
2.735202075000000121e+00,-2.849405096009999916e+00,2.069996411380000123e-01,-9.321856897039999978e+00,-3.771812841299999886e-02,-1.826514005660000162e-01,7.553304731849999620e-02,1.000000000000000000e+00
2.740053292999999890e+00,-2.914157846430000198e+00,2.715362828530000217e-01,-9.325523018340000192e+00,-3.541891649369999923e-02,-1.876837760210000039e-01,6.680922210219999990e-02,1.000000000000000000e+00
2.745037552999999964e+00,-3.037182753069999741e+00,3.112344157849999959e-01,-9.311243733089998642e+00,-5.234957486390000303e-02,-1.940113753080000003e-01,7.482943683860000805e-02,1.000000000000000000e+00
2.750124031999999996e+00,-3.038755116960000002e+00,3.106264034219999859e-01,-9.263353270150000540e+00,-2.457501925529999992e-02,-1.926979273559999706e-01,5.988222733140000087e-02,1.000000000000000000e+00
2.755042368999999880e+00,-3.080652769229999866e+00,2.353382669970000285e-01,-9.311231458130000860e+00,-1.687179878349999787e-02,-1.787219196559999834e-01,5.764386802910000107e-02,1.000000000000000000e+00
2.760200162999999929e+00,-3.086623075809999506e+00,1.532800153830000123e-01,-9.299439898050000153e+00,-1.517456024889999970e-02,-1.783472746610000048e-01,7.121895998720000065e-02,1.000000000000000000e+00
2.765061776000000027e+00,-2.977432048729999448e+00,2.266806940929999847e-01,-9.320382732839998852e+00,-2.565148659050000071e-02,-1.747273653750000266e-01,5.225823819640000589e-02,1.000000000000000000e+00
2.770108517999999798e+00,-3.056428720809999611e+00,2.383672411630000099e-01,-9.357703286450000491e+00,-3.146262839440000514e-02,-1.559972167020000078e-01,5.712144449350000514e-02,1.000000000000000000e+00
2.775202065000000218e+00,-3.114805506459999762e+00,2.480340641750000130e-01,-9.373331648220000645e+00,-4.386189952490000127e-02,-1.716540455820000088e-01,5.096766725179999874e-02,1.000000000000000000e+00
2.780198576000000088e+00,-3.223151899409999910e+00,3.786461928109999819e-01,-9.305579715980000444e+00,-5.425069853659999358e-02,-1.654991358520000178e-01,4.631633684039999921e-02,1.000000000000000000e+00
2.785087154999999814e+00,-3.229291425080000000e+00,5.046082123530000185e-01,-9.339639221969999738e+00,-4.974701628089999578e-02,-1.726573556659999897e-01,1.955214142799999860e-02,1.000000000000000000e+00
2.790062999999999960e+00,-3.434602400740000228e+00,6.422367773569999105e-01,-9.299593627310001054e+00,-4.669102653860000146e-02,-1.451417952780000020e-01,2.662136405709999987e-02,1.000000000000000000e+00
2.795070044000000031e+00,-3.294199950579999481e+00,5.222005676669999596e-01,-9.250135476660000577e+00,-4.277761653070000225e-02,-1.093144640330000056e-01,9.322393685579999020e-03,1.000000000000000000e+00
2.800072821000000101e+00,-3.232493435990000386e+00,2.957300822589999933e-01,-9.281230287619999686e+00,-3.611817210909999687e-02,-1.019472479819999999e-01,-9.636326693000000013e-03,1.000000000000000000e+00
2.805035375000000109e+00,-3.182041890390000294e+00,6.793274586030000062e-02,-9.326733563169998575e+00,-3.435603529209999701e-02,-8.193830400710000461e-02,-2.272486872970000057e-02,1.000000000000000000e+00
2.810253481000000164e+00,-3.104353086029999709e+00,6.077215634880001049e-02,-9.423958258130001653e+00,-4.669189453119999833e-02,-5.436809360980000144e-02,-2.256563678380000063e-02,1.000000000000000000e+00
2.815083592000000134e+00,-3.141658442070000223e+00,8.246585516750000455e-02,-9.392968661099999395e+00,-7.501234859230000718e-02,-6.279385834929999965e-02,-5.590579472479999604e-03,1.000000000000000000e+00
2.820065712999999974e+00,-3.232821645030000024e+00,2.331582378100000019e-01,-9.353163889460001101e+00,-6.114095076920000177e-02,-7.438340038059999826e-02,-1.037705410270000142e-02,1.000000000000000000e+00
2.825191462999999903e+00,-3.222039554250000215e+00,3.002407098170000177e-01,-9.304314226089999806e+00,-6.827055662870000485e-02,-4.766049981119999807e-02,-2.798920124770000115e-02,1.000000000000000000e+00
2.830074235000000105e+00,-3.083159491350000003e+00,2.447531793400000155e-01,-9.445923421699999878e+00,-7.142256200310000136e-02,-4.434236139060000054e-02,-1.153431460260000152e-02,1.000000000000000000e+00
2.835029766999999978e+00,-3.153477474679999837e+00,4.345559307549999861e-01,-9.545776127070000783e+00,-4.770072922109999669e-02,-4.327534139159999738e-02,-1.027586683629999782e-02,1.000000000000000000e+00
2.840166146000000058e+00,-3.077570000780000203e+00,4.358895905120000469e-01,-9.502340889970000148e+00,-4.737737402319999735e-02,-5.118547379970000283e-02,-1.469893381000000020e-02,1.000000000000000000e+00
2.845039749000000118e+00,-3.088064799049999642e+00,3.601217077459999971e-01,-9.465691952010001131e+00,-4.076454043390000115e-02,-3.121760673820000304e-02,-1.923593506220000124e-02,1.000000000000000000e+00
2.850214768999999926e+00,-3.018141368000000213e+00,3.045077926770000110e-01,-9.537917814780000114e+00,-2.175846509640000370e-02,-5.666724219920000333e-02,-2.032017521559999901e-02,1.000000000000000000e+00
2.855014718000000062e+00,-2.995836012689999883e+00,3.230072346319999843e-01,-9.434968896960000961e+00,1.972996257249999899e-02,-8.751313388350000222e-02,4.686140455309999327e-04,1.000000000000000000e+00
2.860031023999999977e+00,-3.136665456090000248e+00,3.190952853530000244e-01,-9.409559730419999823e+00,4.932267963890000356e-02,-9.174437820910001651e-02,3.988045267760000762e-03,1.000000000000000000e+00
2.864920337000000039e+00,-3.121794926949999827e+00,1.636172484689999984e-01,-9.499691836760002062e+00,4.198274388910000487e-02,-1.267335563900000017e-01,1.014314591879999887e-02,1.000000000000000000e+00
2.870120459999999873e+00,-2.950748039940000123e+00,1.151835911599999873e-01,-9.519258707020000543e+00,4.625317826869999871e-02,-1.587397307160000048e-01,2.691772393879999711e-02,1.000000000000000000e+00
2.875170596999999884e+00,-3.063719462340000366e+00,7.874591219569999911e-02,-9.521277061099999273e+00,5.066216364500000097e-02,-1.805609762669999896e-01,3.696527704600000019e-02,1.000000000000000000e+00
2.880197050000000036e+00,-3.125902654529999936e+00,1.080054089089999871e-02,-9.435998240010000870e+00,2.543666958809999781e-02,-1.921068876979999951e-01,3.561730682849999913e-02,0.000000000000000000e+00
2.885031371999999816e+00,-2.880084604179999896e+00,-2.217661801749999939e-01,-9.255201527880000612e+00,3.299614042039999973e-02,-2.133279889820000053e-01,5.189814791079999656e-02,0.000000000000000000e+00
2.890099134000000181e+00,-3.018806553909999746e+00,2.504237905889999949e-02,-9.515592585730001218e+00,3.775965794919999841e-02,-2.652921378609999770e-01,7.175617665050000593e-02,0.000000000000000000e+00
2.895167244000000029e+00,-3.186934046340000215e+00,3.974622812340000005e-02,-9.538043486989998598e+00,5.921472981570000127e-02,-2.565316855909999805e-01,8.832377195360001376e-02,0.000000000000000000e+00
2.900091057000000028e+00,-2.785072032310000001e+00,2.193591920980000054e-01,-9.645328972710000670e+00,4.992455616589999701e-02,-2.870095968249999907e-01,1.051830500359999948e-01,0.000000000000000000e+00
2.905040456000000049e+00,-3.083685561050000246e+00,2.877130677140000287e-02,-9.662746555980000096e+00,3.232311829919999602e-02,-3.267771899699999927e-01,1.233996376400000039e-01,0.000000000000000000e+00
2.910126600999999980e+00,-3.142881846389999900e+00,1.194648395419999898e-01,-9.533919100529999469e+00,3.841308504339999846e-02,-3.814996480939999990e-01,1.192085742950000082e-01,0.000000000000000000e+00
2.915052832999999843e+00,-3.173048728850000000e+00,1.983259573490000205e-01,-9.634380293189998667e+00,2.614316158000000445e-02,-4.203196167949999618e-01,1.249846890569999980e-01,0.000000000000000000e+00
2.920085070999999921e+00,-3.120446142690000091e+00,2.142519868860000010e-01,-9.557411035279999467e+00,2.217814326290000124e-02,-4.241628348830000506e-01,1.328872144219999940e-01,0.000000000000000000e+00
2.925052570000000074e+00,-3.078936320700000007e+00,3.004087781270000090e-01,-9.486072476729999536e+00,4.497110843659999496e-02,-4.537379145620000220e-01,1.339319050309999981e-01,0.000000000000000000e+00
