t,ax,ay,az,wx,wy,wz,zv
5.135551999999999825e-03,-2.648587632370000389e+00,2.414899214940000038e-01,-9.405116195010000624e+00,7.982851937409999460e-03,5.454754456880000872e-03,-8.149551227690000205e-03,1.000000000000000000e+00
1.033918900000000037e-02,-2.630272515740000205e+00,2.436163207979999967e-01,-9.438255079030000161e+00,1.129200868310000112e-02,-2.766160294409999651e-02,-1.667146384719999860e-02,1.000000000000000000e+00
1.516397899999999931e-02,-2.664819512990000305e+00,2.235450994810000147e-01,-9.423611052120000053e+00,4.191100131720000045e-03,8.167177438739998616e-03,-1.077518239620000109e-02,1.000000000000000000e+00
2.013295999999999836e-02,-2.672732770330000118e+00,2.341902660060000141e-01,-9.431938735489998393e+00,3.206786233930000035e-03,3.140564309429999621e-03,-2.599428640679999920e-03,1.000000000000000000e+00
2.535157000000000035e-02,-2.574920046359999937e+00,2.472402834480000033e-01,-9.414453932200000708e+00,1.009000651540000078e-02,-1.019693724810000028e-02,-1.792967133220000134e-02,1.000000000000000000e+00
3.020288900000000012e-02,-2.679985225679999861e+00,2.581273507040000026e-01,-9.413140511510000863e+00,-1.147415372539999871e-03,4.951468668879999667e-03,-4.002450499679999912e-03,1.000000000000000000e+00
3.516936999999999841e-02,-2.685740720470000120e+00,2.330503204560000208e-01,-9.432668803330001239e+00,6.648370763290000233e-04,5.245096981530000813e-04,2.864391077309999967e-03,1.000000000000000000e+00
4.033129099999999828e-02,-2.637317173559999617e+00,2.221265196539999875e-01,-9.443176168809999993e+00,4.706646781410000167e-03,8.535615168510000961e-03,3.239628393199999509e-03,1.000000000000000000e+00
4.529378600000000255e-02,-2.608671217049999935e+00,2.246300451740000093e-01,-9.427757065890000732e+00,-2.125936374069999774e-02,9.770271368320000011e-03,-9.729385375979998987e-03,1.000000000000000000e+00
5.030439600000000122e-02,-2.671195770020000193e+00,2.484949414180000204e-01,-9.412851757700000377e+00,8.013417944310000096e-03,-1.455500070010000077e-02,1.672064512970000000e-02,1.000000000000000000e+00
5.531522900000000048e-02,-2.603471310320000232e+00,2.103605506720000184e-01,-9.435893026069999578e+00,3.090836107729999852e-03,-6.418774835770001304e-03,-8.584345923739999376e-04,1.000000000000000000e+00
6.032678100000000293e-02,-2.660943840599999888e+00,2.380123267779999940e-01,-9.420462817220000673e+00,-8.972533047200002138e-03,-6.360082887109999583e-03,-1.206617988649999994e-02,1.000000000000000000e+00
6.519089000000000134e-02,-2.650225462709999924e+00,2.511756501360000171e-01,-9.401768053630000566e+00,-4.460099618880000553e-03,1.118907518680000053e-02,-1.701226830480000174e-02,1.000000000000000000e+00
7.026910000000000101e-02,-2.663149826209999738e+00,2.141780996660000158e-01,-9.416956854929999565e+00,4.604612477119999548e-04,1.876724418249999817e-04,-1.630536653099999914e-02,1.000000000000000000e+00
7.518539999999999945e-02,-2.667575825959999758e+00,2.174582173150000075e-01,-9.440346498350001170e+00,4.417487420140000370e-03,-8.865777403120000955e-03,-1.148190815000000101e-03,1.000000000000000000e+00
8.013227100000000491e-02,-2.651370833350000122e+00,2.032199764689999744e-01,-9.438869411529999809e+00,-2.170466817920000194e-03,6.598926149310000745e-03,2.581900451330000103e-03,1.000000000000000000e+00
8.531039099999999931e-02,-2.617551273600000172e+00,2.280935017669999954e-01,-9.440952063019999230e+00,1.388545986260000115e-02,8.963204454630000753e-04,1.471648924049999809e-03,1.000000000000000000e+00
9.030809099999999312e-02,-2.655740134479999792e+00,2.154779119520000008e-01,-9.402757064660001163e+00,4.467776045199999685e-03,-2.782014198600000132e-04,2.606345806269999696e-04,1.000000000000000000e+00
9.515272600000000691e-02,-2.602213711470000135e+00,2.115249182759999791e-01,-9.423470766869998627e+00,-2.200203482059999958e-03,1.586306281390000017e-02,9.807089809330000324e-04,1.000000000000000000e+00
1.001514190000000054e-01,-2.623248900720000165e+00,2.187719119959999903e-01,-9.417107077060000719e+00,1.859605684879999873e-02,8.090958930550000427e-03,4.563973285260000332e-03,1.000000000000000000e+00
1.053096959999999943e-01,-2.675627030470000278e+00,2.104469503139999864e-01,-9.439330014780001221e+00,1.301748398689999905e-02,1.825988665220000182e-02,7.302921731020000154e-03,1.000000000000000000e+00
1.101860959999999973e-01,-2.611326992259999979e+00,1.804864771400000178e-01,-9.457552484689999872e+00,1.008208841089999926e-02,9.788614697749999441e-03,-1.325566135350000029e-02,1.000000000000000000e+00
1.153049399999999947e-01,-2.680101545540000352e+00,1.983716961870000128e-01,-9.452883323840000074e+00,1.251478213820000213e-02,-7.989932782949999909e-03,7.924744859340000043e-04,1.000000000000000000e+00
1.201890909999999979e-01,-2.640307587550000168e+00,1.863687035790000113e-01,-9.458086153180000011e+00,-2.003415487710000133e-03,9.483937174079999340e-04,3.596388734880000011e-03,1.000000000000000000e+00
1.251415409999999950e-01,-2.623385971100000269e+00,1.900076446039999922e-01,-9.441972638239999327e+00,-3.673288505519999806e-03,1.103926729410000147e-02,7.586955558509999795e-03,1.000000000000000000e+00
1.301597939999999953e-01,-2.596884040880000022e+00,1.744975937229999996e-01,-9.454487251899999833e+00,-5.682221380989999635e-04,1.683151163159999839e-02,-1.061950437720000050e-02,1.000000000000000000e+00
1.351826289999999986e-01,-2.646118319650000217e+00,2.105518902589999797e-01,-9.409558561369999907e+00,-1.538597326729999881e-02,1.222142716869999840e-03,-1.168709713970000072e-03,1.000000000000000000e+00
1.402972339999999929e-01,-2.667718449300000128e+00,1.984228235860000245e-01,-9.444694172160000178e+00,-9.305851534010001549e-03,-3.223964013159999736e-03,9.385913610459999459e-03,1.000000000000000000e+00
1.452975099999999908e-01,-2.671812732879999874e+00,2.392291186890000143e-01,-9.421014605889999061e+00,1.262833364310000060e-02,-5.485499277709999545e-03,-7.861494086679999237e-04,1.000000000000000000e+00
1.504764199999999996e-01,-2.648960265079999932e+00,1.973034641679999868e-01,-9.429666114380001574e+00,-5.354914464990000178e-04,-7.301592268049999709e-03,8.756062015889999606e-03,1.000000000000000000e+00
1.551804250000000107e-01,-2.663324598259999565e+00,2.115956271589999882e-01,-9.440762677929999569e+00,2.483276650309999833e-03,1.343916915359999985e-02,9.254546836020000403e-03,1.000000000000000000e+00
1.601769769999999982e-01,-2.648008371179999987e+00,2.209552291180000017e-01,-9.463185522139999861e+00,-9.190311655399999516e-03,2.608183538539999950e-03,-3.503593616190000225e-03,1.000000000000000000e+00
1.651715440000000035e-01,-2.678701031090000129e+00,2.102951572859999840e-01,-9.451627770820000052e+00,3.322379197929999951e-03,1.220606267449999942e-02,7.248305249959999773e-03,1.000000000000000000e+00
1.703047279999999886e-01,-2.606011350190000186e+00,2.080769697789999761e-01,-9.419187974979999822e+00,-3.645215183500000178e-03,-6.126061547550000486e-03,-1.954113133249999953e-03,1.000000000000000000e+00
1.753104430000000102e-01,-2.621177647400000144e+00,2.379446135699999632e-01,-9.411700249580000843e+00,6.510053295640000348e-03,3.387863049280000292e-03,-1.292746514079999923e-02,1.000000000000000000e+00
1.801564360000000031e-01,-2.636317933389999979e+00,2.473144629290000007e-01,-9.424015541270000185e+00,8.198822848500000871e-03,-4.333657212560000291e-03,-1.063177920879999905e-02,1.000000000000000000e+00
1.851320290000000035e-01,-2.650060043009999866e+00,2.415239881610000139e-01,-9.418326974239999316e+00,6.549403071399999277e-03,-6.699741818010000391e-03,-1.661975309249999824e-02,1.000000000000000000e+00
1.901372600000000024e-01,-2.652888544440000107e+00,1.720554795340000220e-01,-9.456065460999999672e+00,1.370612718159999917e-02,-7.655993103979999784e-03,7.799505256120000622e-04,1.000000000000000000e+00
1.951854269999999947e-01,-2.599403330229999920e+00,1.924774505169999927e-01,-9.425696041700000194e+00,9.805525653059999139e-03,-7.010384462769999984e-03,-3.386482130740000001e-04,1.000000000000000000e+00
2.001334969999999935e-01,-2.657931214780000051e+00,1.951736855970000184e-01,-9.413268521810001843e+00,-9.002586826680000417e-03,-1.142253167929999959e-02,-1.467916998080000040e-03,1.000000000000000000e+00
2.053154460000000125e-01,-2.625139244509999692e+00,1.935338277020000053e-01,-9.453460831460001046e+00,-1.503589749339999913e-02,1.112323952839999958e-03,-4.746517166499999996e-03,1.000000000000000000e+00
2.102698000000000067e-01,-2.642569979520000167e+00,2.295667709230000131e-01,-9.409809321260000914e+00,-3.591523272919999726e-05,-4.378234036270000837e-03,4.881019704040000240e-03,1.000000000000000000e+00
2.153194569999999919e-01,-2.613780230629999757e+00,2.223439252639999864e-01,-9.423788746779999670e+00,-1.932685612700000069e-03,1.595944631839999882e-04,-5.129977129399999371e-03,1.000000000000000000e+00
2.201751170000000035e-01,-2.705147431729999941e+00,2.284268801729999743e-01,-9.423910911849999295e+00,-9.538326412440000304e-03,-6.562479771670000871e-03,1.197305135430000098e-02,1.000000000000000000e+00
2.253127050000000020e-01,-2.602636905320000249e+00,1.891171437709999736e-01,-9.418518112899999295e+00,-8.369511342609999450e-04,-1.139563042670000033e-02,-8.255338296290000433e-03,1.000000000000000000e+00
2.301673220000000075e-01,-2.645683435370000058e+00,2.149364802849999811e-01,-9.453659568910000033e+00,-2.546459902080000157e-03,4.886407405140000271e-03,-2.729077823459999624e-04,1.000000000000000000e+00
2.351748039999999873e-01,-2.639730664440000041e+00,2.066676144379999969e-01,-9.447596907869998617e+00,9.619095362720000552e-05,2.557813888420000254e-03,4.005045164380000543e-03,1.000000000000000000e+00
2.403132839999999881e-01,-2.626557586870000183e+00,2.115222148629999910e-01,-9.436863332410000638e+00,-4.318543069529999804e-04,-6.722542457279999373e-05,1.011297106740000062e-03,1.000000000000000000e+00
2.451757310000000079e-01,-2.649958920730000056e+00,2.091230264999999755e-01,-9.443687625469999958e+00,3.079621121290000013e-03,-3.955438733100000333e-03,4.429334308950000181e-03,1.000000000000000000e+00
2.501590029999999909e-01,-2.639040051829999900e+00,2.259003756370000227e-01,-9.435047222889998864e+00,-7.763241883370000131e-03,-2.009191177790000185e-02,-4.888168536129999797e-03,1.000000000000000000e+00
2.551575170000000004e-01,-2.682311330540000149e+00,1.745808515590000221e-01,-9.454967728889998924e+00,-3.942960174750000514e-04,3.286426188420000366e-03,8.014859631659999525e-03,1.000000000000000000e+00
2.601796550000000097e-01,-2.630789233090000234e+00,2.033725914810000091e-01,-9.420978365529999010e+00,1.105724927039999916e-02,-1.474365009930000015e-03,1.643652562049999861e-03,1.000000000000000000e+00
2.651650620000000069e-01,-2.681520764680000113e+00,2.236949197480000151e-01,-9.416996602419999363e+00,-9.553353302180000312e-03,-1.000175904479999947e-02,1.155196130279999983e-02,1.000000000000000000e+00
2.703055320000000150e-01,-2.659900176770000346e+00,2.223428110189999973e-01,-9.433826741189999865e+00,-1.353010907770000118e-02,9.206109680239999175e-04,1.284144259989999926e-02,1.000000000000000000e+00
2.751360889999999726e-01,-2.625725812229999789e+00,2.246549056199999839e-01,-9.441036818700000666e+00,-1.879371237010000074e-03,-7.984263822439999908e-03,-2.675004769119999817e-03,1.000000000000000000e+00
2.802609220000000234e-01,-2.653077345009999810e+00,2.030114848169999875e-01,-9.467184236389998730e+00,-3.234966192389999474e-03,-6.227999925609998925e-03,-3.241166705269999705e-03,1.000000000000000000e+00
2.851785159999999930e-01,-2.637150584820000088e+00,2.054416163070000023e-01,-9.443409393049998712e+00,-9.728115051979999151e-03,1.990520628169999921e-03,1.008812338109999970e-02,1.000000000000000000e+00
2.901674390000000270e-01,-2.611564892659999693e+00,2.165098305490000263e-01,-9.416202821689999780e+00,-5.587766878310000337e-03,-7.487962022420000668e-03,-7.799886632710000510e-03,1.000000000000000000e+00
2.951507709999999785e-01,-2.658537656240000047e+00,1.937436345279999750e-01,-9.430691365770000445e+00,-3.473312826830000401e-04,1.405642600730000165e-03,4.154355265199999314e-03,1.000000000000000000e+00
3.001490450000000032e-01,-2.658642870180000006e+00,2.465448119970000129e-01,-9.396299266830000718e+00,-2.015339769419999955e-02,1.939529180529999883e-02,-7.756635081020000176e-03,1.000000000000000000e+00
3.052002779999999915e-01,-2.696199570640000154e+00,2.080438346950000128e-01,-9.447298217180000179e+00,7.713637780400000449e-03,6.575484294440000956e-04,-9.080449817700000361e-04,1.000000000000000000e+00
3.102032350000000216e-01,-2.630137198929999975e+00,2.459726929319999977e-01,-9.439653255389998776e+00,-5.518595222380000970e-03,-8.936381898819999517e-03,6.433278322220000421e-04,1.000000000000000000e+00
3.153409779999999940e-01,-2.625639010720000055e+00,2.032923293189999869e-01,-9.423817388350000712e+00,-7.619485259059999857e-04,3.871138906110000062e-03,-4.277301486580000530e-04,1.000000000000000000e+00
3.202089790000000047e-01,-2.682710851249999973e+00,2.044243655559999928e-01,-9.444320662670000033e+00,-5.401121452450000256e-03,-2.228183206170000243e-03,1.049938797950000086e-02,1.000000000000000000e+00
3.253340789999999982e-01,-2.576606684270000169e+00,1.995433337829999876e-01,-9.445226087079999999e+00,1.430042833089999882e-02,-1.037519983950000065e-02,-1.624186709520000077e-02,1.000000000000000000e+00
3.301719260000000045e-01,-2.659896961899999912e+00,2.507150103540000119e-01,-9.445374555639999059e+00,4.069516435270000183e-03,1.864848658440000292e-02,-4.364154301579999985e-03,1.000000000000000000e+00
3.351940370000000002e-01,-2.685609203040000281e+00,2.435505986179999915e-01,-9.455566279310001931e+00,-1.297120191159999852e-02,-1.028014440089999870e-02,1.200800575320000105e-02,1.000000000000000000e+00
3.402600960000000119e-01,-2.624092658069999917e+00,2.136543315199999904e-01,-9.464386714630000697e+00,-9.170386008920001011e-03,-4.017837811260000815e-03,8.956875652069999985e-03,1.000000000000000000e+00
3.453456899999999830e-01,-2.619424081729999632e+00,2.212119803579999933e-01,-9.421115728180000204e+00,-1.348890084770000032e-02,9.389654733240000717e-03,-3.062620759010000089e-03,1.000000000000000000e+00
3.503366989999999737e-01,-2.672807589130000050e+00,1.948160312660000004e-01,-9.460563356939998059e+00,1.220300211569999918e-03,-2.637810306620000204e-03,-3.998131491239999454e-03,1.000000000000000000e+00
3.553108070000000063e-01,-2.639284674240000239e+00,2.400641082090000100e-01,-9.438204810140000234e+00,1.136117731219999987e-03,-4.597082268449999808e-03,-1.490066177210000106e-03,1.000000000000000000e+00
3.603473540000000086e-01,-2.648899182540000119e+00,2.782154500899999827e-01,-9.431095854920000576e+00,1.434630528089999961e-02,3.586641978469999798e-04,1.974151935429999897e-03,1.000000000000000000e+00
3.652006360000000229e-01,-2.668638779020000129e+00,2.045459095760000234e-01,-9.441167167080001477e+00,7.085904944689999478e-03,-1.978335669260000186e-03,-7.689666468650000267e-03,1.000000000000000000e+00
3.703362040000000022e-01,-2.675072611460000083e+00,2.269715850649999811e-01,-9.439297281549999141e+00,3.741444088520000377e-03,-1.130999997260000167e-02,1.295731030400000018e-02,1.000000000000000000e+00
3.752110949999999945e-01,-2.629405669779999677e+00,2.307664473030000274e-01,-9.417539623250000602e+00,-9.574718773370001143e-03,-6.460368633270000861e-03,4.891279619189999733e-03,1.000000000000000000e+00
3.802077710000000277e-01,-2.627011760379999838e+00,2.342494671130000150e-01,-9.424898753849999977e+00,-2.282742178070000082e-03,-2.128538209939999978e-03,-1.327391248200000080e-03,1.000000000000000000e+00
3.853384429999999750e-01,-2.604658182020000101e+00,2.151015711870000180e-01,-9.430116780749999705e+00,-9.321241639549998972e-03,6.386920809750000483e-03,-8.737031370399999872e-03,1.000000000000000000e+00
3.901732849999999808e-01,-2.685160290229999802e+00,2.258705284879999886e-01,-9.428587671489999877e+00,-1.475519966329999965e-03,6.986872293060000620e-03,1.767038181420000145e-02,1.000000000000000000e+00
3.952965330000000055e-01,-2.632026373670000030e+00,2.019662683469999886e-01,-9.439529921269999235e+00,-1.304429024460000003e-02,5.874214693899999958e-03,2.741343341769999706e-03,1.000000000000000000e+00
4.001907319999999935e-01,-2.689939925720000069e+00,2.161334349850000114e-01,-9.457148580069999255e+00,-6.585745606569999577e-03,-4.992575850339999984e-04,1.072203740479999931e-02,1.000000000000000000e+00
4.053137729999999883e-01,-2.599080966409999860e+00,2.281081696130000114e-01,-9.433908574249999290e+00,-5.822882056239999347e-03,-2.077907323840000320e-02,-1.040827296670000096e-02,1.000000000000000000e+00
4.102008589999999733e-01,-2.644202841420000283e+00,2.474268737950000296e-01,-9.403989236810001984e+00,1.277201622720000075e-02,-8.456502109769999586e-04,-1.260376721619999897e-02,1.000000000000000000e+00
4.153383469999999966e-01,-2.665375685569999931e+00,1.861802683350000098e-01,-9.458177923110001828e+00,-1.383819710460000053e-02,-3.673489671199999928e-03,1.249745301900000161e-02,1.000000000000000000e+00
4.201960299999999982e-01,-2.619610544220000392e+00,2.126393823240000092e-01,-9.441650566679999912e+00,2.369387540969999841e-03,1.615959219630000096e-02,-6.844772491600000126e-03,1.000000000000000000e+00
4.253263789999999767e-01,-2.670544904900000294e+00,1.780436140329999806e-01,-9.446645890750000163e+00,5.727617535740000057e-03,7.265930064020000544e-03,8.030502125620000639e-03,1.000000000000000000e+00
4.301731060000000273e-01,-2.632721077940000320e+00,2.637927743199999786e-01,-9.436358305489999765e+00,-4.436874878590000063e-04,-8.688615635039999979e-03,6.795071531089999636e-04,1.000000000000000000e+00
4.351729959999999786e-01,-2.616921451260000087e+00,2.493787933140000079e-01,-9.450742220149999540e+00,7.270786445590000230e-03,1.780079910530000089e-03,-1.242522150279999973e-02,1.000000000000000000e+00
4.401991210000000265e-01,-2.656882290250000000e+00,2.101105031670000012e-01,-9.453948907239999144e+00,-8.236629888419999546e-03,-7.506575435399999614e-03,-6.703779101370000056e-03,1.000000000000000000e+00
4.452943679999999960e-01,-2.676471956859999946e+00,2.219931025319999696e-01,-9.459691250289999687e+00,9.022462181750000657e-03,-5.412486381830000116e-03,3.604800906030000175e-03,1.000000000000000000e+00
4.501868070000000221e-01,-2.621915606289999978e+00,2.101850114419999971e-01,-9.443353278949999208e+00,4.191756015640000404e-04,-1.090794149789999987e-02,-6.045877002179999953e-03,1.000000000000000000e+00
4.553010160000000028e-01,-2.614486333069999890e+00,1.875312080200000064e-01,-9.441388116349999748e+00,1.062690746039999905e-02,-1.235142815859999839e-03,-9.297423996030000637e-03,1.000000000000000000e+00
4.602074469999999917e-01,-2.691390416790000017e+00,2.137414618149999779e-01,-9.454611170539999776e+00,-1.001458615060000015e-02,8.242378942670000944e-03,4.286600742489999824e-03,1.000000000000000000e+00
4.652119739999999726e-01,-2.615673204769999760e+00,2.266401794199999764e-01,-9.465022089919999715e+00,9.964185301210000487e-04,-2.233837731179999975e-04,-7.222137413919999839e-03,1.000000000000000000e+00
4.702970630000000152e-01,-2.683245396520000270e+00,2.232729314759999972e-01,-9.446754027300000800e+00,3.238333854820000298e-03,8.526062592859999859e-03,9.620631113650000149e-03,1.000000000000000000e+00
4.751929750000000174e-01,-2.634000011829999988e+00,2.008650656390000011e-01,-9.422857603410001559e+00,-5.275314906610000312e-04,-1.727884262799999834e-02,3.563192673030000403e-03,1.000000000000000000e+00
4.801824060000000061e-01,-2.624237034970000160e+00,2.232872887950000107e-01,-9.442186573260000770e+00,5.935262888670000611e-03,-7.639904506500000241e-03,-6.095972843470000291e-03,1.000000000000000000e+00
4.851804650000000052e-01,-2.656640590449999895e+00,2.139919294440000008e-01,-9.410360525410000676e+00,3.191153053189999672e-03,-1.086759660389999792e-02,8.667139336469998484e-03,1.000000000000000000e+00
4.901562119999999800e-01,-2.626222948090000120e+00,2.112339177070000074e-01,-9.465603689199999948e+00,2.057965844870000057e-03,-6.597867235540000146e-03,-6.210896186530000251e-03,1.000000000000000000e+00
4.952960530000000139e-01,-2.671921453950000025e+00,2.376103583810000031e-01,-9.440790150459999808e+00,4.536402411760000371e-03,-8.120085112750001152e-03,3.072973340750000375e-03,1.000000000000000000e+00
5.001823890000000050e-01,-2.649106395550000048e+00,2.042838976390000116e-01,-9.439619937639999847e+00,8.469074033200000087e-03,-8.374719880519999882e-03,5.332083906979999399e-03,1.000000000000000000e+00
5.053230840000000335e-01,-2.618514565669999961e+00,2.006976731830000249e-01,-9.439732165840000633e+00,1.192089077090000004e-02,2.340381732209999982e-03,-5.595267750319998963e-03,1.000000000000000000e+00
5.101842640000000539e-01,-2.648191911059999626e+00,2.208674229710000103e-01,-9.442482341330000750e+00,1.167818624529999919e-02,-2.543502720070000157e-03,2.430465538050000530e-03,1.000000000000000000e+00
5.153372640000000171e-01,-2.619625449520000426e+00,2.386597030369999872e-01,-9.448548509500000137e+00,-1.069380342959999966e-02,8.240259252489999173e-03,-4.580923356119999575e-03,1.000000000000000000e+00
5.201696740000000263e-01,-2.609389009930000114e+00,2.245304207240000072e-01,-9.425071187800000416e+00,1.110217184759999982e-03,-6.544918753209999843e-03,-8.353730663660000402e-03,1.000000000000000000e+00
5.253182650000000065e-01,-2.647534323929999989e+00,1.661269297350000118e-01,-9.443429851310000345e+00,7.898507174099999315e-04,-5.695887375619999686e-04,1.935155596579999845e-03,1.000000000000000000e+00
5.302059890000000442e-01,-2.569310097519999836e+00,1.589269352290000048e-01,-9.439406002629999293e+00,1.693777926270000067e-02,1.394903287289999891e-02,-1.367831230159999995e-02,1.000000000000000000e+00
5.353266279999999711e-01,-2.652421511450000047e+00,2.289987069779999829e-01,-9.462964572869999813e+00,1.411782484499999983e-02,-3.882564604280000411e-03,-1.018085400570000083e-03,1.000000000000000000e+00
5.403247180000000371e-01,-2.666659587899999906e+00,2.436450719680000043e-01,-9.434591880339999292e+00,6.714851595459999864e-03,-5.321754142640000226e-03,7.607627194369998881e-04,1.000000000000000000e+00
5.453498930000000300e-01,-2.634581903379999979e+00,2.293885282800000036e-01,-9.433254494260001621e+00,3.342316485940000168e-03,1.715184887869999767e-03,-1.453997753560000092e-02,1.000000000000000000e+00
5.502343690000000009e-01,-2.698355871890000035e+00,1.924288621350000172e-01,-9.438126484210000555e+00,8.363189408560001625e-04,5.370914936070000228e-03,9.074635803700001682e-03,1.000000000000000000e+00
5.553383339999999890e-01,-2.612397544099999802e+00,2.019362385350000066e-01,-9.427108831110000864e+00,-8.560988120730000928e-03,-7.460763677949999555e-03,3.597005736080000245e-03,1.000000000000000000e+00
5.601687050000000445e-01,-2.627273333930000287e+00,2.290927236710000037e-01,-9.455562772180000408e+00,-1.180164236580000074e-02,-2.819504588840000218e-03,-8.238290902230000672e-04,1.000000000000000000e+00
5.651728059999999720e-01,-2.619893452809999967e+00,1.899677144520000027e-01,-9.438736140539999653e+00,4.750360269100000442e-03,1.556198345500000094e-03,-6.254986394200000473e-03,1.000000000000000000e+00
5.701860069999999947e-01,-2.649455647379999945e+00,2.089515606569999906e-01,-9.433651384620000968e+00,7.264471147210000042e-03,-1.148709468540000042e-02,1.636219210920000083e-02,1.000000000000000000e+00
5.751600319999999877e-01,-2.622338800140000092e+00,2.449649954600000012e-01,-9.413547923270000339e+00,4.990521818400000045e-03,-3.462368622420000045e-04,2.905374858530000194e-03,1.000000000000000000e+00
5.801362070000000148e-01,-2.641512871679999819e+00,2.068390254820000052e-01,-9.422694521799998668e+00,2.215262502430000071e-04,2.917303005230000024e-03,-2.932197414340000346e-03,1.000000000000000000e+00
5.851370580000000432e-01,-2.653146318590000163e+00,2.235578310980000094e-01,-9.413383672620000198e+00,-2.430972643199999766e-03,-1.756944507360000060e-02,-8.566057076679999124e-04,1.000000000000000000e+00
5.901341390000000020e-01,-2.659000597579999958e+00,2.078047652420000058e-01,-9.445576800219999569e+00,7.316437084229999131e-03,1.233891583979999929e-02,5.859711673109999248e-03,1.000000000000000000e+00
5.951912179999999664e-01,-2.648670634479999730e+00,2.043194438769999899e-01,-9.440463987250000244e+00,-1.605836302040000024e-02,-7.048891857269999617e-03,1.795833464710000016e-03,1.000000000000000000e+00
6.002022740000000356e-01,-2.682111424049999915e+00,2.402422960530000151e-01,-9.415478599069999177e+00,-7.752961944789999761e-03,-3.852656576780000373e-03,1.145316660400000006e-02,1.000000000000000000e+00
6.052789699999999717e-01,-2.636752233150000180e+00,2.279114231980000072e-01,-9.452149748860000145e+00,8.572481572630000560e-03,-6.840619258579999466e-03,1.491196826099999879e-02,1.000000000000000000e+00
6.101606710000000433e-01,-2.615018540249999912e+00,2.066051619279999918e-01,-9.446761041560000294e+00,6.373701151460000637e-03,-5.841538310050000717e-03,-8.102033752950000547e-04,1.000000000000000000e+00
6.151917999999999553e-01,-2.689101721330000139e+00,2.152534738129999736e-01,-9.419849653760000052e+00,-8.381251245740000441e-05,-5.538460332899999491e-03,8.538691326979999663e-03,1.000000000000000000e+00
6.201863079999999639e-01,-2.649771289199999824e+00,2.401104315680000212e-01,-9.424282667769999122e+00,1.753052114510000176e-03,1.095737982539999981e-02,9.624943137169999705e-03,1.000000000000000000e+00
6.251761679999999766e-01,-2.618476279489999836e+00,1.913748230370000136e-01,-9.417030504690000470e+00,-4.932334180920000359e-03,6.191438995300000900e-03,-7.568532601000000628e-04,1.000000000000000000e+00
6.301670729999999665e-01,-2.664265678500000067e+00,1.850890572989999927e-01,-9.459682482459999875e+00,-1.442920695989999974e-02,-2.108923159540000355e-02,7.828282192350001154e-03,1.000000000000000000e+00
6.351959240000000229e-01,-2.647667887179999902e+00,1.933544342810000205e-01,-9.464657932779999783e+00,4.904741421340000004e-03,1.421161741020000001e-02,1.045141369099999995e-02,1.000000000000000000e+00
6.403102040000000494e-01,-2.674196997670000187e+00,2.247895648499999843e-01,-9.411956854690000540e+00,-2.304868586359999985e-02,-1.836501643989999931e-03,1.900283060970000062e-02,1.000000000000000000e+00
6.451299759999999939e-01,-2.628788999190000197e+00,2.281866051440000209e-01,-9.436685053230000619e+00,6.667135283349999962e-03,8.436614647510000745e-03,-1.706114271660000162e-03,1.000000000000000000e+00
6.501495950000000246e-01,-2.671480139920000330e+00,2.437848822969999885e-01,-9.413469597339998884e+00,-3.687114221980000044e-04,1.941951224579999916e-03,8.662939071660000559e-03,1.000000000000000000e+00
6.551508499999999513e-01,-2.629930862700000205e+00,2.459238670879999866e-01,-9.434255195730001375e+00,-1.025347621180000036e-03,2.600858220829999849e-03,6.376293022189999729e-03,1.000000000000000000e+00
6.603275240000000545e-01,-2.632986158620000072e+00,2.268884002930000032e-01,-9.436389869680001041e+00,-2.432417590170000195e-03,7.024369202550000135e-03,3.657559398560000005e-03,1.000000000000000000e+00
6.651980360000000481e-01,-2.649905436970000139e+00,2.460557315729999805e-01,-9.420994147620000092e+00,-5.128568504010000417e-03,-9.160165209319999762e-04,9.134855121370001607e-03,1.000000000000000000e+00
6.703138659999999804e-01,-2.661030642100000065e+00,2.068872120059999931e-01,-9.424556808540000219e+00,8.428513538089998230e-04,-5.103080533439999927e-03,4.095567390319999890e-03,1.000000000000000000e+00
6.751747609999999566e-01,-2.624108732420000312e+00,2.100904467599999936e-01,-9.451873270010000994e+00,9.808770846579999375e-05,-5.481423810120000621e-03,-1.479616854339999791e-03,1.000000000000000000e+00
6.801678519999999617e-01,-2.649810744429999865e+00,1.863367923369999846e-01,-9.451446569030000688e+00,-1.232081092890000007e-02,8.182227611539999446e-03,1.584209967400000002e-03,1.000000000000000000e+00
6.851260179999999478e-01,-2.625991769680000143e+00,2.150115365489999875e-01,-9.433947737220000462e+00,-4.876679275180000397e-03,4.151426255699999963e-03,-4.185303114349999548e-03,1.000000000000000000e+00
6.901388699999999599e-01,-2.629652630279999848e+00,1.875077540790000274e-01,-9.447138642700000588e+00,-2.126695401969999968e-02,-1.028040610250000042e-02,-3.451897064219999756e-03,1.000000000000000000e+00
6.951819849999999468e-01,-2.649806360509999958e+00,2.044351974769999802e-01,-9.420639342839999486e+00,3.433220088480000085e-03,-1.394069008530000008e-02,1.022669719529999957e-03,1.000000000000000000e+00
7.001749699999999521e-01,-2.595400232070000257e+00,2.042528814469999898e-01,-9.429826273379999790e+00,6.052682641889999687e-03,-1.285667065529999932e-03,-7.615995593370000240e-03,1.000000000000000000e+00
7.052940330000000424e-01,-2.645703016850000200e+00,2.065042405699999972e-01,-9.447529103329999955e+00,-1.699404045939999913e-02,-3.007835010070000325e-03,5.726283881810000434e-03,1.000000000000000000e+00
7.101513510000000418e-01,-2.632133048920000107e+00,2.519230344369999819e-01,-9.422755896600000014e+00,-1.352900872009999778e-03,-6.492742337289999881e-03,1.133905164900000061e-02,1.000000000000000000e+00
7.153173980000000487e-01,-2.621665138660000061e+00,2.640818934599999945e-01,-9.398536232099999665e+00,-1.182024367150000081e-02,9.063549805429999343e-04,3.817428834739999659e-03,1.000000000000000000e+00
7.201586690000000290e-01,-2.636425485419999770e+00,1.805096388199999846e-01,-9.446036818939999691e+00,-6.696022581310001262e-03,-1.000883430240000031e-02,-1.035372354089999884e-02,1.000000000000000000e+00
7.251672179999999468e-01,-2.619488671399999635e+00,1.598262586879999891e-01,-9.487310494099999048e+00,-9.102849289770001059e-03,1.834132336080000064e-02,-1.813589222729999895e-02,1.000000000000000000e+00
7.301832259999999630e-01,-2.679078339970000222e+00,2.126065942990000290e-01,-9.433016009330000173e+00,2.134816255420000138e-03,-6.836499087510000336e-03,8.023634552960000679e-03,1.000000000000000000e+00
7.351702909999999758e-01,-2.614185012040000089e+00,2.730806992829999946e-01,-9.452216968880000181e+00,-2.366398088629999980e-02,1.578016439450000271e-03,-4.534066189079999712e-03,1.000000000000000000e+00
7.402995159999999908e-01,-2.650091899460000011e+00,2.290403541629999762e-01,-9.461073644549999884e+00,2.964161336420000244e-03,-1.717218756679999778e-02,-5.258595570920000101e-03,1.000000000000000000e+00
7.451671389999999784e-01,-2.672376504240000283e+00,2.088914462339999945e-01,-9.448483043049998642e+00,-1.314544212070000058e-02,-9.111762978139998498e-03,1.072194054720000157e-02,1.000000000000000000e+00
7.501741849999999934e-01,-2.597287360990000238e+00,2.127711372109999943e-01,-9.410479767869999179e+00,7.507226895540000319e-03,-6.690172012899999084e-04,-9.057827293870000449e-03,1.000000000000000000e+00
7.552918619999999805e-01,-2.654676012379999950e+00,2.374882298390000035e-01,-9.444950192749999474e+00,-1.204526051879999983e-02,3.802290884780000404e-03,-4.913670010859999722e-03,1.000000000000000000e+00
7.603040290000000478e-01,-2.642944365790000472e+00,2.364124903660000110e-01,-9.431819493019999001e+00,2.825856208799999931e-04,9.956908412280000495e-03,-6.740155164149999427e-03,1.000000000000000000e+00
7.651770759999999560e-01,-2.694966229449999862e+00,2.423114304779999950e-01,-9.442251455179999198e+00,7.539978250860001306e-04,-3.360949456689999847e-03,1.189056597649999943e-02,1.000000000000000000e+00
7.701502620000000299e-01,-2.624402162410000017e+00,2.281626397459999844e-01,-9.424493680179999444e+00,1.601288677190000013e-03,-3.627544734630000402e-03,-1.278350595380000222e-03,1.000000000000000000e+00
7.751209559999999721e-01,-2.630141290580000124e+00,2.172765588720000085e-01,-9.438076215329999741e+00,-1.020167022940000022e-02,-2.917998936030000243e-03,-2.479412825780000218e-03,1.000000000000000000e+00
7.801479190000000230e-01,-2.617054137729999841e+00,2.100227700849999768e-01,-9.442263730139998756e+00,-2.276254259049999978e-02,4.392055794600000125e-03,1.171875279400000055e-03,1.000000000000000000e+00
7.850672279999999503e-01,-2.666920869179999709e+00,1.971355785209999989e-01,-9.447365437200000216e+00,-2.828652411700000036e-02,-1.466281712060000034e-02,-4.025046247990000069e-03,1.000000000000000000e+00
7.900993339999999865e-01,-2.668588510129999758e+00,2.363819856300000133e-01,-9.438752507150001136e+00,-2.719321101900000134e-02,-1.963594695549999904e-03,2.942215651269999930e-03,1.000000000000000000e+00
7.951020469999999785e-01,-2.621512286180000206e+00,2.278895766919999955e-01,-9.446648228839999106e+00,1.781422295609999757e-03,-1.224317122249999994e-03,-1.426944509149999862e-04,1.000000000000000000e+00
8.000659909999999764e-01,-2.653719734570000099e+00,2.480719302330000042e-01,-9.459331184799999903e+00,-1.422277465460000147e-02,4.263537935910000076e-03,2.970728091899999933e-03,1.000000000000000000e+00
8.052725539999999738e-01,-2.618944189260000055e+00,2.565768881250000133e-01,-9.430168218680000436e+00,-1.047732867300000051e-02,-1.332331635060000040e-02,-1.163314678710000022e-03,1.000000000000000000e+00
8.103024130000000547e-01,-2.688025032009999649e+00,2.543382971520000146e-01,-9.440228424919999028e+00,-1.377881970260000019e-02,-5.189720541239999964e-03,-2.441749442370000009e-03,1.000000000000000000e+00
8.152981360000000066e-01,-2.625541395569999992e+00,2.458451210289999966e-01,-9.429185637379999818e+00,7.047158200290000278e-03,-2.917747711759999946e-03,1.823538914320000119e-03,1.000000000000000000e+00
8.201541420000000304e-01,-2.599106100850000267e+00,2.525806763619999895e-01,-9.464600065119999073e+00,-1.773892901840000078e-02,-1.150583382699999976e-02,6.038276012990000108e-03,1.000000000000000000e+00
8.253006990000000265e-01,-2.631594411999999661e+00,2.220468054809999758e-01,-9.441357136689999763e+00,-2.248841803519999790e-03,-5.217150785029999599e-03,-2.437182702120000192e-04,1.000000000000000000e+00
8.301516810000000302e-01,-2.640601894320000032e+00,2.495838143670000009e-01,-9.422341470580001044e+00,2.259822562340000392e-03,-1.346347946670000024e-02,-4.119383636860000399e-03,1.000000000000000000e+00
8.353143280000000503e-01,-2.653050456999999973e+00,2.301322045199999944e-01,-9.462187158749999938e+00,-1.862766221170000086e-04,1.913453266020000154e-02,9.119169786569999991e-03,1.000000000000000000e+00
8.401713779999999687e-01,-2.631220610250000203e+00,2.660744920490000220e-01,-9.449311310569999733e+00,-3.099443390969999768e-03,-8.241089992229999606e-03,-9.812735021110000413e-03,1.000000000000000000e+00
8.451440439999999832e-01,-2.671407366950000029e+00,2.432052009800000081e-01,-9.471272382489999586e+00,2.476501977069999979e-04,1.560057327150000082e-02,3.117938060309999836e-03,1.000000000000000000e+00
8.502988110000000432e-01,-2.648432734070000016e+00,2.353318737890000012e-01,-9.420969597699999198e+00,1.669794204640000310e-03,-1.574023813010000036e-02,1.899926923220000147e-03,1.000000000000000000e+00
8.551572870000000437e-01,-2.682275382440000300e+00,2.279680304900000287e-01,-9.448279629430000881e+00,-6.110761896710000451e-04,-2.132786205039999966e-03,1.661864295600000083e-02,1.000000000000000000e+00
8.601660070000000102e-01,-2.650458686939999975e+00,2.340864403049999765e-01,-9.431416757439999188e+00,1.087697502229999919e-02,-3.628268837929999723e-03,1.152827963229999947e-02,1.000000000000000000e+00
8.651627760000000222e-01,-2.640429460360000036e+00,2.316230276000000032e-01,-9.443187859249999150e+00,2.058366313579999916e-03,2.640944672749999909e-03,-1.153377816079999936e-03,1.000000000000000000e+00
8.703142230000000534e-01,-2.637674024169999853e+00,2.376026682649999833e-01,-9.428494147989999519e+00,-1.271242275830000018e-02,-1.108044059950000128e-03,-1.749399933030000055e-03,1.000000000000000000e+00
8.751599199999999801e-01,-2.669773920529999955e+00,2.326942552939999798e-01,-9.456352461250000729e+00,6.870406214149999725e-03,-9.422615170480000413e-03,1.130622113119999876e-03,1.000000000000000000e+00
8.801487110000000280e-01,-2.664321208080000059e+00,2.185569358049999911e-01,-9.440736374450001023e+00,2.266261726620000163e-03,1.695827813819999899e-03,1.136400736869999780e-03,1.000000000000000000e+00
8.851627480000000547e-01,-2.695069397559999747e+00,2.257798179970000041e-01,-9.435670323230000989e+00,-4.043836612250000136e-03,-4.346694331619999595e-03,1.078617013989999901e-02,1.000000000000000000e+00
8.901385450000000032e-01,-2.641315595540000061e+00,2.580441293999999886e-01,-9.410232515109999696e+00,-3.962232265620000381e-03,-1.746336743240000169e-02,3.091867547480000016e-03,1.000000000000000000e+00
8.953225219999999540e-01,-2.677038066309999742e+00,2.422887802540000246e-01,-9.444671960330000005e+00,-1.143074035639999979e-02,3.986635245379999831e-03,1.282234676179999991e-02,1.000000000000000000e+00
9.000991189999999476e-01,-2.618075005210000139e+00,2.123238866340000086e-01,-9.462928917030000164e+00,2.588812261819999939e-03,-7.714469917119999576e-03,2.587399445470000073e-03,1.000000000000000000e+00
9.052892359999999972e-01,-2.654384628219999875e+00,2.330633808669999862e-01,-9.415656293730000570e+00,-1.070825569329999886e-02,-4.326668567959999871e-03,-4.758609458800000178e-03,1.000000000000000000e+00
9.103006750000000036e-01,-2.677565305059999901e+00,2.231891256500000142e-01,-9.456209837910000360e+00,-8.177980780600000929e-03,-1.663806964640000136e-03,7.956130430099999946e-04,1.000000000000000000e+00
9.153133799999999543e-01,-2.647094178950000209e+00,2.293178193969999945e-01,-9.433696392810000830e+00,-4.917774349450000377e-04,-2.306073438379999899e-03,-7.273504044859999476e-03,1.000000000000000000e+00
9.201646540000000263e-01,-2.635468038559999560e+00,2.340474052019999862e-01,-9.420570369249999132e+00,1.055567525329999777e-02,3.576519666240000027e-03,-1.080931513569999931e-03,1.000000000000000000e+00
9.252816839999999932e-01,-2.660782512559999979e+00,2.518626642859999598e-01,-9.430918744790000474e+00,-6.440845900219999620e-04,1.108584646139999796e-02,9.000854566690001321e-03,1.000000000000000000e+00
9.301528420000000352e-01,-2.660998493400000164e+00,2.282466282349999986e-01,-9.424988770219998813e+00,1.286302134390000101e-02,-1.724558998829999997e-03,1.923812553289999975e-03,1.000000000000000000e+00
9.353198649999999725e-01,-2.615766143750000161e+00,2.625111552780000079e-01,-9.431420264570000711e+00,-5.301065742970000397e-03,5.515106022359999791e-03,-3.540385514500000389e-03,1.000000000000000000e+00
9.401567159999999479e-01,-2.647237971330000050e+00,2.363778574439999725e-01,-9.436554704849999808e+00,-1.367578096689999953e-02,-5.621222779150000098e-03,-4.161622375249999714e-03,1.000000000000000000e+00
9.451475999999999766e-01,-2.649309809170000030e+00,2.555876030929999931e-01,-9.419722812510000765e+00,1.560696517119999904e-03,-5.879851058130000120e-03,-8.425013162200000252e-03,1.000000000000000000e+00
9.503203140000000548e-01,-2.660372470450000026e+00,2.078625233109999693e-01,-9.436126250299999185e+00,-2.854474354540000296e-03,-6.497493945060000761e-03,-6.243800278750000383e-03,1.000000000000000000e+00
9.551582069999999813e-01,-2.657242355729999783e+00,2.019630534760000207e-01,-9.425694872660001167e+00,3.886292688550000395e-03,1.275799935680000047e-03,4.079358186569999952e-04,1.000000000000000000e+00
9.603206749999999570e-01,-2.653779940320000197e+00,2.186772742489999921e-01,-9.416419679310001456e+00,-9.321002289650000055e-05,-2.119784709069999756e-03,7.885791361330000276e-03,1.000000000000000000e+00
9.651529300000000200e-01,-2.624396317189999994e+00,1.957575316340000315e-01,-9.447678156410001193e+00,1.806786656379999814e-02,-5.273617338389999590e-03,7.469675969330000220e-03,1.000000000000000000e+00
9.702906279999999883e-01,-2.646283154819999872e+00,2.269793482459999956e-01,-9.425572707580000653e+00,7.035761373119999058e-04,1.760913990440000215e-02,3.251985646779999989e-03,1.000000000000000000e+00
9.751619049999999955e-01,-2.649847861570000074e+00,2.064989616070000145e-01,-9.446358305980000480e+00,-1.099886652079999985e-02,4.577234387399999570e-03,1.224322989579999799e-02,1.000000000000000000e+00
9.801344090000000397e-01,-2.642452490620000205e+00,2.243864091429999819e-01,-9.443900391439999709e+00,7.823347114029998578e-03,6.671455688769999982e-03,1.395548880099999924e-02,1.000000000000000000e+00
9.851483439999999536e-01,-2.621346574229999948e+00,2.267019378100000038e-01,-9.456655828110001494e+00,-8.117812103589999934e-04,-1.415323093529999993e-02,-1.804223633369999875e-03,1.000000000000000000e+00
9.901663149999999636e-01,-2.684509132840000589e+00,2.291779360029999879e-01,-9.441447153060000375e+00,-9.334005415439999495e-03,-9.650597348809998588e-03,1.956457085909999935e-02,1.000000000000000000e+00
9.951747119999999613e-01,-2.641141700279999949e+00,2.447429867400000292e-01,-9.441885544480001613e+00,-1.138572581110000072e-02,-7.207528688010000906e-03,3.695780411359999955e-03,1.000000000000000000e+00
1.000190321999999910e+00,-2.646879367149999940e+00,2.279221637880000095e-01,-9.448628589000000133e+00,-2.066866960380000021e-03,-4.060962237419999803e-05,6.465611513699999653e-03,1.000000000000000000e+00
1.005301253000000061e+00,-2.619197287240000005e+00,2.186784615590000036e-01,-9.424210771580000312e+00,-3.012598026539999811e-03,1.764648780229999964e-02,-1.345848664639999817e-02,1.000000000000000000e+00
1.010238433000000047e+00,-2.670185131679999824e+00,2.195856943310000031e-01,-9.450881336360000162e+00,-5.067410413180000253e-03,2.227206015960000052e-03,-9.833998046820000504e-05,1.000000000000000000e+00
1.015166425999999955e+00,-2.631882873549999946e+00,2.089371302730000102e-01,-9.441465857769999914e+00,-3.943645861000000426e-03,1.444751629609999964e-03,-2.680811332539999835e-03,1.000000000000000000e+00
1.020176519999999920e+00,-2.657206407640000378e+00,2.175453110770000087e-01,-9.413744907150000785e+00,-7.116701453920000128e-03,-7.170933298770000922e-03,1.657873857769999806e-03,1.000000000000000000e+00
1.025287794999999891e+00,-2.686277603820000248e+00,2.460871130919999872e-01,-9.432916640610001124e+00,1.143527566460000085e-03,6.139414384959999797e-03,-2.154930727559999874e-03,1.000000000000000000e+00
1.030149474999999981e+00,-2.667251708569999824e+00,2.400271371990000124e-01,-9.428163308600000292e+00,-1.249690446999999864e-02,3.361083334310000208e-03,6.250059697780000097e-03,1.000000000000000000e+00
1.035127810000000093e+00,-2.601522514340000036e+00,2.278121092760000133e-01,-9.462838316139999151e+00,-9.204505011440001702e-03,5.835525691509999696e-03,-1.595634967090000036e-02,1.000000000000000000e+00
1.040150399999999919e+00,-2.656768893000000187e+00,2.626991886639999940e-01,-9.412159683780000563e+00,-5.004535894839999902e-03,3.210972761739999942e-03,-3.536626696590000271e-03,1.000000000000000000e+00
1.045139325000000063e+00,-2.622186824439999953e+00,2.336690916759999737e-01,-9.465793658810000011e+00,2.223190851510000419e-03,-5.040362011639999782e-04,-6.013250909750000525e-03,1.000000000000000000e+00
1.050310086000000087e+00,-2.663627965119999885e+00,2.124350919240000080e-01,-9.456511451209999919e+00,-1.236163661820000037e-03,-1.403598021720000102e-02,-9.428296471010000172e-04,1.000000000000000000e+00
1.055148726999999953e+00,-2.643823194449999914e+00,2.435537038900000284e-01,-9.428504669380000536e+00,1.196104008699999839e-02,1.083207130429999880e-02,1.037127804009999954e-03,1.000000000000000000e+00
1.060289486999999919e+00,-2.611177646909999872e+00,1.957529650560000112e-01,-9.456627771060000853e+00,6.425002589819999235e-03,4.579333588479999641e-03,-1.650095544759999991e-02,1.000000000000000000e+00
1.065188430000000075e+00,-2.695957286309999645e+00,2.388734188529999802e-01,-9.428998005860000475e+00,1.797557342799999922e-05,5.192764103410000068e-03,4.287252668290000021e-04,1.000000000000000000e+00
1.070292019999999900e+00,-2.662755566199999979e+00,2.292329906580000132e-01,-9.441028050870000854e+00,-5.444491747770000521e-03,-1.559204142539999914e-02,3.385054413229999885e-03,1.000000000000000000e+00
1.075135195000000099e+00,-2.648969617430000145e+00,2.327328702710000086e-01,-9.459861930680000697e+00,2.080325968560000054e-03,-5.552864633500000091e-03,-5.566942505540000558e-03,1.000000000000000000e+00
1.080137872000000110e+00,-2.639253986840000010e+00,1.924094450480000051e-01,-9.438638525380000033e+00,3.602667246010000067e-03,-6.273873150350000802e-03,-1.001367997379999999e-02,1.000000000000000000e+00
1.085140581000000104e+00,-2.690040171229999721e+00,2.103803513510000001e-01,-9.424053535189999664e+00,-1.134450174869999946e-02,-8.614966645839999479e-03,1.099321432410000146e-02,1.000000000000000000e+00
1.090163470000000023e+00,-2.621943955599999931e+00,2.375012171840000241e-01,-9.451664595700000504e+00,2.742808777840000101e-03,-3.484622808170000259e-03,-3.146673319860000036e-03,1.000000000000000000e+00
1.095133738999999995e+00,-2.679573722269999791e+00,2.388464212480000126e-01,-9.441571656229999832e+00,-7.244824431839999926e-03,-1.293409150089999812e-03,2.361187245700000110e-03,1.000000000000000000e+00
1.100311260000000013e+00,-2.642934428920000300e+00,1.981378326319999938e-01,-9.458938970610001107e+00,-5.508605390789999938e-03,3.459274070340000347e-03,5.910120438779999791e-03,1.000000000000000000e+00
1.105315519999999996e+00,-2.578761231949999733e+00,2.208378863490000066e-01,-9.447184235410000852e+00,3.713708370920000036e-03,1.663205446680000128e-03,-2.305486053229999568e-02,1.000000000000000000e+00
1.110145546000000039e+00,-2.696142872009999802e+00,1.959236271819999875e-01,-9.445415472169999660e+00,-4.751998931169999947e-03,-2.415542257949999591e-03,9.129873942580000318e-04,1.000000000000000000e+00
1.115312537999999964e+00,-2.610605107720000095e+00,2.291871604890000080e-01,-9.441472287510000783e+00,-8.559522219000000390e-03,8.058941457419999902e-04,-8.081334643069999074e-03,1.000000000000000000e+00
1.120164294999999921e+00,-2.644788824609999978e+00,2.412955679659999908e-01,-9.417636653889999820e+00,1.921535120349999971e-03,5.216535180810000227e-03,-7.330784574150000458e-04,1.000000000000000000e+00
1.125138202999999892e+00,-2.634800514559999751e+00,2.532560731390000042e-01,-9.413870579350000156e+00,-9.901601588349999688e-04,-6.760648451750000433e-03,-3.254530020059999505e-03,1.000000000000000000e+00
1.130133518999999920e+00,-2.629040928120000231e+00,2.114819559169999752e-01,-9.425828143649999546e+00,1.705011539160000006e-02,-2.885182388130000386e-03,-2.972839865829999834e-03,1.000000000000000000e+00
1.135173240999999944e+00,-2.626383983869999827e+00,2.361532366419999973e-01,-9.460647528099999093e+00,-3.872145898640000209e-04,2.012021141130000169e-03,-3.281816607340000240e-03,1.000000000000000000e+00
1.140312876999999947e+00,-2.656763047780000164e+00,2.340268921370000088e-01,-9.440881335880000336e+00,-5.188980139790000368e-06,-7.469180040060000199e-03,3.178319893780000185e-04,1.000000000000000000e+00
1.145283390999999984e+00,-2.660540812759999874e+00,2.339569504400000055e-01,-9.446984913450000576e+00,-1.438934262839999985e-02,4.260311834509999430e-04,8.274879306549999536e-03,1.000000000000000000e+00
1.150283288000000015e+00,-2.622835351480000021e+00,2.304865161169999954e-01,-9.436187040580000129e+00,-6.823580246419999953e-03,-1.576902903619999824e-02,-3.615244757379999958e-03,1.000000000000000000e+00
1.155171037999999983e+00,-2.649318869260000042e+00,2.733523558320000157e-01,-9.432781031530000249e+00,-5.634888075290000152e-03,-3.086706157769999580e-03,-4.372037947180000723e-03,1.000000000000000000e+00
1.160260083000000053e+00,-2.684713715510000043e+00,2.302123753499999981e-01,-9.466130927939998330e+00,-4.635152406989999883e-03,-1.551374513659999933e-02,1.739862002429999957e-02,1.000000000000000000e+00
1.165312603999999919e+00,-2.607350197579999751e+00,2.600821562999999781e-01,-9.451939905510000628e+00,-2.430630847809999752e-03,5.145730450750000094e-03,-1.842493657020000206e-03,1.000000000000000000e+00
1.170159893999999978e+00,-2.671478094099999812e+00,2.184800529099999722e-01,-9.455904132960000652e+00,3.666810225700000087e-04,1.942684175450000092e-03,2.724087331440000048e-03,1.000000000000000000e+00
1.175104622000000099e+00,-2.626569569569999985e+00,1.842703795929999944e-01,-9.417852342469998916e+00,-1.587705919519999875e-03,-3.413871163500000177e-03,-9.123656898739999910e-03,1.000000000000000000e+00
1.180103609999999970e+00,-2.721696707730000053e+00,2.317020841849999901e-01,-9.443796346539999220e+00,2.662451937790000309e-03,3.437459701670000228e-03,1.629462651909999865e-02,1.000000000000000000e+00
1.185102311000000075e+00,-2.624215407659999943e+00,2.339064075629999906e-01,-9.462969833560000765e+00,-1.031302381310000155e-02,1.898350426929999854e-03,-6.779561750590000664e-03,1.000000000000000000e+00
1.190102361999999969e+00,-2.657931214780000051e+00,2.030330207959999966e-01,-9.446766302260000359e+00,-8.343603461979999178e-03,6.109218113119999939e-03,-8.360599167639999726e-05,1.000000000000000000e+00
1.195142023000000053e+00,-2.656388369250000103e+00,2.508602275110000113e-01,-9.428470182589999027e+00,-1.182179152970000251e-02,-6.709503009920000059e-03,-7.175700273359999701e-03,1.000000000000000000e+00
1.200140997000000098e+00,-2.653645500290000125e+00,2.505575547699999683e-01,-9.457516828860001112e+00,-8.366955444219999248e-04,-1.251280307770000037e-02,-8.388984948399999531e-03,1.000000000000000000e+00
1.205126490000000050e+00,-2.638192787349999957e+00,2.660033813079999976e-01,-9.454406003360000810e+00,1.385398488489999851e-02,-1.160774496380000088e-03,-1.124900579449999993e-02,1.000000000000000000e+00
1.210145736999999944e+00,-2.647309575259999992e+00,2.302135443939999915e-01,-9.469465040800001177e+00,-2.288608578969999682e-03,-7.310187444090000125e-03,-1.282672770320000127e-02,1.000000000000000000e+00
1.215288796000000060e+00,-2.667596576490000260e+00,2.270411797019999955e-01,-9.416282901189999777e+00,5.486745852979998603e-03,-7.422662340100000256e-03,5.138429347430000481e-03,1.000000000000000000e+00
1.220145288999999966e+00,-2.636701964270000254e+00,2.231844312090000004e-01,-9.454112573370000661e+00,-3.247534856200000059e-03,-8.675761520860001547e-03,1.775969285520000076e-03,1.000000000000000000e+00
1.225130790999999997e+00,-2.638203893270000044e+00,2.552367438290000234e-01,-9.462605091910001320e+00,9.612729772929999930e-04,-1.072209700939999975e-02,-2.399085322390000132e-03,1.000000000000000000e+00
1.230155281000000045e+00,-2.647261059949999940e+00,2.518041572979999865e-01,-9.441489823160001293e+00,-1.821224810559999956e-03,-3.754142206159999905e-03,4.755809903140000884e-03,1.000000000000000000e+00
1.235296973999999937e+00,-2.631120657009999864e+00,2.148926228770000058e-01,-9.448224099850000002e+00,-7.876819930970000924e-03,7.449404802169999878e-04,9.277763310819999798e-04,1.000000000000000000e+00
1.240311028000000038e+00,-2.653854174600000171e+00,2.413114779210000227e-01,-9.421973221789999187e+00,8.755196817219998082e-03,-1.810277625919999925e-02,5.285521503540000117e-03,1.000000000000000000e+00
1.245157081999999971e+00,-2.645905261420000265e+00,2.152984819980000020e-01,-9.411706679319999935e+00,-7.863934151830001204e-03,-1.189719419929999820e-02,-3.759639803319999880e-03,1.000000000000000000e+00
1.250136136000000064e+00,-2.666734114440000081e+00,2.213217060770000244e-01,-9.394452762180000249e+00,9.442684240639999046e-03,-8.568977937100000219e-03,8.259225636720001623e-03,1.000000000000000000e+00
1.255302766000000014e+00,-2.646630068569999938e+00,2.378204392009999890e-01,-9.413561367270000702e+00,9.582601487639998746e-04,-1.739660161549999801e-03,8.306592702869999845e-03,1.000000000000000000e+00
1.260282542999999977e+00,-2.637010299569999994e+00,2.388606689689999896e-01,-9.430304412279999937e+00,-3.770400770009999913e-03,8.925681468099998630e-04,4.043910652399999861e-03,1.000000000000000000e+00
1.265131502000000019e+00,-2.649732418499999742e+00,2.556139248440000289e-01,-9.422961648300001158e+00,1.446466892960000111e-02,-8.064978756009999819e-03,9.251327719540000227e-04,1.000000000000000000e+00
1.270152469999999978e+00,-2.643832546800000127e+00,2.700561638300000289e-01,-9.402827791810000946e+00,6.127946078780000319e-03,-9.825609624389998811e-03,-4.444162361319999727e-03,1.000000000000000000e+00
1.275134670999999997e+00,-2.644944891959999822e+00,2.185694116939999876e-01,-9.435165296319999229e+00,1.170793198980000062e-03,-1.864819321779999980e-03,-5.651109386240001000e-04,1.000000000000000000e+00
1.280163734999999914e+00,-2.661004630879999944e+00,2.319302121190000010e-01,-9.416430785230000211e+00,-5.829707952220000494e-04,-5.441016051920000325e-03,-4.832432605329999888e-03,1.000000000000000000e+00
1.285148914000000087e+00,-2.677248201929999905e+00,2.438150399740000029e-01,-9.415468662200000338e+00,1.976707484569999868e-03,-2.524175215510000066e-03,1.721289008859999952e-03,1.000000000000000000e+00
1.290138119999999944e+00,-2.625192435999999852e+00,2.330449318950000015e-01,-9.409207263719999048e+00,7.007640087979999681e-04,-7.017104886470000406e-03,-1.264576218089999947e-03,1.000000000000000000e+00
1.295275849999999895e+00,-2.648240426370000122e+00,2.304577284140000015e-01,-9.444205511860001678e+00,-2.241819165650000157e-03,4.541038535539999345e-03,-5.990548525010000805e-03,1.000000000000000000e+00
1.300123174000000104e+00,-2.665498142899999756e+00,2.269723887819999897e-01,-9.425721176139999713e+00,-5.722808185959999371e-03,2.459412673489999677e-03,9.061127901080000963e-03,1.000000000000000000e+00
1.305148063999999941e+00,-2.644142635659999740e+00,2.365773072729999982e-01,-9.426219773319999717e+00,-1.941603259180000240e-03,1.312399981540000003e-03,-1.187543384729999890e-04,1.000000000000000000e+00
1.310138317999999913e+00,-2.609269767459999834e+00,2.378926459209999844e-01,-9.396296928739999998e+00,-5.276008043439999427e-03,3.487471258270000238e-03,-8.114395663140001186e-03,1.000000000000000000e+00
1.315294466999999967e+00,-2.700402867549999808e+00,2.341345537629999918e-01,-9.444519400119999020e+00,1.097036525610000160e-02,2.142875222490000196e-03,-2.076202537859999676e-03,1.000000000000000000e+00
1.320167172000000111e+00,-2.635180746050000078e+00,2.470378379450000050e-01,-9.450437684249999748e+00,5.813268478960000041e-03,-4.418876487760000325e-03,-1.089292392129999863e-02,1.000000000000000000e+00
1.325148717000000032e+00,-2.670452842700000051e+00,2.579099816259999844e-01,-9.432522672850000234e+00,-1.122961053619999944e-03,1.091976277529999907e-02,-3.440670901909999649e-03,1.000000000000000000e+00
1.330110925000000055e+00,-2.653716227429999908e+00,2.149843745479999846e-01,-9.447526765239999236e+00,1.334169134500000006e-02,-3.573395544659999871e-03,-7.947128266099999158e-03,1.000000000000000000e+00
1.335121065999999912e+00,-2.654843770159999838e+00,2.280412966550000031e-01,-9.441133264810000369e+00,3.870223183180000141e-03,4.000544548030000695e-03,-1.712315715850000215e-04,1.000000000000000000e+00
1.340115074999999933e+00,-2.620257025429999942e+00,2.102260193059999893e-01,-9.430783135710001375e+00,2.651341725139999897e-03,-1.348778605460000083e-04,-1.011333195490000166e-03,1.000000000000000000e+00
1.345187157000000022e+00,-2.637683961040000025e+00,1.875894958119999900e-01,-9.443173246200000648e+00,-8.127998560669999137e-03,-1.255536917600000128e-04,-2.930808579550000029e-03,1.000000000000000000e+00
1.350150669000000025e+00,-2.638079974620000101e+00,2.342376853440000239e-01,-9.419218954639999808e+00,7.246226305139999132e-04,2.574914367869999849e-03,-1.216045953329999985e-02,1.000000000000000000e+00
1.355118290999999919e+00,-2.673227860369999931e+00,2.453390712029999976e-01,-9.377273079320000093e+00,-5.006757099180000718e-03,-1.910321414470000229e-02,-8.198268711569998979e-03,1.000000000000000000e+00
1.360096380000000105e+00,-2.672943782729999995e+00,1.806360599450000104e-01,-9.429473806679999015e+00,-6.614266429100000913e-03,-1.559090800579999991e-02,-1.327430247329999900e-03,1.000000000000000000e+00
1.365172338000000041e+00,-2.655158242940000246e+00,2.041798892760000039e-01,-9.457125783710001343e+00,5.739079788329999599e-03,4.652305506170000687e-03,-2.760546747599999708e-03,1.000000000000000000e+00
1.370295703000000032e+00,-2.668399709559999611e+00,2.331229107690000191e-01,-9.408613973999999658e+00,-3.428313881159999674e-03,-4.211388062689999830e-03,5.914376582949999739e-03,1.000000000000000000e+00
1.375273799999999991e+00,-2.649450386679999880e+00,2.319164210559999939e-01,-9.412079019760000165e+00,-4.855155944819999903e-03,-1.331173814829999733e-02,3.083300311120000178e-03,1.000000000000000000e+00
1.380257204000000071e+00,-2.654635972629999952e+00,1.972367921400000057e-01,-9.437776940119999125e+00,-1.778689958159999918e-02,7.270731031890000085e-03,-2.307162154469999480e-03,1.000000000000000000e+00
1.385167022000000081e+00,-2.689544204400000194e+00,1.996153395730000113e-01,-9.433338080889999588e+00,-2.573116682469999642e-03,1.055004308000000082e-03,1.561906933779999909e-02,1.000000000000000000e+00
1.390152998000000029e+00,-2.602323017070000244e+00,2.306732160619999750e-01,-9.411364734010000177e+00,3.711280878630000531e-04,-1.926617464049999858e-03,-2.709780586880000067e-03,1.000000000000000000e+00
1.395301342000000000e+00,-2.664163679430000098e+00,2.136839412070000166e-01,-9.462849422060001459e+00,1.179710216819999935e-02,1.029463578020000172e-02,-4.970578476789999645e-03,1.000000000000000000e+00
1.400169672000000087e+00,-2.640148597590000090e+00,2.231121696900000007e-01,-9.453547925219998760e+00,-1.196722034359999978e-02,-6.541019305589999833e-03,4.405601415780000148e-03,1.000000000000000000e+00
1.405136554000000038e+00,-2.603089909789999989e+00,2.198148999769999890e-01,-9.433632679920000541e+00,-4.225706681610000293e-03,4.152126610280000053e-03,-1.914204284550000135e-02,1.000000000000000000e+00
1.410071821000000059e+00,-2.684030701679999797e+00,2.182770959499999996e-01,-9.467476497330000740e+00,1.670839451249999871e-02,4.961583763359999656e-03,6.448732223359999322e-03,1.000000000000000000e+00
1.415279772000000102e+00,-2.584423495500000278e+00,2.769178845599999939e-01,-9.417224565960001570e+00,1.320323720570000178e-02,5.949786864219999910e-04,-7.822745479640000332e-03,1.000000000000000000e+00
1.420176520000000053e+00,-2.699018719709999736e+00,2.592815622399999853e-01,-9.423345094660000143e+00,3.848579712210000153e-03,-9.514930658040000530e-03,-4.234986845400000050e-04,1.000000000000000000e+00
1.425293858000000080e+00,-2.646865630890000265e+00,1.890848672029999955e-01,-9.415223163010001173e+00,5.483105778689999037e-03,9.096558205780001793e-04,-6.760106887670000106e-03,1.000000000000000000e+00
1.430283342999999929e+00,-2.641298352150000195e+00,1.924257203299999941e-01,-9.432578786949999738e+00,-8.322370238599999942e-03,5.415458232160000156e-03,-4.951594863089999778e-03,1.000000000000000000e+00
1.435309422000000001e+00,-2.642171335590000059e+00,2.317272368930000104e-01,-9.423546754710001139e+00,2.403587102889999903e-03,-8.991545066239999690e-03,1.298582181329999792e-03,1.000000000000000000e+00
1.440119294999999910e+00,-2.619785024000000018e+00,2.136689263010000117e-01,-9.441790851939998674e+00,-2.589262556280000089e-03,-1.640520617370000087e-02,4.502173513170000356e-03,1.000000000000000000e+00
1.445140717999999991e+00,-2.633678232529999885e+00,2.530920051509999991e-01,-9.434063472549999219e+00,-2.980159595610000142e-03,5.493054166439999622e-03,-1.274780370299999853e-04,1.000000000000000000e+00
1.450136018000000027e+00,-2.674485459220000028e+00,2.196876933999999948e-01,-9.455773200060001216e+00,6.640780251469999979e-03,-2.482091542329999991e-03,3.542286343870000142e-03,1.000000000000000000e+00
1.455117832000000000e+00,-2.625076992929999964e+00,2.126573746390000019e-01,-9.437087204289998255e+00,1.283220294859999978e-02,-9.251873008910000210e-03,-1.008013263339999945e-02,1.000000000000000000e+00
1.460288403000000068e+00,-2.672859027059999892e+00,2.197896924699999643e-01,-9.440510748999999535e+00,-1.737994491120000004e-03,-1.399024482820000054e-02,-2.946476219219999748e-03,1.000000000000000000e+00
1.465161031999999919e+00,-2.641294552759999803e+00,2.290104887469999739e-01,-9.465103338460000515e+00,1.846265420320000045e-02,-4.300880245859999766e-04,-2.746179234240000294e-04,1.000000000000000000e+00
1.470299559000000089e+00,-2.668906490039999913e+00,2.269781792020000022e-01,-9.437935345549998800e+00,-5.803336855020000198e-03,-4.008301533760000313e-03,6.357906386259999654e-04,1.000000000000000000e+00
1.475282953000000008e+00,-2.687442555950000145e+00,2.080446932109999980e-01,-9.420350589019999887e+00,-2.802070695909999586e-03,-1.114279218020000108e-02,1.879937388000000112e-02,1.000000000000000000e+00
1.480290005000000075e+00,-2.605293557309999564e+00,2.031763017240000024e-01,-9.426731814489999195e+00,-9.619423188270000494e-03,-6.507339421660000324e-03,2.957563381640000277e-03,1.000000000000000000e+00
1.485144864000000009e+00,-2.652912509840000155e+00,1.817955139119999952e-01,-9.431938735489998393e+00,-1.518103946000000024e-02,-6.316320504990000822e-04,8.402108214799999981e-04,1.000000000000000000e+00
1.490177966000000076e+00,-2.644612883519999791e+00,2.446672363560000174e-01,-9.442557744660000196e+00,-3.755515441300000083e-03,-1.426583342250000060e-02,5.365699995310000033e-03,1.000000000000000000e+00
1.495103003999999958e+00,-2.645698925200000051e+00,2.366457511329999874e-01,-9.412326857040000050e+00,9.701856179160000876e-04,-2.880215458570000234e-02,4.366279114040000353e-03,1.000000000000000000e+00
1.500288593000000059e+00,-2.654766613270000075e+00,2.402273542130000106e-01,-9.412249700149999398e+00,-1.758990623059999980e-02,-1.490239240229999929e-02,6.188109051439999626e-03,1.000000000000000000e+00
1.505156801999999905e+00,-2.665605987190000192e+00,2.366113922049999929e-01,-9.423732048150000651e+00,-6.229383870960000097e-03,1.508705690500000002e-02,6.168805528430000573e-03,1.000000000000000000e+00
1.510115678000000017e+00,-2.629480488579999609e+00,2.254927446840000183e-01,-9.460237193730000271e+00,-4.879796411840000084e-03,4.089039284740000608e-04,1.617061439900000040e-03,1.000000000000000000e+00
1.515275933999999936e+00,-2.645941501779999872e+00,2.474697265559999970e-01,-9.401464102240000287e+00,-2.153919637200000375e-02,-5.979610607029998970e-03,-2.818208187820000436e-03,1.000000000000000000e+00
1.520181685000000060e+00,-2.668428058880000009e+00,2.258400785500000174e-01,-9.418592931699999227e+00,-1.064596138890000140e-02,4.844933748250000206e-03,1.438105478879999830e-02,1.000000000000000000e+00
1.525130193000000078e+00,-2.637919231100000150e+00,2.510880266509999958e-01,-9.401106959369998961e+00,4.715086892249999856e-03,-2.410158887509999959e-02,-8.233324624600000608e-04,1.000000000000000000e+00
1.530288976000000023e+00,-2.670982419529999596e+00,2.387274162449999904e-01,-9.458062772299999921e+00,-1.305896602570000113e-02,-9.350541979069999093e-03,-3.014012705530000249e-03,1.000000000000000000e+00
1.535309967000000109e+00,-2.691552913880000286e+00,2.520526704320000255e-01,-9.429570252789998719e+00,-1.699959859249999816e-02,-1.582278870049999911e-02,6.045119371270000694e-03,1.000000000000000000e+00
1.540262613999999974e+00,-2.661221780759999600e+00,2.350804380449999786e-01,-9.464209019969999304e+00,-6.054605357350000515e-03,-4.418399650600000027e-03,2.499299589540000116e-03,1.000000000000000000e+00
1.545152842000000026e+00,-2.689300458770000457e+00,2.270535459930000111e-01,-9.435133732129999728e+00,-1.100857555870000080e-02,-9.203543886539998975e-04,6.534063722940000075e-03,1.000000000000000000e+00
1.550104834999999959e+00,-2.653047534390000184e+00,1.932432655240000074e-01,-9.484447505880000406e+00,-1.781850494440000154e-02,-1.457324344659999965e-02,3.329772502179999781e-03,1.000000000000000000e+00
1.555293327000000003e+00,-2.648812381039999941e+00,2.122466749460000246e-01,-9.487014726019999955e+00,-1.629422046240000185e-02,-9.819622151549998318e-03,-1.272251829500000006e-03,1.000000000000000000e+00
1.560149487999999973e+00,-2.634365338020000280e+00,2.529162832580000297e-01,-9.454343459520000437e+00,-5.509776063260000620e-03,3.627893282100000134e-03,-5.539576057339999984e-03,1.000000000000000000e+00
1.565151226000000007e+00,-2.665271640669999886e+00,2.530103364829999757e-01,-9.455857371210001361e+00,-1.990715041759999818e-02,7.904814556239999832e-03,-9.301921352739999857e-03,1.000000000000000000e+00
1.570313819000000111e+00,-2.660464240390000068e+00,2.602950866640000305e-01,-9.430261742180000795e+00,-1.309640333060000175e-02,1.945422729479999880e-03,-5.048277322199999639e-03,1.000000000000000000e+00
1.575256395000000031e+00,-2.677660874379999889e+00,2.068000817110000056e-01,-9.434134784219999403e+00,4.433502443130000331e-03,-4.953638650479999517e-03,-1.013029715980000040e-03,1.000000000000000000e+00
1.580270499999999911e+00,-2.643030582770000247e+00,1.436634703870000029e-01,-9.437787461510000142e+00,5.628196522590000160e-03,-2.927668951449999973e-02,-5.395678803320000036e-03,1.000000000000000000e+00
1.585165960000000096e+00,-2.647532278099999914e+00,1.639833418349999905e-01,-9.422679908750000166e+00,-7.858558557930000674e-03,-2.191295474770000098e-02,-3.024385310709999924e-03,1.000000000000000000e+00
1.590124360999999986e+00,-2.696996566229999726e+00,1.464387437859999974e-01,-9.405814698669999530e+00,-5.452699959279999273e-03,-1.465897168959999844e-02,3.093373496090000199e-03,1.000000000000000000e+00
1.595105267999999965e+00,-2.650261703069999975e+00,1.426059880899999965e-01,-9.420060081639999083e+00,-1.626995392139999816e-02,-1.537849009039999985e-02,5.463540088390000417e-03,1.000000000000000000e+00
1.600108815000000018e+00,-2.658380127590000086e+00,1.988166817419999843e-01,-9.393583578130000333e+00,-2.395525947209999756e-02,9.885651059450000985e-03,8.795186877250000266e-04,1.000000000000000000e+00
1.605122033000000004e+00,-2.596623051859999975e+00,1.863264536070000088e-01,-9.439266886420000446e+00,-2.719157375399999972e-03,-4.702866077420000089e-03,-6.686618551609999073e-03,1.000000000000000000e+00
1.610245670000000073e+00,-2.663382758190000033e+00,1.747075832119999728e-01,-9.415918744049999844e+00,-2.390099316840000113e-02,-3.653557039800000086e-03,9.352758526799998667e-03,1.000000000000000000e+00
1.615279547000000093e+00,-2.620979202220000026e+00,1.745505112200000097e-01,-9.431600297310000158e+00,-2.487028203900000164e-02,-9.458050131799998830e-03,6.799805443729998837e-03,1.000000000000000000e+00
1.620159302000000023e+00,-2.614380242350000216e+00,2.366491669319999991e-01,-9.404499524419998480e+00,-1.345207542179999854e-02,-1.071373466399999988e-02,-1.009307801719999936e-03,1.000000000000000000e+00
1.625305339000000071e+00,-2.670191853680000005e+00,1.982480515410000033e-01,-9.451398053710001079e+00,-3.325215354560000225e-02,1.092946156860000011e-02,1.010336354370000057e-02,1.000000000000000000e+00
1.630147041000000074e+00,-2.592330907620000069e+00,2.101660875459999966e-01,-9.435696626709999535e+00,-4.557548090819999766e-03,-1.404422521589999973e-02,-2.499155700210000091e-03,1.000000000000000000e+00
1.635224424000000010e+00,-2.638563374229999869e+00,2.033742902479999948e-01,-9.397367188320000508e+00,-1.773952879009999678e-02,-2.519456110890000086e-02,6.642291788009999955e-03,1.000000000000000000e+00
1.640158857999999942e+00,-2.727721959370000171e+00,1.566825903680000021e-01,-9.450625315779999980e+00,-1.927273161709999738e-02,-1.695073954759999946e-02,3.882712125780000273e-02,1.000000000000000000e+00
1.645285746000000104e+00,-2.561142573159999714e+00,1.063426610459999866e-01,-9.475494968619999625e+00,-1.243600435549999973e-02,-2.060885354879999840e-02,1.002509705720000012e-02,1.000000000000000000e+00
1.650286316000000086e+00,-2.670787189220000357e+00,1.492705148800000103e-01,-9.462702122539999650e+00,8.091878145929999253e-03,-2.964544296259999726e-02,3.750448301430000381e-02,1.000000000000000000e+00
1.655295348000000111e+00,-2.479204586919999898e+00,1.110239324630000052e-01,-9.424847315919999247e+00,-5.362838506699999647e-03,-4.170130006969999421e-03,4.024673253299999864e-02,1.000000000000000000e+00
1.660284773000000103e+00,-2.568954708209999716e+00,1.198218910859999986e-01,-9.547376547999999019e+00,3.394316509370000345e-02,-1.468347478660000059e-02,3.984306752680000230e-02,1.000000000000000000e+00
1.665163535000000028e+00,-2.706338979599999917e+00,1.511768599580000094e-01,-9.542088378469999910e+00,2.225113101300000076e-02,-2.921095862979999902e-02,5.485657230019999608e-02,1.000000000000000000e+00
1.670298939000000038e+00,-2.446236091039999838e+00,1.930847504940000070e-01,-9.412104738720000086e+00,3.348030149940000449e-02,-5.661860853430000090e-02,5.796855315569999362e-02,1.000000000000000000e+00
1.675276108000000042e+00,-2.533824358119999953e+00,1.116733271500000013e-01,-9.503625669079999838e+00,4.981473088259999460e-02,-7.581765949730000231e-02,6.834582239389999647e-02,1.000000000000000000e+00
1.680269612000000023e+00,-2.655227801040000113e+00,9.839486211269998783e-02,-9.449159334880000927e+00,5.913778394460000171e-02,-8.515854179860000983e-02,6.616353243590000766e-02,1.000000000000000000e+00
1.685169452000000012e+00,-2.739131242130000032e+00,1.833491365619999980e-01,-9.413574811280000176e+00,5.007137730719999485e-02,-9.775719046589997907e-02,7.885841280220000360e-02,1.000000000000000000e+00
1.690123540999999951e+00,-2.676813902170000148e+00,3.815842555569999850e-01,-9.466991344169999323e+00,3.620637953280000237e-02,-1.136550679800000102e-01,5.096654221419999464e-02,1.000000000000000000e+00
1.695119236999999890e+00,-2.784467052159999678e+00,4.328887647280000306e-01,-9.466128005330000761e+00,3.188736364249999955e-02,-1.080519109960000057e-01,5.642471089959999464e-02,1.000000000000000000e+00
1.700260316999999910e+00,-2.693602539879999647e+00,3.638893531840000084e-01,-9.441240232320000203e+00,2.782363072039999857e-02,-8.211080729960000546e-02,4.794180020690000377e-02,1.000000000000000000e+00
1.705147098999999944e+00,-2.643909119169999933e+00,2.327619685020000107e-01,-9.585340075689998685e+00,5.447697639469999825e-02,-6.761935353280000560e-02,4.698472097519999086e-02,1.000000000000000000e+00
1.710290717999999988e+00,-2.736723304209999874e+00,2.179971464979999773e-01,-9.527553072630000841e+00,6.195629388090000828e-02,-7.334802299739999476e-02,6.525839120149999617e-02,1.000000000000000000e+00
1.715151477000000035e+00,-2.751215647680000043e+00,4.129437453410000347e-01,-9.434924473300000614e+00,5.253130570050000558e-02,-9.183333069089999467e-02,5.300885066390000067e-02,1.000000000000000000e+00
1.720139260000000059e+00,-2.671108091740000301e+00,3.504180598559999971e-01,-9.348124141719999614e+00,5.188897624610000481e-02,-8.439105004069999416e-02,3.367325663569999822e-02,1.000000000000000000e+00
1.725290548000000035e+00,-2.743905909190000436e+00,5.068121521380000161e-01,-9.303544995279999341e+00,4.687437787650000631e-02,-8.530782163139999374e-02,2.413167804480000067e-02,1.000000000000000000e+00
1.730267511000000091e+00,-2.795228100140000116e+00,4.092550468909999517e-01,-9.319782428859999968e+00,3.525178879499999557e-02,-8.305378258230000643e-02,2.407361939549999830e-02,1.000000000000000000e+00
1.735295664999999987e+00,-2.732706469779999647e+00,1.992260662610000066e-01,-9.380440603440000302e+00,3.220450133089999833e-02,-6.747549027200000493e-02,1.532668434080000121e-02,1.000000000000000000e+00
1.740183006999999948e+00,-2.802013522499999798e+00,1.825022739419999984e-01,-9.281555281789998446e+00,2.854207344349999828e-02,-3.828504681590000347e-02,4.695490468289999740e-03,1.000000000000000000e+00
1.745151917999999913e+00,-2.776023633459999473e+00,1.384795284099999690e-01,-9.395168216970001041e+00,5.334894172850000553e-03,-3.620580583809999975e-02,1.201700046659999986e-02,1.000000000000000000e+00
1.750296437999999899e+00,-2.716138489079999996e+00,1.440716219289999989e-01,-9.403481287289999102e+00,8.489239029589999708e-03,-1.582141220570000215e-02,2.910233475270000356e-02,1.000000000000000000e+00
1.755152135999999974e+00,-2.703964651679999776e+00,1.128280318760000039e-01,-9.451382271619999997e+00,1.910304278140000089e-02,-4.473191499710000435e-02,2.623844705520000237e-02,1.000000000000000000e+00
1.760155109000000051e+00,-2.708666838020000078e+00,1.618376167770000096e-01,-9.422005370489998199e+00,2.571337856349999867e-02,-2.827518619599999825e-02,2.743253670630000154e-02,1.000000000000000000e+00
1.765124785000000029e+00,-2.713762407599999982e+00,1.199316259369999915e-01,-9.442766418969998909e+00,1.599632017310000098e-02,-6.104667857289999833e-02,4.490034654740000103e-02,1.000000000000000000e+00
1.770282155999999940e+00,-2.701493000870000216e+00,1.104116183850000071e-01,-9.457223398869999187e+00,5.189128592609999757e-02,-6.601405143739999537e-02,3.892133384940000412e-02,1.000000000000000000e+00
1.775279099000000027e+00,-2.766810399430000178e+00,2.578524975509999817e-01,-9.475306168049998590e+00,4.966948926450000246e-02,-7.015673816200000690e-02,5.096951499580000544e-02,1.000000000000000000e+00
1.780136254000000084e+00,-2.752295259609999878e+00,2.162515084069999982e-01,-9.491518467180000584e+00,6.091835722330000286e-02,-7.776531577110000482e-02,3.145084902640000318e-02,1.000000000000000000e+00
1.785029999000000034e+00,-2.967826015990000510e+00,2.328187219240000216e-01,-9.419702938769999534e+00,7.117661088710000583e-02,-7.902404665949999685e-02,5.313145741820000240e-02,1.000000000000000000e+00
1.789923295999999997e+00,-2.893740789079999765e+00,2.393945383839999885e-01,-9.346985493080000040e+00,9.001979231830001260e-02,-5.069522559640000231e-02,3.717636317010000052e-02,1.000000000000000000e+00
1.794961840999999891e+00,-2.833809175209999864e+00,3.103951519489999700e-01,-9.358046400800001052e+00,7.160428166389999627e-02,-6.955499202010001492e-02,2.906142361459999879e-02,1.000000000000000000e+00
1.800003655000000036e+00,-2.840112367009999694e+00,3.586201075439999775e-01,-9.279892901539998462e+00,6.818517297510000297e-02,-5.208650603889999897e-02,2.832455746829999968e-02,1.000000000000000000e+00
1.804998249999999915e+00,-2.751417015469999949e+00,3.148931209549999943e-01,-9.348910323660000188e+00,4.431552067399999878e-02,-3.140411898490000353e-02,2.644372545179999798e-02,1.000000000000000000e+00
1.809992092999999969e+00,-2.669895208819999866e+00,3.134239617179999660e-01,-9.355486194919999221e+00,4.267673939469999317e-02,-2.235058695079999991e-02,1.469652913510000047e-02,1.000000000000000000e+00
1.815121511999999937e+00,-2.727297011949999739e+00,2.587454643359999862e-01,-9.358191362230000365e+00,4.069732874630000580e-02,-9.125428274270000473e-03,2.383481152359999758e-02,1.000000000000000000e+00
1.820210627000000025e+00,-2.804353655889999963e+00,2.166831960889999964e-01,-9.303110111000000515e+00,5.551258102059999228e-02,-2.032650820909999781e-02,3.234031051399999940e-02,1.000000000000000000e+00
1.825298053000000031e+00,-2.738238092680000069e+00,2.047466563129999861e-01,-9.278834916919999287e+00,3.374947980049999852e-02,-1.463183946909999908e-02,4.307143017649999600e-02,1.000000000000000000e+00
1.830258850999999964e+00,-2.662727509149999783e+00,2.742622920169999756e-01,-9.334481400819999664e+00,4.198646917940000028e-02,-5.016921088100000092e-02,4.080932587390000144e-02,1.000000000000000000e+00
1.835148661000000070e+00,-2.693228445869999987e+00,3.643433074970000018e-01,-9.384297863389999605e+00,3.966530784959999834e-02,-5.191192403440000186e-02,3.768775239590000520e-02,1.000000000000000000e+00
1.840089824999999957e+00,-2.708709800379999866e+00,3.762889986929999764e-01,-9.395131392090000588e+00,1.899713464079999872e-02,-4.140503332019999927e-02,2.179724164309999879e-02,1.000000000000000000e+00
1.845257061000000087e+00,-2.777809347829999886e+00,2.648501926849999855e-01,-9.368176749670000802e+00,3.821630030869999778e-02,-4.731660336260000432e-02,2.195509523149999712e-02,1.000000000000000000e+00
1.850120090000000106e+00,-2.767266618770000353e+00,2.022282802840000004e-01,-9.313310602499999646e+00,4.904120042920000200e-02,-3.267958015199999566e-02,2.483697235579999940e-02,1.000000000000000000e+00
1.855152660999999981e+00,-2.771921458840000074e+00,1.427707501980000071e-01,-9.310573871009999891e+00,4.742131754759999762e-02,-3.635140880940000013e-02,3.143943101169999893e-02,1.000000000000000000e+00
1.860135341000000109e+00,-2.718775851840000257e+00,2.285587811910000100e-01,-9.275473916050000156e+00,4.373295977710000421e-02,-4.299969971180000322e-02,3.305434808140000208e-02,1.000000000000000000e+00
1.865151398000000071e+00,-2.707380597599999827e+00,2.925991638219999635e-01,-9.288488295929999694e+00,1.483143586670000041e-02,-5.998745933180000406e-02,3.975417464969999842e-02,1.000000000000000000e+00
1.870119368999999976e+00,-2.696160992190000272e+00,3.286355228430000164e-01,-9.263754252170000925e+00,9.116608649489999980e-03,-6.676509231329999516e-02,2.093282528219999813e-02,1.000000000000000000e+00
1.875130310999999939e+00,-2.777126333999999641e+00,4.694622263009999852e-01,-9.212067904069998647e+00,1.110358047299999946e-03,-7.599063962700000618e-02,3.975883126259999872e-02,1.000000000000000000e+00
1.880273650999999990e+00,-2.715370719580000092e+00,5.569112675749999797e-01,-9.278279036599998975e+00,1.654538884760000175e-02,-8.241582661870000548e-02,2.649802528319999961e-02,1.000000000000000000e+00
1.885168857999999892e+00,-2.750641062659999747e+00,7.291837508600000906e-01,-9.289843802189999167e+00,1.107888016849999969e-02,-7.250799238680000203e-02,4.482485726480000404e-02,1.000000000000000000e+00
1.890145492999999899e+00,-2.670989141540000222e+00,8.957900250779999851e-01,-9.411921783369999517e+00,1.304420549420000006e-02,-7.500542700289998532e-02,2.922413311900000019e-02,1.000000000000000000e+00
1.895274512000000078e+00,-2.708905322950000194e+00,7.482105228919999629e-01,-9.427209368879999829e+00,2.683539874849999798e-02,-7.589522004130000443e-02,2.683378942309999973e-02,1.000000000000000000e+00
1.900129568000000102e+00,-2.701277020030000031e+00,5.821229387859999660e-01,-9.387133379069998895e+00,4.481961950659999611e-02,-8.085580915209999997e-02,8.255356922749999826e-03,1.000000000000000000e+00
1.905163409999999891e+00,-2.740097456810000054e+00,3.271448093609999885e-01,-9.305040786799999353e+00,6.689367443319998996e-02,-9.224285185340000415e-02,3.824031911790000144e-03,1.000000000000000000e+00
1.910129889000000025e+00,-2.744571387360000170e+00,1.291749537069999954e-01,-9.354497183889998624e+00,6.928730756039999661e-02,-8.100700378420000458e-02,1.522074826060000087e-02,1.000000000000000000e+00
1.915128104000000109e+00,-2.789796722749999791e+00,5.414542711889999693e-03,-9.381973219829999877e+00,7.309214025739999010e-02,-8.480341732500000507e-02,2.421918883920000029e-02,1.000000000000000000e+00
1.920177744000000075e+00,-2.745512467599999784e+00,-8.112266039760000769e-02,-9.337939432320000677e+00,5.336983501910000371e-02,-1.129707992080000029e-01,2.343705296519999967e-02,1.000000000000000000e+00
1.925282219999999933e+00,-2.741404740020000119e+00,-2.289111474259999945e-02,-9.340946797439999116e+00,3.969259932639999933e-02,-1.019478961830000002e-01,2.408413216469999785e-02,1.000000000000000000e+00
1.930267469999999985e+00,-2.910505461399999660e+00,-1.211272015299999921e-01,-9.347721406139999800e+00,1.135440915819999931e-02,-7.828893512489999706e-02,3.326282650229999555e-02,1.000000000000000000e+00
1.935275502000000092e+00,-2.903038778780000051e+00,-1.687101876940000078e-01,-9.345214976279999419e+00,2.274431847040000315e-02,-1.007219702009999884e-01,4.253311082719999497e-02,1.000000000000000000e+00
1.940152442000000033e+00,-2.802069928859999948e+00,-3.441819236790000236e-02,-9.330272843210000389e+00,1.495039742440000020e-02,-9.982492029669999545e-02,3.500197082759999578e-02,1.000000000000000000e+00
1.945290149000000079e+00,-2.848096643759999935e+00,-1.074577096159999995e-01,-9.384725733410000714e+00,-4.237542860209999977e-03,-8.345529437069999779e-02,5.270304158329999766e-02,1.000000000000000000e+00
1.950270412999999925e+00,-2.783669472040000148e+00,-1.139269512949999952e-01,-9.428773549449999791e+00,-5.750880576669999827e-03,-8.246605098249999710e-02,5.757408961649999879e-02,1.000000000000000000e+00
1.955289768999999955e+00,-2.796447705070000289e+00,9.169724590389999319e-02,-9.452458376419999198e+00,-2.695095725359999712e-03,-9.138274937870000114e-02,6.086668744680000243e-02,1.000000000000000000e+00
1.960152453000000072e+00,-2.830188938890000117e+00,1.444433139190000048e-01,-9.431855733380000828e+00,-2.179046720270000001e-02,-8.589348196979999794e-02,4.826908186080000607e-02,1.000000000000000000e+00
1.965149746999999891e+00,-2.837014400990000240e+00,1.161685836089999951e-01,-9.387251452499999260e+00,-2.666804566980000152e-02,-8.783343434330000143e-02,5.546086654069998928e-02,1.000000000000000000e+00
1.970029634999999946e+00,-2.677214299659999686e+00,5.470551782020000552e-03,-9.331400970460000721e+00,-3.245950862770000112e-02,-8.009114116430000874e-02,6.147976592180000310e-02,1.000000000000000000e+00
1.975099590999999988e+00,-2.568420747459999820e+00,-1.893091614950000168e-02,-9.372674645610000965e+00,-3.714254871009999709e-02,-9.197919070719999535e-02,4.837920144200000272e-02,1.000000000000000000e+00
1.980069348000000007e+00,-2.755218745839999706e+00,3.621329790699999440e-02,-9.377572354530000709e+00,-3.748701885340000040e-02,-8.471585065130000924e-02,6.325247138740000552e-02,1.000000000000000000e+00
1.985100674999999981e+00,-2.844727167329999862e+00,9.347018299369999617e-02,-9.424626951169999600e+00,-6.054102629420000242e-02,-9.070488810540000557e-02,4.242561757559999702e-02,1.000000000000000000e+00
1.990100428999999949e+00,-2.950529721020000107e+00,1.572339223739999958e-01,-9.359372096450000456e+00,-7.205927371980000440e-02,-1.148674339060000021e-01,5.302149802450000643e-02,1.000000000000000000e+00
1.995144451000000041e+00,-3.066263886129999783e+00,3.027296770890000044e-01,-9.380824634319999689e+00,-9.305077791210000782e-02,-9.672846645120000697e-02,4.141547903420000204e-02,1.000000000000000000e+00
2.000115638000000029e+00,-3.025616233920000120e+00,2.319414276330000191e-01,-9.435150683270000727e+00,-8.278130739930000814e-02,-8.329013735060000756e-02,2.914014272389999979e-02,1.000000000000000000e+00
2.005090956000000091e+00,-3.046841392779999769e+00,2.460088236909999948e-01,-9.461327327050000235e+00,-9.134857356550001029e-02,-4.780851677059999583e-02,2.467925846580000179e-02,1.000000000000000000e+00
2.010157170999999909e+00,-3.000335369929999718e+00,7.898064340020000129e-02,-9.369203170109999590e+00,-9.506541490549999529e-02,-3.671955317259999879e-02,1.294240728019999988e-02,1.000000000000000000e+00
2.015144612999999918e+00,-2.999165741629999715e+00,-9.654913378130000612e-02,-9.298417569269998850e+00,-1.057182848449999962e-01,-3.730857372280000500e-02,1.573875173929999843e-02,1.000000000000000000e+00
2.020293412000000011e+00,-2.896879671629999820e+00,-8.959198757020000320e-03,-9.320097486159999889e+00,-1.107486486429999917e-01,-4.854694381360000199e-02,6.362912245090001327e-04,1.000000000000000000e+00
2.025289286000000022e+00,-2.880288894580000036e+00,5.028955084169999673e-02,-9.308821474380000183e+00,-1.411470025780000026e-01,-3.699317574500000233e-02,2.271893620490000182e-02,1.000000000000000000e+00
2.030268389999999812e+00,-2.874193208049999892e+00,2.445333991099999937e-01,-9.285057152440000294e+00,-1.497357338670000093e-01,-3.693202883010000132e-02,1.892445981499999916e-02,1.000000000000000000e+00
2.035250254999999786e+00,-2.709253990259999689e+00,2.498192488250000065e-01,-9.303498233530000050e+00,-1.418451815840000019e-01,-5.197127908469999918e-02,2.440333832060000152e-03,1.000000000000000000e+00
2.040158373000000136e+00,-2.701342194219999993e+00,3.036093642659999925e-01,-9.400043714049999721e+00,-1.430968940260000100e-01,-4.592962190509999876e-02,-5.577259231359999077e-03,1.000000000000000000e+00
2.045286256999999885e+00,-2.811202206609999976e+00,3.936996772970000058e-01,-9.476533664010000635e+00,-1.401667445900000031e-01,-2.801168523730000054e-02,-8.211431093510000029e-03,1.000000000000000000e+00
2.050275055999999818e+00,-2.904466765759999625e+00,3.528152937229999675e-01,-9.432692768719999066e+00,-1.280057281260000013e-01,-4.468678683040000488e-02,-1.540685817600000000e-02,1.000000000000000000e+00
2.055273396000000030e+00,-2.970042230739999845e+00,4.363602036979999932e-01,-9.434432305870000590e+00,-1.349968016149999950e-01,-5.024217441680000479e-02,-3.178542852400000063e-02,1.000000000000000000e+00
2.060131908999999872e+00,-3.109161070829999929e+00,6.121750722980000559e-01,-9.375873149389999384e+00,-1.151566803460000038e-01,-4.424708709119999639e-02,-4.281531646850000178e-02,1.000000000000000000e+00
2.065129730000000219e+00,-3.104144119449999906e+00,5.308586520279999776e-01,-9.418753090700000996e+00,-1.024478301410000070e-01,-2.965622022749999850e-02,-4.738513380289999938e-02,1.000000000000000000e+00
2.070144705999999779e+00,-2.934474366009999891e+00,2.960700365360000030e-01,-9.415176985780000507e+00,-9.396380186080000030e-02,2.377389743920000145e-02,-6.719940900800000505e-02,1.000000000000000000e+00
2.075151858999999988e+00,-2.908721792860000210e+00,-1.180557033970000003e-01,-9.410585566330000873e+00,-7.214337587360000748e-02,4.901562258600000027e-02,-6.571956723930000299e-02,1.000000000000000000e+00
2.080147075999999817e+00,-2.879456243139999927e+00,-4.807117610589999729e-02,-9.416976728669999019e+00,-7.318602502349999539e-02,4.204712063069999950e-02,-5.968752875919999812e-02,1.000000000000000000e+00
2.085141831000000057e+00,-3.038398266340000209e+00,1.557501683560000016e-01,-9.438492979430000318e+00,-6.855522841219999219e-02,5.700041353699999980e-02,-6.003318354489999703e-02,1.000000000000000000e+00
2.090154490000000198e+00,-3.078106884140000332e+00,2.911543353080000007e-01,-9.332629050950000504e+00,-1.087176501749999996e-01,4.911843314770000107e-02,-5.169679224490000141e-02,1.000000000000000000e+00
2.095276375000000080e+00,-3.019707302140000049e+00,4.657870814519999847e-01,-9.348809201379999934e+00,-1.233240365980000086e-01,3.507748618719999656e-02,-6.256679445509999438e-02,1.000000000000000000e+00
2.100032751000000086e+00,-3.063387453909999891e+00,4.973475736999999897e-01,-9.411187623880000075e+00,-8.718786388639999940e-02,5.749057605859999448e-02,-4.916321858760000496e-02,1.000000000000000000e+00
2.105101306999999977e+00,-3.012437895659999754e+00,5.618282657109999745e-01,-9.394107894260001146e+00,-8.103571087119999794e-02,6.602295488119999667e-02,-7.641269266609999888e-02,1.000000000000000000e+00
2.110098945999999920e+00,-3.034916853969999995e+00,5.484754841960000071e-01,-9.418353277719999639e+00,-5.573854222889999821e-02,7.643938064579999803e-02,-8.378561586139998685e-02,1.000000000000000000e+00
2.115106563999999967e+00,-3.048232262620000022e+00,5.646073019699999751e-01,-9.466997773910000191e+00,-2.048593200740000259e-02,1.038905680179999930e-01,-7.024747133260000886e-02,1.000000000000000000e+00
2.120121479999999892e+00,-2.937095946690000403e+00,4.786804287619999543e-01,-9.473065111120000381e+00,-1.779220625759999827e-02,7.959380000830000579e-02,-7.993876188989999798e-02,1.000000000000000000e+00
2.125097945999999904e+00,-2.987285041959999887e+00,4.379798042570000050e-01,-9.500399108250000779e+00,-1.209439523520000094e-02,6.549435853960000609e-02,-6.077445298430000226e-02,1.000000000000000000e+00
2.130292707000000174e+00,-2.869827706320000171e+00,4.671880708230000123e-01,-9.545843931609999444e+00,-1.925004832450000203e-02,4.212526604530000135e-02,-8.240781724449999790e-02,1.000000000000000000e+00
2.135141992999999960e+00,-2.952456012900000371e+00,5.175692546050000287e-01,-9.498374908939998917e+00,6.576271727680000311e-03,4.717597737909999533e-02,-6.387552618980001096e-02,1.000000000000000000e+00
2.140145181999999924e+00,-2.833918480809999529e+00,3.480088067570000221e-01,-9.423001395789999179e+00,3.988991957159999588e-03,3.379606828089999626e-02,-8.814739435910001752e-02,1.000000000000000000e+00
2.145167099000000022e+00,-2.838386273870000309e+00,1.871040138500000283e-01,-9.440039624349999769e+00,1.465386990460000073e-02,1.874080486600000067e-02,-8.404429256919999924e-02,1.000000000000000000e+00
2.150143642999999827e+00,-2.802837698370000297e+00,2.375589387210000070e-01,-9.495784307930000168e+00,2.225479576739999767e-03,3.467180067670000074e-03,-6.846249103550000603e-02,1.000000000000000000e+00
2.155311498000000103e+00,-2.759457990840000097e+00,2.542157667500000162e-01,-9.484716970470000064e+00,1.820378564300000057e-02,1.534741930659999989e-02,-6.203550845380000761e-02,1.000000000000000000e+00
2.160297893000000080e+00,-2.768171750920000118e+00,1.881808675680000098e-01,-9.420845679060001032e+00,1.480398233980000089e-02,-1.368388067929999889e-02,-5.406698212029999867e-02,1.000000000000000000e+00
2.165306714999999826e+00,-2.777999025189999749e+00,1.406987662289999885e-01,-9.413113623510000139e+00,-1.089512370530000031e-02,-1.940399222079999819e-02,-4.512988403440000573e-02,1.000000000000000000e+00
2.170183569000000201e+00,-2.764612597130000182e+00,9.723276866399999108e-02,-9.354082757869999654e+00,6.038350984450000306e-03,-1.340667903420000168e-02,-4.756354540590000679e-02,1.000000000000000000e+00
2.175143477000000214e+00,-2.779616981779999829e+00,1.648496032760000257e-02,-9.334690659650000555e+00,7.907086052000000462e-03,-4.126049205659999830e-02,-3.749226033690000043e-02,1.000000000000000000e+00
2.180156504000000162e+00,-2.788511359110000143e+00,2.950756232379999830e-02,-9.353073873080001377e+00,-5.476940423250000606e-03,-3.340480849150000153e-02,-3.683627396820000205e-02,1.000000000000000000e+00
2.185157144000000162e+00,-2.832036028060000099e+00,1.041232131640000141e-01,-9.393891621159999872e+00,1.256531663239999867e-02,-3.964208066459999624e-02,-1.892869360740000173e-02,1.000000000000000000e+00
2.190144629999999815e+00,-2.859294329599999962e+00,1.663743651579999983e-01,-9.364517058119998794e+00,-5.913966335359998987e-03,-3.685374930499999563e-02,-7.920046336949999183e-03,1.000000000000000000e+00
2.195144927999999940e+00,-2.858403225980000073e+00,6.685131186569999440e-02,-9.319650326910000615e+00,-1.816601119940000272e-02,-4.560980945830000327e-02,2.495161257679999814e-03,1.000000000000000000e+00
2.200143080000000140e+00,-2.786512878770000423e+00,9.576838606669998977e-02,-9.400740464139998309e+00,-1.245488412679999872e-02,-3.812741860749999795e-02,-7.153699174520001224e-03,1.000000000000000000e+00
2.205037985999999783e+00,-2.812754989009999651e+00,1.280052614729999816e-01,-9.384426458200000098e+00,-3.226169943809999857e-02,-4.726218804719999750e-02,-6.856592372059999892e-04,1.000000000000000000e+00
2.210096395999999963e+00,-2.839004405770000350e+00,1.569219886140000020e-01,-9.361744670800000279e+00,-2.569442801180000027e-02,-5.678180977699999465e-02,-5.571724846959999651e-03,1.000000000000000000e+00
2.215322072999999836e+00,-2.868983948969999975e+00,3.098907826230000162e-01,-9.415372216089998858e+00,-1.766938716170000229e-02,-6.384973973040000694e-02,5.403252784159999836e-03,1.000000000000000000e+00
2.220060371999999838e+00,-2.898463433690000368e+00,3.996664036819999599e-01,-9.374878293139998320e+00,-3.060054965319999876e-02,-5.738151445980000515e-02,4.812583792950000635e-04,1.000000000000000000e+00
2.225148584999999901e+00,-2.953631486420000396e+00,4.310739703909999831e-01,-9.331301601739999896e+00,-3.184953704480000120e-02,-4.067505151030000043e-02,8.746767416600000067e-03,1.000000000000000000e+00
2.230140904999999840e+00,-2.943917609400000135e+00,3.418762222860000088e-01,-9.331739993160001134e+00,-1.723412796850000081e-02,-5.810818821190000261e-02,1.011187210679999858e-02,1.000000000000000000e+00
2.235147309999999887e+00,-2.957577885959999708e+00,2.559139124379999908e-01,-9.377079602569999395e+00,1.510642119680000259e-03,-4.524946585300000657e-02,8.508151397109999653e-03,1.000000000000000000e+00
2.240114301000000196e+00,-2.941960630109999641e+00,3.404289826199999314e-01,-9.361551194049999580e+00,-1.711909100410000106e-02,-5.662589892749999437e-02,8.820222690699999757e-03,1.000000000000000000e+00
2.245304416999999830e+00,-2.938541177059999843e+00,3.832296481440000124e-01,-9.375357016560000645e+00,1.102139591239999911e-03,-4.931141808629999762e-02,-6.928554270419999724e-03,1.000000000000000000e+00
2.250318624999999795e+00,-2.999492489370000570e+00,3.589390372999999856e-01,-9.297525588860001022e+00,-9.879851713780000641e-03,-6.091500073669999654e-02,6.488497834649999477e-03,1.000000000000000000e+00
2.255326312000000222e+00,-3.002981792790000437e+00,3.804552149939999794e-01,-9.306890214060000943e+00,-6.594246719029999391e-03,-5.233395099640000825e-02,-4.999621305610000080e-03,1.000000000000000000e+00
2.260291441000000123e+00,-3.062633420670000106e+00,3.959457757229999930e-01,-9.309010859469999843e+00,5.956588778640000206e-03,-4.509197175500000154e-02,7.334378082310000734e-03,1.000000000000000000e+00
2.265198924999999974e+00,-2.995939765320000170e+00,4.257134297390000044e-01,-9.292254370460000246e+00,-4.894357174630000785e-03,-2.783211134370000214e-02,1.789591275160000135e-03,1.000000000000000000e+00
2.270177798000000191e+00,-3.027193566240000244e+00,4.170755113830000305e-01,-9.326887876949999878e+00,9.420796995980000458e-04,-2.110657654699999927e-02,1.388908363879999899e-02,1.000000000000000000e+00
2.275147608000000155e+00,-2.995781359890000051e+00,3.966340502489999476e-01,-9.354062884119999310e+00,-1.915436936540000027e-03,-3.512423112990000623e-02,7.939090952279998989e-03,1.000000000000000000e+00
2.280198362999999784e+00,-2.960861437680000208e+00,3.494320810250000076e-01,-9.430146006850000262e+00,8.478472009300000792e-03,-2.421619184320000090e-02,6.256498862059999867e-03,1.000000000000000000e+00
2.285154926000000142e+00,-2.928112722020000280e+00,2.996481690180000101e-01,-9.405096905789999795e+00,1.619268581269999938e-02,-3.796055167910000055e-02,-5.785644985739999552e-03,1.000000000000000000e+00
2.290165689999999810e+00,-2.947490499449999746e+00,2.741005803830000032e-01,-9.331115139249998691e+00,-1.580384559929999891e-02,-2.679481916129999863e-02,-5.001802928750000155e-03,1.000000000000000000e+00
2.295214999999999783e+00,-2.964881194709999779e+00,3.007755290800000481e-01,-9.403348600819999348e+00,7.606775965540000899e-03,-2.299636974929999966e-02,1.269461400809999974e-02,1.000000000000000000e+00
2.300187487000000086e+00,-2.996649374890000050e+00,3.651308411449999958e-01,-9.284560893350001010e+00,1.427867170420000012e-02,-3.143401071429999943e-02,5.802457686510000337e-03,1.000000000000000000e+00
2.305126076000000079e+00,-2.829159303580000007e+00,3.571160961890000318e-01,-9.460715917159999933e+00,3.084197826679999782e-02,-4.213422164319999275e-02,-9.325457736849999957e-03,1.000000000000000000e+00
2.310198627000000116e+00,-2.987882715590000071e+00,2.910021769539999914e-01,-9.447591647170000329e+00,1.192804705350000022e-02,-4.036708176139999771e-02,2.266617957499999711e-03,1.000000000000000000e+00
2.315160006000000159e+00,-2.896200749459999724e+00,3.106760877820000100e-01,-9.336965618849999871e+00,1.961837522690000266e-02,-5.703067407009999867e-02,1.197071373460000150e-02,1.000000000000000000e+00
2.320200750999999784e+00,-2.795321623650000031e+00,2.489091299760000098e-01,-9.441916524139999822e+00,-7.697510067369999626e-03,-4.008052870630000181e-02,-1.745658111759999884e-03,1.000000000000000000e+00
2.325186513999999871e+00,-2.813675318719999652e+00,3.883459317119999921e-01,-9.412918393189999122e+00,1.682412810620000088e-02,-5.685108900069999610e-02,-9.184462949629998776e-03,1.000000000000000000e+00
2.330175059000000104e+00,-2.798330742340000121e+00,3.797342437760000133e-01,-9.426178856780000004e+00,3.151089325550000125e-02,-5.872601643199999721e-02,-1.381468027829999760e-04,1.000000000000000000e+00
2.335175712999999931e+00,-2.741914150849999565e+00,2.827816437599999788e-01,-9.480303245680000046e+00,3.091186843809999932e-02,-6.045817956330000464e-02,1.188344322140000071e-05,1.000000000000000000e+00
2.340308523000000029e+00,-2.798181104729999813e+00,2.987961918309999798e-01,-9.446122159139999752e+00,3.769390285019999509e-02,-8.082110434769999852e-02,-7.564499974249999821e-03,1.000000000000000000e+00
2.345299976999999814e+00,-2.727202611670000110e+00,2.861454393710000099e-01,-9.493027118180000556e+00,5.375546589490000360e-02,-1.109591126439999909e-01,-1.463059335950000085e-03,1.000000000000000000e+00
2.350291225999999956e+00,-2.749357744850000174e+00,2.732723676639999821e-01,-9.601798458539999359e+00,4.824214056130000233e-02,-1.032188162209999871e-01,2.116479910909999790e-02,1.000000000000000000e+00
2.355324035000000205e+00,-2.728389191100000222e+00,3.416052233250000403e-01,-9.555839255920000497e+00,7.008466124530000896e-02,-1.154999062419999889e-01,1.359363459049999986e-02,1.000000000000000000e+00
2.360259761000000012e+00,-2.711368205940000387e+00,4.223082609380000019e-01,-9.569999883219999504e+00,6.971100717780000233e-02,-1.212533265349999972e-01,5.312734749170000721e-03,1.000000000000000000e+00
2.365275765999999891e+00,-2.894750258389999775e+00,3.885940977860000145e-01,-9.541552371889999051e+00,7.156878709790000237e-02,-1.448980122799999881e-01,1.467014290390000059e-02,1.000000000000000000e+00
2.370162080000000060e+00,-2.867433212399999931e+00,4.113843140039999957e-01,-9.521307456239998857e+00,8.493481576439998459e-02,-1.582936346530000038e-01,7.879279553889999288e-03,1.000000000000000000e+00
2.375124624000000129e+00,-2.788979561140000119e+00,4.653726554320000153e-01,-9.566198737369999705e+00,1.199863255020000019e-01,-1.509914398189999840e-01,9.019020944829999817e-03,1.000000000000000000e+00
2.380145216999999924e+00,-2.807935313770000274e+00,5.367941795560000617e-01,-9.570714753489999893e+00,1.327213644979999829e-01,-1.593450605870000147e-01,6.371191237119999858e-03,1.000000000000000000e+00
2.385155516999999836e+00,-2.811622185579999655e+00,4.583286917369999713e-01,-9.560988309249999872e+00,1.492475122209999949e-01,-1.747944355009999895e-01,1.229328475889999821e-02,1.000000000000000000e+00
2.390169613999999942e+00,-2.716107801679999767e+00,3.279074642969999620e-01,-9.623940147719999061e+00,1.595579534769999974e-01,-1.668925136330000059e-01,1.890000421549999955e-03,1.000000000000000000e+00
2.395147974999999985e+00,-2.789877971290000147e+00,2.392565729520000073e-01,-9.578987491799999532e+00,1.712095290419999860e-01,-2.168930619960000028e-01,5.293400492520000666e-03,1.000000000000000000e+00
2.400174239000000043e+00,-2.862317476819999928e+00,2.145394985909999941e-01,-9.562346153600000065e+00,1.843238472940000039e-01,-2.366743385789999987e-01,2.899638004600000110e-02,1.000000000000000000e+00
2.405157351999999804e+00,-2.725568288459999433e+00,1.454277218469999799e-01,-9.544999297480000422e+00,1.690866947170000245e-01,-2.422181069849999868e-01,2.210948988799999945e-02,1.000000000000000000e+00
2.410161217999999828e+00,-2.936187307410000003e+00,1.059195950620000076e-01,-9.509774254839999941e+00,1.955908834929999951e-01,-2.553255259989999915e-01,3.325760364529999763e-02,1.000000000000000000e+00
2.415162486999999913e+00,-2.948531240670000386e+00,-3.385692348959999654e-02,-9.455409627439999909e+00,1.895331591370000013e-01,-2.657184302810000065e-01,3.562035411600000118e-02,1.000000000000000000e+00
2.420284742999999850e+00,-2.877552747609999795e+00,-1.813363537020000194e-01,-9.548083234969999111e+00,1.682609617710000005e-01,-2.888460159300000329e-01,5.543512851000000075e-02,1.000000000000000000e+00
2.425263455000000068e+00,-3.026627456790000004e+00,-1.795194244899999889e-02,-9.565954991739998192e+00,1.633590012789999935e-01,-2.995904088019999967e-01,6.781735271219999084e-02,1.000000000000000000e+00
2.430157191999999799e+00,-2.988733194940000004e+00,-8.570011068119999867e-03,-9.430942125660001452e+00,1.564411073919999839e-01,-3.128074705599999672e-01,7.705486565830001189e-02,0.000000000000000000e+00
2.435143810000000020e+00,-3.035044279740000572e+00,-3.703833000469999859e-02,-9.446871516199999874e+00,1.426310092209999991e-01,-3.191011548039999757e-01,7.918379455799999522e-02,0.000000000000000000e+00
2.440133123999999931e+00,-3.019940234110000343e+00,-2.052908644589999942e-01,-9.497783372789999845e+00,1.476021856070000027e-01,-3.388829827310000375e-01,8.806598186489998648e-02,0.000000000000000000e+00
2.445305020000000162e+00,-2.946173571629999710e+00,-2.251353826130000069e-01,-9.687852940180000871e+00,1.579654067750000113e-01,-3.701174259189999871e-01,1.102398335930000056e-01,0.000000000000000000e+00
2.450267470000000003e+00,-2.809989615950000186e+00,9.689770062380001492e-02,-9.947803853049999034e+00,1.486363410950000130e-01,-3.718506991859999999e-01,1.244754865769999996e-01,0.000000000000000000e+00
2.455267693000000140e+00,-2.567829503570000060e+00,2.260533194420000225e-01,-1.003391327980000014e+01,1.478492319580000103e-01,-4.335873425010000060e-01,1.488010585310000078e-01,0.000000000000000000e+00
2.460284881000000201e+00,-2.517659989779999830e+00,9.600371092619999769e-02,-1.010741223119999965e+01,1.477779746060000066e-01,-4.745421707630000374e-01,1.141490340230000011e-01,0.000000000000000000e+00
2.465142179999999961e+00,-2.604270644000000079e+00,-1.260987702649999931e-01,-1.032884665869999985e+01,1.842422634360000033e-01,-5.161654353140000540e-01,1.435963064430000047e-01,0.000000000000000000e+00
2.470134167999999963e+00,-2.552221600079999764e+00,1.321881731809999849e-01,-1.044191072779999985e+01,2.083341926339999928e-01,-5.895880460739999496e-01,1.511884778739999990e-01,0.000000000000000000e+00
2.475144015999999780e+00,-2.486770930520000089e+00,2.511987570170000073e-01,-1.053817563780000022e+01,2.222125232219999968e-01,-6.583229303359999784e-01,1.668513566260000081e-01,0.000000000000000000e+00
2.480132370000000197e+00,-2.406830401709999734e+00,6.750470687369999889e-02,-1.084540735730000094e+01,2.530010640620000140e-01,-7.645446658130000683e-01,1.763362735509999835e-01,0.000000000000000000e+00
2.485127432000000081e+00,-2.129558790079999930e+00,3.221009928080000029e-02,-1.112010809549999912e+01,2.579508721830000018e-01,-8.324998021130000092e-01,1.588659584519999945e-01,0.000000000000000000e+00
2.490136198000000078e+00,-2.090062792120000346e+00,-5.444609513249999699e-02,-1.147856965150000086e+01,2.401988655330000166e-01,-9.270893931389999620e-01,1.635386049750000015e-01,0.000000000000000000e+00
2.495070149000000015e+00,-2.268481961470000030e+00,1.323248691050000092e+00,-1.223935411700000131e+01,2.003392130139999838e-01,-1.051550865170000071e+00,1.224281564350000046e-01,0.000000000000000000e+00
2.500018240999999808e+00,-1.573155618160000158e+00,7.532830038500000214e-01,-1.198985094839999910e+01,1.522764563560000117e-01,-1.171485781670000170e+00,6.796367466449999839e-02,0.000000000000000000e+00
2.505043018999999926e+00,-1.533162484330000019e+00,-2.343816603920000075e-01,-1.217608079150000044e+01,1.762553751469999874e-01,-1.323593139650000028e+00,-3.928225487469999729e-03,0.000000000000000000e+00
2.510040962999999792e+00,-1.792566284709999902e+00,-6.476578525570000355e-01,-1.241715281640000157e+01,1.581606268880000055e-01,-1.494262933729999965e+00,8.108241483570000421e-03,0.000000000000000000e+00
2.515131129999999882e+00,-1.620982660479999726e+00,-5.272278577769999863e-01,-1.271922905279999938e+01,7.993716746569999587e-02,-1.685954809190000070e+00,2.950541861359999921e-02,0.000000000000000000e+00
2.520007185999999955e+00,-1.390805539100000043e+00,-9.055709759880000709e-01,-1.289715868509999908e+01,9.415471926330000463e-03,-1.867483973499999950e+00,7.126646488900000020e-02,0.000000000000000000e+00
2.525035476999999862e+00,-1.389787594229999756e+00,-1.034335376129999817e+00,-1.319197282150000028e+01,-5.532409995790000395e-02,-2.074167251590000038e+00,1.359600275750000031e-01,0.000000000000000000e+00
2.530078261999999967e+00,-1.384752230410000173e+00,-1.267725833529999901e+00,-1.323362117519999970e+01,-1.368798762560000104e-01,-2.281033515929999922e+00,1.894785165790000281e-01,0.000000000000000000e+00
2.534933478000000129e+00,-1.103939292910000036e+00,-1.670815928050000121e+00,-1.341073364589999883e+01,-2.122191190720000009e-01,-2.490051984790000006e+00,2.078890204430000055e-01,0.000000000000000000e+00
2.539963975000000040e+00,-7.515375484219999347e-01,-2.014917388640000251e+00,-1.359972593940000074e+01,-3.304611146449999981e-01,-2.716892242429999715e+00,2.104965746400000171e-01,0.000000000000000000e+00
2.544830194000000212e+00,-7.728792463320000028e-01,-2.914504760170000264e+00,-1.382064481859999816e+01,-4.863013029100000106e-01,-2.964262247089999747e+00,1.838589012620000240e-01,0.000000000000000000e+00
2.549789625999999920e+00,-1.546563379309999986e+00,-5.112733474110000564e+00,-1.443355576739999968e+01,-6.874909996989999605e-01,-3.220690727230000050e+00,1.680913269519999920e-01,0.000000000000000000e+00
2.554771085000000053e+00,-1.666855207730000066e+00,-5.873632505919999858e+00,-1.371084238160000091e+01,-9.878658652310000621e-01,-3.491240262990000343e+00,2.249879837039999997e-01,0.000000000000000000e+00
2.559788068000000028e+00,-1.208421411650000055e+00,-4.377536746569999693e+00,-1.344046593630000075e+01,-1.357929706570000006e+00,-3.726946115490000100e+00,2.592731118199999574e-01,0.000000000000000000e+00
2.564861935000000148e+00,-1.586010861949999962e+00,-3.801287887450000014e+00,-1.352476100710000040e+01,-1.756793975829999965e+00,-3.933508396150000141e+00,3.195168673989999819e-01,0.000000000000000000e+00
2.569928292999999808e+00,-2.591848384800000016e+00,-4.200800123480000536e+00,-1.304657300150000054e+01,-1.992107748990000093e+00,-4.129205703740000288e+00,4.614957273009999694e-01,0.000000000000000000e+00
2.574895317000000183e+00,-3.728426941640000436e+00,-3.875276375990000410e+00,-1.278227090769999919e+01,-2.103118896479999833e+00,-4.236711502080000358e+00,5.556995868680000283e-01,0.000000000000000000e+00
2.579955706999999876e+00,-4.020689055530000111e+00,-3.602117021980000278e+00,-1.267328913940000135e+01,-2.134175300599999936e+00,-4.332589149480000401e+00,6.594953536990000309e-01,0.000000000000000000e+00
2.584950565000000200e+00,-3.750384214169999897e+00,-3.261365017950000222e+00,-1.275842241460000004e+01,-2.163061141970000101e+00,-4.409946918490000201e+00,7.833567857740000306e-01,0.000000000000000000e+00
2.589825459000000052e+00,-4.426193517709999803e+00,-2.825758555230000191e+00,-1.232174247740000084e+01,-2.192264556880000104e+00,-4.470614910130000119e+00,9.096741676330000193e-01,0.000000000000000000e+00
2.594976486999999832e+00,-5.814850646610000062e+00,-2.864260135319999900e+00,-1.238221945019999914e+01,-2.311995744709999911e+00,-4.476387977599999957e+00,1.059344172479999902e+00,0.000000000000000000e+00
2.599997414000000173e+00,-6.645740914010000111e+00,-4.609297045479999966e+00,-1.232984745789999970e+01,-2.466024875640000058e+00,-4.484693050380000656e+00,1.214097142219999981e+00,0.000000000000000000e+00
2.604961206000000029e+00,-8.408302959480000283e+00,-6.563726647669999359e+00,-1.225932723000000024e+01,-2.657367706300000076e+00,-4.456990718840000198e+00,1.369826793670000153e+00,0.000000000000000000e+00
2.610041124999999962e+00,-9.362266648839998595e+00,-6.736299136819999589e+00,-1.124558273339999914e+01,-2.963015317920000058e+00,-4.350425720209999625e+00,1.415284156800000082e+00,0.000000000000000000e+00
2.615221378000000207e+00,-1.059833579970000095e+01,-7.070420032270000377e+00,-1.256497021900000099e+01,-3.396447896959999824e+00,-4.175996303559999845e+00,1.464450836179999937e+00,0.000000000000000000e+00
2.620222609999999897e+00,-1.207562953569999920e+01,-6.592759265409999792e+00,-1.211169453630000170e+01,-3.903825521469999504e+00,-3.832187652590000049e+00,1.532315492629999776e+00,0.000000000000000000e+00
2.625101889999999827e+00,-1.055971410039999903e+01,-5.686321297330000135e+00,-1.202073591599999958e+01,-4.298834800719999905e+00,-3.393174886700000226e+00,1.587272048000000213e+00,0.000000000000000000e+00
2.630217237000000097e+00,-9.649828622219999374e+00,-5.310553217240000734e+00,-1.232221360199999971e+01,-4.551747322079999769e+00,-2.956758975979999704e+00,1.648076415060000022e+00,0.000000000000000000e+00
2.635079995999999980e+00,-1.034564347969999965e+01,-4.768195229539999858e+00,-1.510667714700000097e+01,-4.742691993710000276e+00,-2.533183813099999959e+00,1.663712024689999902e+00,0.000000000000000000e+00
2.640095227999999850e+00,-9.742491123819998933e+00,-4.113247219979999869e+00,-1.506324717059999863e+01,-4.831647872919999642e+00,-2.108332872390000112e+00,1.636635422709999954e+00,0.000000000000000000e+00
2.645064223999999964e+00,-6.144593473109999593e+00,-2.818184028320000145e+00,-1.241694121949999996e+01,-4.745221137999999783e+00,-1.563141465189999968e+00,1.520797729489999917e+00,0.000000000000000000e+00
2.650204632999999976e+00,-2.432549949379999799e+00,-7.342964907639999428e-01,-1.027511506849999989e+01,-4.406243324280000095e+00,-9.146573543549999519e-01,1.278182506560000098e+00,0.000000000000000000e+00
2.655084573999999975e+00,6.510001487229999384e-01,-1.413583352499999946e-01,-8.252384668010000368e+00,-3.956538200380000259e+00,-2.477471530439999958e-01,1.002667427060000005e+00,0.000000000000000000e+00
2.660084079999999851e+00,2.921133822919999901e+00,-1.056949651260000067e+00,-8.573015967289999040e+00,-3.441326141359999813e+00,2.838510870929999985e-01,6.465786099429999823e-01,0.000000000000000000e+00
2.665208858000000181e+00,3.300881035780000250e+00,-3.480807394819999789e+00,-8.061005771589998758e+00,-2.943859815600000207e+00,5.540162920950000291e-01,1.858449280260000003e-01,0.000000000000000000e+00
2.670084566999999964e+00,1.748591387779999951e-01,-2.983373421480000065e+00,-6.735787095640000111e+00,-2.477478981019999971e+00,3.493964076039999811e-01,-4.654418826100000794e-01,0.000000000000000000e+00
2.675078432999999922e+00,-2.180081939609999964e+00,-2.895388264030000158e+00,-9.499985851269999060e+00,-1.964569449420000113e+00,3.504168391229999791e-01,-9.441116452220000843e-01,0.000000000000000000e+00
2.680105540000000008e+00,-2.194668391109999561e+00,-5.950488951109999647e+00,-1.072131102200000008e+01,-1.622549653050000096e+00,5.397807359699999807e-01,-1.303445339200000053e+00,0.000000000000000000e+00
2.685097247999999936e+00,9.200001910959999529e-01,-6.780496005939999904e+00,-9.303267347389999387e+00,-1.322858691219999994e+00,1.005064129830000041e+00,-1.529557585719999890e+00,0.000000000000000000e+00
2.690082294000000207e+00,2.400002163129999921e+00,-6.003762276139999798e+00,-8.926305673599999935e+00,-1.244249820710000121e+00,1.422377943989999949e+00,-1.705774068829999823e+00,0.000000000000000000e+00
2.695078463000000202e+00,2.045647019550000056e+00,-6.171591370149999811e+00,-8.388247428919999749e+00,-1.348527431489999984e+00,1.628513574600000124e+00,-1.864034056659999772e+00,0.000000000000000000e+00
2.700116604999999836e+00,1.842504035579999977e+00,-6.951150678769999480e+00,-8.045233032919998806e+00,-1.549198985099999870e+00,1.796770095830000136e+00,-1.934350728990000157e+00,0.000000000000000000e+00
2.705121301999999783e+00,2.684172155969999807e+00,-6.528629030809999456e+00,-7.274447982389999900e+00,-1.635877013210000008e+00,1.757871985440000229e+00,-2.029534101490000353e+00,0.000000000000000000e+00
2.710245984999999802e+00,1.644270597080000007e+00,-5.069709155900000042e+00,-6.482378736280000275e+00,-1.623982310299999954e+00,1.757031321529999968e+00,-2.067336320879999967e+00,0.000000000000000000e+00
2.715100838000000127e+00,1.219460399789999983e+00,-3.600387129440000056e+00,-6.343198813649999934e+00,-1.558095932010000073e+00,1.753316402440000088e+00,-2.106710672380000204e+00,0.000000000000000000e+00
2.720135041999999892e+00,1.165727786689999990e+00,-2.669525790979999869e+00,-6.327246626760000048e+00,-1.498986601829999987e+00,1.750054597849999949e+00,-2.199423074719999871e+00,0.000000000000000000e+00
2.725115247999999823e+00,5.714924949069999371e-01,-2.853579166829999902e+00,-6.500837937560000057e+00,-1.394682526590000027e+00,1.864351749419999926e+00,-2.243963480000000121e+00,0.000000000000000000e+00
2.730268736999999835e+00,-8.432970367740000306e-02,-3.205815856940000153e+00,-6.738191234169999433e+00,-1.291096925740000012e+00,2.016299486159999876e+00,-2.220915317540000267e+00,0.000000000000000000e+00
2.735086206000000075e+00,-6.810912625380000085e-01,-3.331237887859999969e+00,-6.901717662550000298e+00,-1.171883463859999974e+00,2.148161172870000080e+00,-2.186484813690000362e+00,0.000000000000000000e+00
2.740085351999999919e+00,-8.907211243160000347e-01,-3.352279506839999978e+00,-7.129587676030000765e+00,-1.095005273820000236e+00,2.221518039699999836e+00,-2.206686258319999983e+00,0.000000000000000000e+00
2.745258173999999940e+00,-1.041348835089999980e+00,-3.574028114830000380e+00,-7.527883814269999085e+00,-1.095114827159999971e+00,2.251915216450000035e+00,-2.228348970409999907e+00,0.000000000000000000e+00
2.750117170000000222e+00,-1.684907581770000107e+00,-3.789218971730000440e+00,-7.661509025389999117e+00,-1.075630068780000004e+00,2.330147504809999770e+00,-2.267275094990000017e+00,0.000000000000000000e+00
2.755117108999999953e+00,-2.287665239240000314e+00,-3.735352649250000212e+00,-7.860970690499999414e+00,-1.068803787229999802e+00,2.445775985720000101e+00,-2.290612459179999671e+00,0.000000000000000000e+00
2.760110150000000040e+00,-2.723069165120000079e+00,-3.709852297290000323e+00,-8.124756651489999371e+00,-1.107461452479999942e+00,2.626089572909999781e+00,-2.318359851840000374e+00,0.000000000000000000e+00
2.765210267000000055e+00,-2.959548601509999433e+00,-3.697944417350000013e+00,-8.230596030050000067e+00,-1.106690406800000082e+00,2.792526721949999846e+00,-2.353542327880000062e+00,0.000000000000000000e+00
2.770257164000000216e+00,-3.077760847179999981e+00,-3.826028068690000339e+00,-8.243595212360000701e+00,-1.130942106250000023e+00,2.947240591050000358e+00,-2.393667936329999968e+00,0.000000000000000000e+00
2.775252454999999951e+00,-3.000908493640000341e+00,-3.866368554649999734e+00,-8.350328324890000431e+00,-1.148366808890000090e+00,3.045770883559999920e+00,-2.454600572589999974e+00,0.000000000000000000e+00
2.780098333999999838e+00,-3.132005647580000218e+00,-3.890904153230000162e+00,-8.374654372380000211e+00,-1.144412875180000011e+00,3.083505392070000184e+00,-2.538559675220000145e+00,0.000000000000000000e+00
2.785044088999999889e+00,-3.384326503970000122e+00,-3.958722136440000039e+00,-8.348928979489999236e+00,-1.145541787149999990e+00,3.150287151340000147e+00,-2.624697208400000203e+00,0.000000000000000000e+00
2.790076308999999810e+00,-3.744692432259999926e+00,-4.004398722719999526e+00,-8.415640462760000773e+00,-1.145275950430000078e+00,3.190460920330000061e+00,-2.707332849499999750e+00,0.000000000000000000e+00
2.795059785999999935e+00,-4.038708988599999827e+00,-3.964005045280000417e+00,-8.700577348319999516e+00,-1.121411681179999897e+00,3.241377592090000093e+00,-2.810632705690000233e+00,0.000000000000000000e+00
2.800116898999999826e+00,-4.410635006309999717e+00,-3.965733476499999632e+00,-9.039117229260000386e+00,-1.117501378060000050e+00,3.310513019559999659e+00,-2.891364336010000091e+00,0.000000000000000000e+00
2.805157041000000184e+00,-4.791508300590000324e+00,-4.145530071680000539e+00,-9.223286632699998933e+00,-1.094877839090000027e+00,3.343564510350000241e+00,-2.973002672200000251e+00,0.000000000000000000e+00
2.810176219000000142e+00,-5.267502011020000374e+00,-4.399747993860000150e+00,-9.361770389760000199e+00,-1.073578715320000043e+00,3.373888492580000342e+00,-3.025576353069999946e+00,0.000000000000000000e+00
2.815223451000000043e+00,-5.810672484140000371e+00,-4.593518753849999747e+00,-9.456482809629999764e+00,-1.050525546070000038e+00,3.434406757350000117e+00,-3.098117589950000195e+00,0.000000000000000000e+00
2.820167634999999784e+00,-6.428509198930000501e+00,-4.816855800079999916e+00,-9.521822420030000345e+00,-1.013695597649999947e+00,3.440022468570000047e+00,-3.142722845080000216e+00,0.000000000000000000e+00
2.825122860000000014e+00,-6.913752383739999452e+00,-5.061610605119999384e+00,-9.679716980000000248e+00,-1.038103938100000123e+00,3.471744775769999514e+00,-3.171341657640000200e+00,0.000000000000000000e+00
2.830280678999999910e+00,-7.204258593869999672e+00,-5.367275805940000311e+00,-9.802315185669998598e+00,-1.035548448560000168e+00,3.477645635600000062e+00,-3.204546451570000176e+00,0.000000000000000000e+00
2.835114424999999994e+00,-7.479687061860000874e+00,-5.733790904510000175e+00,-9.953816245209999636e+00,-1.055553674700000055e+00,3.498239994049999524e+00,-3.257792472840000286e+00,0.000000000000000000e+00
2.840116682000000115e+00,-7.905152362050000825e+00,-6.055714581690000209e+00,-1.005436920779999888e+01,-1.077612042429999750e+00,3.521372318269999635e+00,-3.275970697400000020e+00,0.000000000000000000e+00
2.845254853000000139e+00,-8.162690368559999854e+00,-6.444092552509999017e+00,-1.014104678980000074e+01,-1.114294409750000048e+00,3.493739366530000723e+00,-3.349424123759999983e+00,0.000000000000000000e+00
2.850127524999999995e+00,-8.593179049879999809e+00,-6.749983378780000542e+00,-1.019836383720000050e+01,-1.151456832889999893e+00,3.471531391140000089e+00,-3.413155317310000214e+00,0.000000000000000000e+00
2.855247363000000149e+00,-8.891490965319999162e+00,-7.065654425299999986e+00,-1.014717141010000034e+01,-1.159475803379999892e+00,3.441458225249999892e+00,-3.530175447460000004e+00,0.000000000000000000e+00
2.860134678000000097e+00,-9.104472037229999870e+00,-7.468220495950000704e+00,-1.016958548649999905e+01,-1.185557246210000137e+00,3.437549829479999985e+00,-3.655152559280000268e+00,0.000000000000000000e+00
2.865120453999999928e+00,-9.183599349950000601e+00,-7.833423342879999751e+00,-1.023992100549999940e+01,-1.227772831920000085e+00,3.419152259829999707e+00,-3.815032482149999904e+00,0.000000000000000000e+00
2.870250710000000094e+00,-9.190604844800001061e+00,-8.137470587110000153e+00,-1.035829253340000022e+01,-1.265898823739999957e+00,3.390283346179999491e+00,-4.005830287930000289e+00,0.000000000000000000e+00
2.875251583999999916e+00,-9.266973214209999199e+00,-8.232342581460001085e+00,-1.035996075889999979e+01,-1.315272808070000021e+00,3.358134746549999772e+00,-4.193961143490000154e+00,0.000000000000000000e+00
2.880096346000000196e+00,-9.261053761039999443e+00,-8.313072068689999483e+00,-1.022328317440000056e+01,-1.317857623100000097e+00,3.330800771709999886e+00,-4.399495601649999976e+00,0.000000000000000000e+00
2.885086992999999822e+00,-9.371701416669999674e+00,-8.286632974570000698e+00,-1.008641620490000079e+01,-1.318948745729999983e+00,3.279637813569999949e+00,-4.581082344059999478e+00,0.000000000000000000e+00
2.890112219000000149e+00,-9.273647285150000030e+00,-8.253281324590000523e+00,-1.005396471869999964e+01,-1.284006953240000026e+00,3.260642051700000099e+00,-4.770476341250000196e+00,0.000000000000000000e+00
2.895117189000000035e+00,-9.206597948230001549e+00,-8.213181953919999501e+00,-1.004457145190000134e+01,-1.215443968770000049e+00,3.215744018550000138e+00,-4.926434516909999672e+00,0.000000000000000000e+00
2.900280147999999780e+00,-9.107257868550000524e+00,-8.116803062129999802e+00,-1.000818262619999999e+01,-1.155633091929999967e+00,3.152908325199999862e+00,-5.085855960850000024e+00,0.000000000000000000e+00
2.905120468999999872e+00,-9.037102382310001403e+00,-8.039269156079999590e+00,-9.956876801820000011e+00,-1.039862990379999852e+00,3.075822591779999726e+00,-5.241373538969999579e+00,0.000000000000000000e+00
2.910254818999999937e+00,-9.120168788049999975e+00,-8.064554403980000785e+00,-9.984677831939999137e+00,-9.463939070700000400e-01,3.030729770659999822e+00,-5.339560031890000502e+00,0.000000000000000000e+00
2.915142905000000173e+00,-9.050898267950000076e+00,-8.135609469410001182e+00,-1.003657051629999941e+01,-8.457906842229999667e-01,2.959951400759999629e+00,-5.408691883090000374e+00,0.000000000000000000e+00
2.920252034999999857e+00,-8.950009205269999768e+00,-8.086209186430000528e+00,-1.004559787230000012e+01,-7.510960698129999225e-01,2.886975765229999880e+00,-5.458887100219999233e+00,0.000000000000000000e+00
2.925124177999999908e+00,-8.766079455799999920e+00,-7.906758043690000015e+00,-1.011385716960000103e+01,-6.981517672539999664e-01,2.841154575350000044e+00,-5.494387626650000023e+00,0.000000000000000000e+00
