t,ax,ay,az,wx,wy,wz,zv
5.128337000000000173e-03,-2.560849435429999765e+00,6.462782347669999705e-01,-9.450316103700000525e+00,2.045048587019999975e-02,3.637546440589999996e-03,-1.780107151720000018e-03,1.000000000000000000e+00
1.031017099999999992e-02,-2.534352473650000270e+00,6.675782854930000232e-01,-9.462443179339999233e+00,1.592666469509999849e-02,4.698609001930000723e-03,1.828383188690000088e-03,1.000000000000000000e+00
1.516576000000000035e-02,-2.547836516859999900e+00,7.049999613920000519e-01,-9.416179440820000579e+00,-1.073355600240000034e-02,-7.098432630300000566e-03,-8.666918613020000231e-03,1.000000000000000000e+00
2.031477699999999914e-02,-2.549516140510000195e+00,6.543903756829999585e-01,-9.480974276810000489e+00,1.228701043870000092e-02,-1.286919135599999889e-02,-5.393508821729999132e-03,1.000000000000000000e+00
2.532701399999999839e-02,-2.548839848680000131e+00,6.487715128880000570e-01,-9.453919681149999477e+00,-7.921132259070000695e-03,1.270643901079999971e-02,-1.589220762249999794e-02,1.000000000000000000e+00
3.032776300000000064e-02,-2.587181269779999848e+00,6.642201341710000095e-01,-9.448563122550000415e+00,1.904487982390000098e-02,-4.968427587300000385e-03,1.831419300290000043e-03,1.000000000000000000e+00
3.519775599999999671e-02,-2.470196812340000214e+00,6.967129753659999647e-01,-9.505959664989999780e+00,8.612403646109999950e-03,-1.646200194950000160e-03,-2.099090255799999916e-02,1.000000000000000000e+00
4.016244699999999695e-02,-2.543534435749999822e+00,7.339018654229999550e-01,-9.469266303360001302e+00,2.895453944800000044e-03,-3.128108335659999899e-03,-6.065218709409999319e-03,1.000000000000000000e+00
4.532227199999999678e-02,-2.558129947340000321e+00,6.986711967620000685e-01,-9.439869528480000938e+00,8.867369964719998277e-03,9.991305880250000299e-03,-1.200668700039999974e-02,1.000000000000000000e+00
5.031878599999999729e-02,-2.545257021759999905e+00,6.624708793510000193e-01,-9.481441894319999619e+00,1.461918931450000014e-02,-4.181638360019999950e-05,-2.298142993820000233e-03,1.000000000000000000e+00
5.536025900000000194e-02,-2.513650461879999742e+00,7.017449051189998954e-01,-9.464828028650000391e+00,1.328138820829999865e-02,4.462497308849999993e-04,8.724162355070000027e-03,1.000000000000000000e+00
6.035039999999999849e-02,-2.564894619169999945e+00,7.032839512549999839e-01,-9.452147410780000314e+00,8.012157864869999188e-03,1.190290879459999888e-02,1.174389757220000059e-02,1.000000000000000000e+00
6.529213000000000378e-02,-2.570083419980000006e+00,6.952152841550000018e-01,-9.428932539410000757e+00,-5.765947513279999666e-03,1.600208319719999966e-02,8.834077045320000432e-03,1.000000000000000000e+00
7.019889099999999937e-02,-2.485179277420000332e+00,7.398465261069999688e-01,-9.463648463480000217e+00,2.127822302280000036e-02,8.002196438610000365e-03,7.758818101139999378e-04,1.000000000000000000e+00
7.537443200000000509e-02,-2.563163265330000051e+00,7.603053037029999794e-01,-9.455346499079999134e+00,1.551644410939999850e-02,-3.890632651750000094e-03,8.865745738150000721e-03,1.000000000000000000e+00
8.036451000000000011e-02,-2.537040105300000015e+00,7.068190665780000881e-01,-9.449110235039999139e+00,2.719592861829999916e-02,-9.772807359700000363e-03,5.644329357889999767e-03,1.000000000000000000e+00
8.536565699999999757e-02,-2.547386142740000192e+00,6.971990783829999927e-01,-9.458754261699999333e+00,2.138469927009999799e-02,4.923815838989999659e-03,1.065753772849999982e-02,1.000000000000000000e+00
9.020214699999999641e-02,-2.534887311179999880e+00,6.998722431149999590e-01,-9.424217201319999404e+00,1.793686673049999999e-02,8.015839848669999374e-04,9.978143498300000303e-03,1.000000000000000000e+00
9.536223500000000353e-02,-2.524757254570000331e+00,7.055253735060000864e-01,-9.457695692550000643e+00,2.689467370509999664e-02,7.101655006410000255e-03,4.744055215270000236e-03,1.000000000000000000e+00
1.001996130000000068e-01,-2.525460434399999787e+00,7.615300962569999665e-01,-9.442827793770000255e+00,3.638821840290000498e-02,-1.281202305110000148e-02,4.007415380330000415e-03,1.000000000000000000e+00
1.053427029999999959e-01,-2.535451082540000289e+00,7.358293994200000299e-01,-9.402322764900000962e+00,3.011516854170000201e-02,-7.868433371189999942e-03,-8.260220289229999735e-03,1.000000000000000000e+00
1.103413470000000063e-01,-2.531374626879999923e+00,6.379577117979999823e-01,-9.425387998670000655e+00,1.401746273039999879e-02,5.613642744720000362e-03,-3.311335109170000183e-03,1.000000000000000000e+00
1.153652059999999979e-01,-2.563422208530000024e+00,6.831143658639999838e-01,-9.436049677939999825e+00,1.811248809099999871e-02,1.916406443339999750e-03,1.097557879980000026e-02,1.000000000000000000e+00
1.202323859999999967e-01,-2.515507780180000097e+00,7.103265632420000530e-01,-9.437341471310000784e+00,2.459182590249999953e-02,-9.678827598690001310e-03,1.996700838209999884e-02,1.000000000000000000e+00
1.253436420000000051e-01,-2.520143623290000079e+00,6.986809875040000950e-01,-9.430908807919999859e+00,2.908007986840000295e-02,-1.389597076920000111e-02,3.781060222540000033e-03,1.000000000000000000e+00
1.303572749999999947e-01,-2.513725865200000076e+00,7.065865729970001174e-01,-9.467593401709999412e+00,1.229325588789999951e-02,1.029646396639999871e-02,-1.020088791850000008e-03,1.000000000000000000e+00
1.353664499999999993e-01,-2.541199563059999722e+00,6.803023041179999675e-01,-9.477214632020000806e+00,6.359757389869999736e-03,-1.987917721270000132e-02,1.283714920279999984e-02,1.000000000000000000e+00
1.403477069999999882e-01,-2.550985044019999926e+00,6.938618237190000704e-01,-9.446943412390000461e+00,2.635096013549999630e-02,5.208717193450000237e-04,1.334286760540000184e-03,1.000000000000000000e+00
1.452193820000000080e-01,-2.582811091870000020e+00,7.222163230010000268e-01,-9.458629758529999876e+00,9.368262253700000708e-03,-1.061809994280000016e-02,1.908778399229999964e-02,1.000000000000000000e+00
1.501541279999999978e-01,-2.525046592899999887e+00,7.022455481179999959e-01,-9.434305464619999526e+00,2.517265826459999523e-02,1.810250571000000114e-03,1.767696812750000138e-03,1.000000000000000000e+00
1.553713190000000077e-01,-2.579792328569999960e+00,6.939845002509998917e-01,-9.433753091430000737e+00,1.477322448050000063e-02,-1.516132429240000037e-02,3.751668613400000168e-03,1.000000000000000000e+00
1.603471300000000044e-01,-2.602559163909999640e+00,7.189109247799999602e-01,-9.442119353239998958e+00,2.298676781359999810e-02,1.275661587720000253e-02,1.449112780389999987e-02,1.000000000000000000e+00
1.651815050000000062e-01,-2.578425131869999998e+00,7.449991596299999630e-01,-9.441790851939998674e+00,2.083914354440000172e-02,-1.291997544470000099e-02,2.473005093629999929e-02,1.000000000000000000e+00
1.703560829999999915e-01,-2.549196991559999681e+00,6.870297126769999707e-01,-9.412263144160000650e+00,1.931845955549999980e-02,-3.670410951599999572e-03,1.169881224629999890e-02,1.000000000000000000e+00
1.752005010000000085e-01,-2.601123285889999970e+00,6.167945122600000385e-01,-9.422249700639998338e+00,2.896086871619999933e-02,8.455507457259999957e-03,2.089459821579999974e-02,1.000000000000000000e+00
1.802152389999999993e-01,-2.513032622239999903e+00,6.008059388809999790e-01,-9.452886246449999419e+00,3.224234655499999547e-02,-1.422208268200000035e-02,2.221098914739999888e-02,1.000000000000000000e+00
1.852075940000000032e-01,-2.480490535079999947e+00,6.186732386790000371e-01,-9.443899806910000194e+00,2.880340069530000144e-02,2.004828490320000045e-02,1.442128792409999929e-02,1.000000000000000000e+00
1.901769789999999960e-01,-2.466327569690000221e+00,5.813663847979999577e-01,-9.480376895439999174e+00,1.423030905429999854e-02,1.016834378240000052e-02,1.612927019599999859e-02,1.000000000000000000e+00
1.953780669999999886e-01,-2.493140757809999997e+00,6.019103564590000399e-01,-9.446855734110000569e+00,3.019327297810000220e-03,-6.669002585109999777e-03,2.684503793720000031e-02,1.000000000000000000e+00
2.002085650000000050e-01,-2.460268123520000128e+00,6.546691195589999790e-01,-9.410566277110000044e+00,-6.758650299159999451e-03,8.554567582910000551e-03,5.420963745560000019e-03,1.000000000000000000e+00
2.051879339999999885e-01,-2.497999888279999858e+00,6.778136291069999375e-01,-9.473575983250000832e+00,-1.197913754729999954e-02,-4.636257421230000064e-03,1.736873574550000174e-02,1.000000000000000000e+00
2.103440340000000131e-01,-2.494023970390000233e+00,6.887753873000000970e-01,-9.452752975450000150e+00,-6.787430029359999570e-04,-5.410671234129999820e-03,1.642788015310000030e-02,1.000000000000000000e+00
2.151725120000000102e-01,-2.516203068970000345e+00,6.927778278749999741e-01,-9.410474507170000891e+00,-2.431290224190000345e-03,5.953360348939998846e-03,1.712767593559999871e-02,1.000000000000000000e+00
2.202113739999999875e-01,-2.542226860280000000e+00,6.244914965030000653e-01,-9.476122745130000524e+00,-5.512255709619999673e-03,-7.262809667739999857e-04,1.946051977569999980e-02,1.000000000000000000e+00
2.252103079999999979e-01,-2.505722883749999852e+00,6.723473995909999834e-01,-9.435333054099999117e+00,-4.900744650510000314e-03,4.641718231139999908e-03,1.400288194420000118e-02,1.000000000000000000e+00
2.301952270000000023e-01,-2.479548870309999931e+00,7.041712554829999693e-01,-9.450026180840000123e+00,-8.811515755950001180e-03,-1.537680625920000111e-03,1.862354762849999928e-02,1.000000000000000000e+00
2.353758820000000085e-01,-2.480249127540000043e+00,6.648675652290000349e-01,-9.469095038449999890e+00,-1.804484799499999834e-02,8.003043476489999199e-04,7.387808058409999108e-03,1.000000000000000000e+00
2.401987939999999933e-01,-2.555812610299999843e+00,6.495737691809999603e-01,-9.456559966519998639e+00,-1.179499202410000088e-03,-1.121083647009999892e-02,2.603420056399999988e-02,1.000000000000000000e+00
2.453494479999999978e-01,-2.541819156269999880e+00,6.674606504619999825e-01,-9.464138877339999922e+00,-1.216369308530000116e-02,-8.239811286329999304e-03,2.182031050319999804e-02,1.000000000000000000e+00
2.503335859999999968e-01,-2.545856448959999963e+00,6.413826447449999524e-01,-9.449904015760001386e+00,-6.286238320169999436e-03,-8.806842379269999577e-03,2.435139380400000095e-02,1.000000000000000000e+00
2.553612920000000175e-01,-2.514277361610000039e+00,5.937021347580000441e-01,-9.448130576349999643e+00,-2.422700822350000102e-02,-2.729944651949999836e-03,2.747345715760000223e-02,1.000000000000000000e+00
2.602074220000000215e-01,-2.500599549389999954e+00,6.712681529860000662e-01,-9.421115143650000689e+00,-1.381041854620000155e-02,-4.321048967539999584e-03,2.124652639029999887e-02,1.000000000000000000e+00
2.651909720000000248e-01,-2.520982412199999967e+00,6.198293499110000271e-01,-9.463104858119999463e+00,-2.187480218709999744e-02,-8.075791411100000095e-03,1.516776904460000186e-02,1.000000000000000000e+00
2.701952490000000262e-01,-2.559771284800000046e+00,6.594300503500000188e-01,-9.433976963310000130e+00,-2.871586009859999553e-02,-2.466207370160000082e-04,1.520091295239999959e-02,1.000000000000000000e+00
2.751895089999999988e-01,-2.543204765400000067e+00,6.319163127419999970e-01,-9.438321714520000683e+00,-2.241017110650000282e-02,-1.945083960890000088e-02,2.364138327539999987e-02,1.000000000000000000e+00
2.801831220000000067e-01,-2.559761640190000076e+00,7.045004143719999501e-01,-9.444179792899999981e+00,-2.820022031659999776e-02,-7.085173390810000846e-03,2.952109836040000060e-02,1.000000000000000000e+00
2.851923490000000116e-01,-2.499735918300000304e+00,7.466084945219999547e-01,-9.504490176950000091e+00,-1.891379058359999796e-02,-1.530827675010000208e-02,3.190139308569999582e-02,1.000000000000000000e+00
2.901876400000000245e-01,-2.431411008480000024e+00,7.745548513950000213e-01,-9.559396656139998782e+00,-1.988192088899999946e-02,-3.422426059840000256e-03,1.728337444370000101e-02,1.000000000000000000e+00
2.953481889999999832e-01,-2.486404727559999639e+00,7.621704399869999591e-01,-9.486012855500000285e+00,-2.814251556989999861e-02,-3.013314306740000337e-02,2.156393602490000103e-02,1.000000000000000000e+00
3.001735739999999986e-01,-2.532334704079999721e+00,6.535360969410000109e-01,-9.409015540539998668e+00,-1.539061963560000093e-02,-3.875690698619999736e-02,3.079004772009999794e-02,1.000000000000000000e+00
3.053533540000000213e-01,-2.478039634790000001e+00,6.612376112290000441e-01,-9.471767472530000731e+00,-9.625350125129999643e-03,-4.677068814640000793e-02,2.389933727679999925e-02,1.000000000000000000e+00
3.101949999999999985e-01,-2.532699153479999854e+00,7.054843839079999457e-01,-9.453550263310001256e+00,-1.904091984029999962e-02,-3.753452375530000329e-02,3.367697075009999652e-02,1.000000000000000000e+00
3.152808389999999794e-01,-2.527883862149999938e+00,7.626807275970000077e-01,-9.454273901409999681e+00,-2.449180372059999930e-02,-5.764845013619999264e-02,2.561787329609999803e-02,1.000000000000000000e+00
3.202229790000000187e-01,-2.578454942480000067e+00,6.034689110119999533e-01,-9.446284656219999576e+00,-2.114284597340000335e-02,-5.055951699609999295e-02,2.800818532709999781e-02,1.000000000000000000e+00
3.252178560000000274e-01,-2.630739256470000065e+00,6.400852253459999863e-01,-9.358087901850000279e+00,6.424231920390000190e-03,-4.188005253669999789e-02,3.307212516670000185e-02,1.000000000000000000e+00
3.302146060000000216e-01,-2.563855046979999663e+00,7.001420730320000452e-01,-9.414365084869999123e+00,-1.297439262270000046e-02,-4.504850879309999639e-02,2.092215232550000137e-02,1.000000000000000000e+00
3.352060780000000184e-01,-2.596258602459999842e+00,6.928145796879999763e-01,-9.428024192389999669e+00,-1.199982222169999890e-02,-4.902479052540000687e-02,3.559064492580000377e-02,1.000000000000000000e+00
3.402279209999999887e-01,-2.554167765709999927e+00,6.596880436990000263e-01,-9.413070953410000996e+00,-1.679629646239999899e-02,-2.187453396620000351e-02,2.182272635400000008e-02,1.000000000000000000e+00
3.452196799999999732e-01,-2.634977916959999611e+00,7.002911261139999066e-01,-9.406545351030001001e+00,-1.391261070970000076e-02,-5.058629903939999492e-03,3.434967249629999886e-02,1.000000000000000000e+00
3.502105569999999779e-01,-2.556496793180000004e+00,7.366475839349999610e-01,-9.445270510750001236e+00,-2.172649838029999669e-02,-2.149861119690000058e-02,3.273156657809999509e-02,1.000000000000000000e+00
3.552029380000000236e-01,-2.533885732919999967e+00,7.710816223260000823e-01,-9.451534247310000580e+00,-9.821749292309998533e-03,-1.497522089629999865e-02,2.046357840300000105e-02,1.000000000000000000e+00
3.602261219999999819e-01,-2.657799112829999810e+00,7.108151504770000573e-01,-9.444768406439999708e+00,-5.279910285029999241e-03,-1.783941686150000011e-02,2.330506034200000021e-02,1.000000000000000000e+00
3.652031949999999805e-01,-2.570610658720000163e+00,6.785945503520000033e-01,-9.430864384250000398e+00,-1.699039712550000011e-02,-7.629167288540000119e-03,1.377646066249999836e-02,1.000000000000000000e+00
3.702049780000000179e-01,-2.621051975200000328e+00,6.857762054839999788e-01,-9.412741867579999422e+00,-6.183295045050001167e-03,-2.380899712440000260e-02,4.592423140999999515e-02,1.000000000000000000e+00
3.751984300000000272e-01,-2.569818339300000254e+00,6.669382340230000095e-01,-9.418287226749999519e+00,-2.368039637800000222e-02,-1.750725135209999644e-02,2.615795470769999992e-02,1.000000000000000000e+00
3.802185770000000020e-01,-2.595286250300000042e+00,6.751523009430000499e-01,-9.429225969400000906e+00,-2.602038905019999834e-02,-1.086187083270000013e-02,2.186627872290000316e-02,1.000000000000000000e+00
3.851984139999999890e-01,-2.581060448809999741e+00,6.906188232100001212e-01,-9.408902143289999742e+00,-2.775818854569999869e-02,-6.122632883489999289e-03,3.488234058019999695e-02,1.000000000000000000e+00
3.901964640000000206e-01,-2.553457571609999643e+00,7.774804565180000182e-01,-9.413711589400000079e+00,-2.284160815179999901e-02,-7.779794745150000329e-03,2.354870922859999757e-02,1.000000000000000000e+00
3.951983150000000222e-01,-2.617269534050000068e+00,7.346168087600000174e-01,-9.420434760170000033e+00,-2.293636277319999889e-02,-2.253143349660000159e-03,4.256377369169999508e-02,1.000000000000000000e+00
4.002101530000000129e-01,-2.590961080570000075e+00,6.753251732920000361e-01,-9.414194989000000291e+00,-1.822541095320000248e-02,-2.286591753360000048e-02,2.999382652340000163e-02,1.000000000000000000e+00
4.053596349999999959e-01,-2.584078043059999885e+00,7.097271360449999289e-01,-9.403997420110000505e+00,-1.899409852920000072e-02,-1.025076955559999989e-02,3.983466327190000184e-02,1.000000000000000000e+00
4.103485499999999786e-01,-2.550727269859999868e+00,7.535657663140000739e-01,-9.424543364539999857e+00,-1.562100648880000026e-02,-2.943272702399999958e-03,3.177896142009999786e-02,1.000000000000000000e+00
4.153593190000000046e-01,-2.563413148440000011e+00,6.746947664339999484e-01,-9.466896651619999048e+00,-2.206610888240000123e-02,4.938201978799999954e-03,3.009137324990000112e-02,1.000000000000000000e+00
4.203798950000000034e-01,-2.561028591390000386e+00,7.439677707549999797e-01,-9.426201068619999290e+00,-2.693683467809999954e-02,1.452568359670000121e-02,3.696858137850000253e-02,1.000000000000000000e+00
4.252241560000000198e-01,-2.527821610570000210e+00,7.591513844270000311e-01,-9.457402847090000009e+00,-1.973058283329999843e-02,4.552680999039999954e-03,2.821302041409999919e-02,1.000000000000000000e+00
4.301850560000000101e-01,-2.617314834490000131e+00,7.464552767219999607e-01,-9.435419563339999982e+00,-2.663139440119999951e-02,2.086055651309999884e-02,3.695419058200000162e-02,1.000000000000000000e+00
4.351688369999999750e-01,-2.602408941779999818e+00,7.071561165130000326e-01,-9.441082411410000930e+00,-1.560155861079999887e-02,7.213355042040000241e-03,3.776440024380000454e-02,1.000000000000000000e+00
4.401692930000000170e-01,-2.508406131490000135e+00,7.021282053479999119e-01,-9.443104272619999406e+00,-1.782044209540000271e-02,1.682901754979999887e-02,2.659142948689999925e-02,1.000000000000000000e+00
4.451705470000000275e-01,-2.559639767380000208e+00,7.843438394810000602e-01,-9.432545469209999922e+00,-1.686831191179999703e-02,1.943282037970000056e-02,3.430427610870000199e-02,1.000000000000000000e+00
4.501659450000000118e-01,-2.580729901679999827e+00,7.653755196389999682e-01,-9.439736842020000296e+00,-1.360234152529999838e-02,-2.780380658810000308e-03,3.491213545200000379e-02,1.000000000000000000e+00
4.551624699999999857e-01,-2.566437172430000135e+00,7.485244111459999905e-01,-9.462308154789999648e+00,-7.043131161479999729e-03,1.264305785300000144e-02,2.867088653149999986e-02,1.000000000000000000e+00
4.602210230000000069e-01,-2.595049518930000243e+00,7.545535352429999509e-01,-9.452811427639998598e+00,-2.068443596359999942e-02,8.571376092729999369e-03,3.708267956969999585e-02,1.000000000000000000e+00
4.652120390000000216e-01,-2.543870828100000203e+00,7.438829420160000261e-01,-9.437989706089998876e+00,-1.795943640170000188e-02,1.402573101220000104e-02,3.275341913100000141e-02,1.000000000000000000e+00
4.702024380000000003e-01,-2.551955642619999853e+00,7.630679002840000669e-01,-9.414663775560001113e+00,-1.123808231200000042e-02,4.382038488979999279e-03,3.945015743369999911e-02,1.000000000000000000e+00
4.752064040000000267e-01,-2.563587920479999838e+00,7.201893472179999867e-01,-9.440443528979999499e+00,-1.897993311289999929e-02,2.092483220619999716e-03,2.850252203639999996e-02,1.000000000000000000e+00
4.802181609999999767e-01,-2.580816703180000005e+00,7.513054201669999710e-01,-9.411349536439999497e+00,-1.759398914870000108e-02,1.552349142729999958e-02,3.517959639430000285e-02,1.000000000000000000e+00
4.852146039999999938e-01,-2.571673611780000090e+00,7.666542343379999513e-01,-9.427923070100000302e+00,-1.809298060829999874e-02,1.977709867059999904e-02,3.302735462779999437e-02,1.000000000000000000e+00
4.902067540000000223e-01,-2.558852708649999919e+00,7.440181127030000008e-01,-9.421360642849998968e+00,-2.916738204659999681e-02,5.021691322330000366e-03,3.758244216440000118e-02,1.000000000000000000e+00
4.951977550000000172e-01,-2.548159465199999918e+00,6.987208811229999039e-01,-9.437398754460000205e+00,-2.575319260359999751e-02,1.890652254219999870e-02,3.079752065240000392e-02,1.000000000000000000e+00
5.001790729999999741e-01,-2.554949563730000150e+00,7.217260552659999773e-01,-9.398810372869998986e+00,-2.476307190950000070e-02,1.807540096340000055e-02,1.734437420959999629e-02,1.000000000000000000e+00
5.052092879999999786e-01,-2.564035079730000000e+00,7.211527854220000089e-01,-9.452200602270000473e+00,-2.085117623209999799e-02,2.441914379599999935e-02,2.430745027959999721e-02,1.000000000000000000e+00
5.102130200000000171e-01,-2.574251353309999768e+00,7.246175389229999597e-01,-9.459698264550000957e+00,-2.800340205430000215e-02,1.147811114790000045e-02,4.199205338949999616e-02,1.000000000000000000e+00
5.152013349999999825e-01,-2.469393971520000175e+00,6.946493939000000228e-01,-9.457915472779999888e+00,-1.982593908909999897e-02,1.128712482749999989e-02,4.135277494790000341e-02,1.000000000000000000e+00
5.203318059999999523e-01,-2.520269880019999853e+00,7.553886708930001026e-01,-9.478915590719999784e+00,-1.730095036330000016e-02,6.632637232539999664e-03,2.990633808079999970e-02,1.000000000000000000e+00
5.253766920000000340e-01,-2.522018477250000057e+00,7.606537518139999676e-01,-9.427173128519999779e+00,-1.136356499049999934e-02,2.610809914770000073e-02,1.092589274049999941e-02,1.000000000000000000e+00
5.303580209999999573e-01,-2.547487557290000204e+00,7.257564067599999724e-01,-9.455634083850000593e+00,-1.721831224860000120e-02,1.003701612349999946e-02,2.717588655650000212e-02,1.000000000000000000e+00
5.353831409999999513e-01,-2.547119893020000081e+00,8.796179848909999599e-01,-9.414470883330000817e+00,-1.926102861759999840e-02,1.326617039739999906e-02,3.419421985749999948e-02,1.000000000000000000e+00
5.403685919999999809e-01,-2.487433778340000234e+00,8.235994528100000212e-01,-9.420528868199999906e+00,-1.697537489239999905e-02,6.131641566749999536e-03,1.945787481959999898e-02,1.000000000000000000e+00
5.453475719999999471e-01,-2.555276311470000117e+00,7.746905335379999924e-01,-9.443556108039999231e+00,-3.416429273779999880e-03,4.471450112760000199e-03,3.094970248640000268e-02,1.000000000000000000e+00
5.502143280000000303e-01,-2.544731828839999821e+00,7.712097787499999635e-01,-9.442865787689999735e+00,-1.458137203010000105e-02,8.928122930230000809e-03,2.544486150150000042e-02,1.000000000000000000e+00
5.552088579999999718e-01,-2.560815533159999990e+00,7.856604750380000723e-01,-9.428243972619998914e+00,-2.424249053000000417e-02,2.253320766609999935e-03,2.095797099169999927e-02,1.000000000000000000e+00
5.602298430000000051e-01,-2.526157769010000109e+00,7.261025898490000019e-01,-9.415113272889998441e+00,-2.944878488779999887e-02,1.936319516970000159e-03,2.700245380400000117e-02,1.000000000000000000e+00
5.652023309999999467e-01,-2.555898827280000063e+00,7.556213106049999295e-01,-9.451514958089999752e+00,-3.849710151550000264e-02,7.437930908049999925e-04,3.437366709109999918e-02,1.000000000000000000e+00
5.702079460000000211e-01,-2.536747552090000024e+00,6.820817348800000124e-01,-9.434954868440000197e+00,-3.534676879640000213e-02,2.055530250069999981e-02,2.285383269190000358e-02,1.000000000000000000e+00
5.751988839999999659e-01,-2.573510471820000145e+00,7.906630325650000346e-01,-9.392984443189998700e+00,-3.226185217500000119e-02,-2.150417538360000196e-03,3.347513824700000529e-02,1.000000000000000000e+00
5.802043599999999746e-01,-2.511010176500000135e+00,8.198515715180000329e-01,-9.449727490149999909e+00,-3.261115029449999925e-02,-2.698792144659999896e-03,2.031685411929999921e-02,1.000000000000000000e+00
5.852192259999999813e-01,-2.557581373540000147e+00,7.989115132119999352e-01,-9.401433122580000301e+00,-4.025191068649999759e-02,1.452771946789999970e-02,2.347777783870000010e-02,1.000000000000000000e+00
5.901968779999999803e-01,-2.557202018839999980e+00,6.832021902779998879e-01,-9.435487367880000420e+00,-4.319087415930000090e-02,1.615216024219999941e-05,3.154924884440000327e-02,1.000000000000000000e+00
5.953567929999999953e-01,-2.516955640900000013e+00,6.951973831720000829e-01,-9.415859707339999218e+00,-3.220856189729999486e-02,1.757963374259999961e-02,2.898642234499999859e-02,1.000000000000000000e+00
6.001994520000000222e-01,-2.497028997420000174e+00,8.268968138550000235e-01,-9.449357487800000399e+00,-3.583074733609999812e-02,5.177244544029999118e-03,2.217872440810000206e-02,1.000000000000000000e+00
6.052099239999999547e-01,-2.484491295149999779e+00,7.339806297480000463e-01,-9.447550146110000213e+00,-4.126319661740000116e-02,9.235112927850000139e-03,3.079002164299999775e-02,1.000000000000000000e+00
6.101949309999999960e-01,-2.545043671270000196e+00,6.841095874460000337e-01,-9.475528286360001218e+00,-4.039660096169999520e-02,2.301999740300000180e-02,2.345891669389999976e-02,1.000000000000000000e+00
6.151884640000000459e-01,-2.505349374260000150e+00,7.033507328800000513e-01,-9.441745843750000589e+00,-2.475710399449999877e-02,-1.023760810489999888e-02,7.686234544959999991e-03,1.000000000000000000e+00
6.202669779999999689e-01,-2.527364514459999878e+00,7.422017109309999583e-01,-9.474037755549998607e+00,-3.826821967960000043e-02,-2.163578756150000238e-04,2.049406245349999836e-02,1.000000000000000000e+00
6.253836489999999859e-01,-2.525143623539999993e+00,6.682734281500000151e-01,-9.499433478089999383e+00,-4.078121855849999727e-02,7.793416269119999781e-03,2.664563804860000176e-02,1.000000000000000000e+00
6.303600900000000395e-01,-2.522799690759999880e+00,7.016868913210000391e-01,-9.496606145710000391e+00,-2.532560564580000131e-02,1.438064267859999988e-03,1.967939361930000006e-02,1.000000000000000000e+00
6.352045610000000009e-01,-2.516764502250000035e+00,7.568449341159999566e-01,-9.435663308969999719e+00,-3.941251710060000163e-02,9.106962010259999143e-03,2.176624350250000103e-02,1.000000000000000000e+00
6.403793810000000253e-01,-2.497317458980000016e+00,7.517013606820001081e-01,-9.475338316749999379e+00,-2.278293296690000330e-02,2.415061229840000361e-03,1.994057558479999867e-02,1.000000000000000000e+00
6.453625259999999919e-01,-2.464557345149999801e+00,7.036963314480000342e-01,-9.510575634349999419e+00,-5.532772466540000073e-02,-1.772642508149999824e-02,1.866370998320000113e-02,1.000000000000000000e+00
6.503555880000000400e-01,-2.518568921319999987e+00,6.540794831030000145e-01,-9.480902380619999903e+00,-2.630732022229999648e-02,1.004817895589999940e-02,3.296599537130000257e-02,1.000000000000000000e+00
6.552060520000000388e-01,-2.467222472700000058e+00,7.423105781329999431e-01,-9.460952063999998884e+00,-3.214019909500000216e-02,-5.280753597620000371e-03,1.573902368550000180e-02,1.000000000000000000e+00
6.603667640000000505e-01,-2.435802667569999969e+00,5.750797422760000055e-01,-9.506423775369999163e+00,-2.023581042890000223e-02,-7.640697062020000360e-03,2.680816873909999676e-02,1.000000000000000000e+00
6.652483110000000366e-01,-2.403128040059999915e+00,7.797004706550000330e-01,-9.505328965869999536e+00,-1.746433787049999839e-02,8.191782981160000351e-03,1.801980286840000264e-02,1.000000000000000000e+00
6.702053660000000246e-01,-2.425629064079999786e+00,9.440973982590000757e-01,-9.477788047989999853e+00,-3.058123402300000349e-02,-1.966422609979999805e-02,1.904974132779999746e-02,1.000000000000000000e+00
6.752025510000000397e-01,-2.425229835629999720e+00,8.823959251710000729e-01,-9.466193471789999592e+00,6.871738005429999614e-04,-2.343119867149999827e-02,1.267115399239999995e-02,1.000000000000000000e+00
6.801978060000000159e-01,-2.433057168249999958e+00,6.338952846650000028e-01,-9.447056225119998984e+00,-6.566076539460000659e-03,-1.556501071900000081e-02,1.985689438879999907e-02,1.000000000000000000e+00
6.851656080000000371e-01,-2.420484833059999730e+00,6.575098228769999942e-01,-9.468605209099999698e+00,-1.081540598530000060e-03,-1.888864673670000160e-02,1.896626874800000015e-02,1.000000000000000000e+00
6.901640369999999525e-01,-2.348155948300000073e+00,5.917771580439999957e-01,-9.473879934639999334e+00,3.828888759019999973e-03,-2.541456371549999718e-02,1.908316649500000142e-02,1.000000000000000000e+00
6.953627759999999602e-01,-2.250279073040000188e+00,6.216963128269999972e-01,-9.547491698810000926e+00,8.368065580729999731e-03,-2.498217113320000057e-02,2.190261706710000186e-02,1.000000000000000000e+00
7.002059320000000309e-01,-2.198585564550000093e+00,5.722805400120000163e-01,-9.594432898210001781e+00,1.796811004170000003e-03,-2.113745175299999723e-02,3.266836702820000160e-02,1.000000000000000000e+00
7.052185119999999641e-01,-2.072565275490000136e+00,5.112999285439999708e-01,-9.989103831689998714e+00,-1.192149613049999987e-02,-4.526223242279999587e-02,4.585240036249999679e-02,1.000000000000000000e+00
7.102004339999999916e-01,-2.290388234459999950e+00,5.921931549669999795e-01,-9.667117026150000569e+00,-6.406234577300000572e-03,-7.419838011260000699e-02,5.777062103149999822e-02,1.000000000000000000e+00
7.152112170000000102e-01,-2.071344939909999905e+00,8.003362853180000513e-01,-9.595538229099998873e+00,2.975581586360000197e-02,-9.504570066930000116e-02,5.681874230499999595e-02,1.000000000000000000e+00
7.202286110000000185e-01,-2.208626481570000077e+00,7.871852734520000672e-01,-9.649446929419999819e+00,4.195781797169999966e-02,-1.226235330099999937e-01,6.896838545800000608e-02,1.000000000000000000e+00
7.251758919999999886e-01,-2.087634249799999786e+00,7.526100730249999371e-01,-9.740993578739999492e+00,5.537016689780000639e-02,-1.435366868969999987e-01,8.736826479430001569e-02,1.000000000000000000e+00
7.301704639999999635e-01,-1.812199790470000238e+00,6.985624756910000510e-01,-9.845029707280000153e+00,7.751286774870000396e-02,-1.616335213179999897e-01,8.065050095319999113e-02,0.000000000000000000e+00
7.353655319999999884e-01,-1.623083139889999860e+00,6.010737229720000130e-01,-1.014418450329999999e+01,7.120078802110001159e-02,-2.029397785660000120e-01,1.099773868920000119e-01,0.000000000000000000e+00
7.401819630000000538e-01,-1.458015473409999929e+00,7.560328140149999987e-01,-1.034804703370000034e+01,8.342365175489999118e-02,-2.504894137379999886e-01,9.584244340660000305e-02,0.000000000000000000e+00
7.451220809999999917e-01,-1.638890073089999788e+00,7.590743736679999021e-01,-1.059515132449999975e+01,6.767774373290000312e-02,-3.442810177800000315e-01,1.141028329730000013e-01,0.000000000000000000e+00
7.501467649999999932e-01,-1.569978011029999898e+00,6.088298169910000279e-01,-1.062816628989999934e+01,8.114850521089998769e-02,-4.383782148359999797e-01,1.096645742649999949e-01,0.000000000000000000e+00
7.551420170000000542e-01,-1.915173258209999840e+00,5.611527045369999467e-01,-1.063957498809999969e+01,9.284599870439998182e-02,-5.551414489750000625e-01,1.123364120719999998e-01,0.000000000000000000e+00
7.601762450000000282e-01,-1.468583483049999971e+00,3.668290964300000012e-01,-1.078341530380000179e+01,8.614958822730001131e-02,-6.421892046930000042e-01,1.117224171759999968e-01,0.000000000000000000e+00
7.651105519999999993e-01,-1.840276422649999910e+00,2.762926470670000190e-01,-1.108596617200000090e+01,1.001836732029999927e-01,-7.140087485310000481e-01,1.168439984319999958e-01,0.000000000000000000e+00
7.701353210000000393e-01,-1.943266549270000088e+00,2.703588183049999705e-01,-1.167363162040000013e+01,8.535296469930001018e-02,-8.262255191799999787e-01,1.262805759909999825e-01,0.000000000000000000e+00
7.751591300000000295e-01,-1.152449860509999979e+00,3.577991465500000023e-01,-1.229695874929999988e+01,1.432713568210000066e-01,-9.074908494949999183e-01,2.325750291349999999e-01,0.000000000000000000e+00
7.801474889999999718e-01,6.923058995140000116e-01,8.730903366869999793e-01,-1.305780400509999950e+01,2.366214096550000034e-01,-1.006307363510000163e+00,2.878007590769999791e-01,0.000000000000000000e+00
7.851382860000000186e-01,9.826946207449999138e-01,5.361183261209999662e-01,-1.441685948420000152e+01,2.544224560259999990e-01,-1.231847763059999989e+00,2.649480104449999929e-01,0.000000000000000000e+00
7.901339229999999603e-01,-4.050244601160000180e-01,8.738851585930000609e-02,-1.406412273559999981e+01,1.754588037730000216e-01,-1.587194204330000025e+00,2.469660192729999926e-01,0.000000000000000000e+00
7.951365670000000163e-01,3.575543049440000343e-01,-1.007426837879999981e+00,-1.336481594430000008e+01,5.916194617750000079e-02,-1.989135742190000222e+00,2.736991047860000137e-01,0.000000000000000000e+00
8.002525980000000372e-01,-2.519162028379999807e-01,-1.092291086820000201e+00,-1.304798169920000106e+01,-6.956762075419999081e-02,-2.382874250410000005e+00,2.236711680889999776e-01,0.000000000000000000e+00
8.052150310000000255e-01,-1.353299107529999823e+00,-1.472888486769999838e-01,-1.258120589900000041e+01,-1.327881366010000008e-01,-2.689453125000000000e+00,2.234417349099999950e-01,0.000000000000000000e+00
8.101638370000000533e-01,-1.871032941579999997e+00,5.118351313989999429e-01,-1.233887832109999927e+01,-1.862270087000000018e-01,-2.877166271210000126e+00,2.618481814860000312e-01,0.000000000000000000e+00
8.151230990000000176e-01,-1.757046058520000065e+00,3.116217711340000251e-01,-1.209946400029999936e+01,-2.118315845729999980e-01,-3.022860288620000002e+00,2.578338980669999669e-01,0.000000000000000000e+00
8.201399679999999970e-01,-2.420342940369999862e+00,-7.292445411369999908e-01,-1.199235036400000176e+01,-2.090444415810000234e-01,-2.999143838880000246e+00,2.264709919690000017e-01,0.000000000000000000e+00
8.251337709999999603e-01,-3.127801766150000162e+00,-2.483816756890000033e+00,-1.207700666930000111e+01,-2.685624659059999697e-01,-2.951595544819999972e+00,2.962254583839999955e-01,0.000000000000000000e+00
8.300987930000000015e-01,-3.447364559419999530e+00,-3.559707036269999847e+00,-1.238766251799999907e+01,-3.509878516200000131e-01,-2.905984878540000427e+00,4.020542502400000218e-01,0.000000000000000000e+00
8.353774619999999596e-01,-3.673985449619999510e+00,-3.267373026190000029e+00,-1.238267654630000081e+01,-4.723279774189999558e-01,-2.883849382400000216e+00,5.010803341870000427e-01,0.000000000000000000e+00
8.401940500000000256e-01,-3.927608328510000302e+00,-2.997682517329999907e+00,-1.264446987220000018e+01,-6.502900123600000581e-01,-2.900007963180000203e+00,6.252452135089999752e-01,0.000000000000000000e+00
8.451963479999999862e-01,-4.208912995050000383e+00,-2.392474251839999955e+00,-1.254640112759999937e+01,-7.641264796259998882e-01,-2.940383672709999896e+00,7.117933630940000977e-01,0.000000000000000000e+00
8.503311350000000157e-01,-3.953612538339999816e+00,-1.926194564570000267e+00,-1.186807516510000049e+01,-8.245310187340000319e-01,-2.997419118879999900e+00,8.298171758650000340e-01,0.000000000000000000e+00
8.553528989999999999e-01,-4.619676985199999919e+00,-1.281569503829999901e+00,-1.191722761079999948e+01,-7.968160510060000590e-01,-3.034707307820000199e+00,8.994381427760000935e-01,0.000000000000000000e+00
8.603556449999999467e-01,-5.968278290299999789e+00,-1.252877223970000120e+00,-1.179638238619999946e+01,-7.551007866859998918e-01,-3.029811859130000062e+00,9.379871487620000670e-01,0.000000000000000000e+00
8.651687980000000167e-01,-6.165833245009999075e+00,-1.142153361289999891e+00,-1.172154487969999970e+01,-6.896293759350000663e-01,-2.997375488279999889e+00,9.839152097700001320e-01,0.000000000000000000e+00
8.701918149999999796e-01,-5.924017708290000073e+00,-8.874815578730000931e-01,-1.131641392700000104e+01,-6.383979320529999946e-01,-2.946613311769999743e+00,1.047743797300000113e+00,0.000000000000000000e+00
8.751901669999999633e-01,-6.490187948730000045e+00,-7.036690050489999848e-01,-1.121113919650000135e+01,-6.546553969380000115e-01,-2.851790666579999911e+00,1.098882198329999893e+00,0.000000000000000000e+00
8.803301869999999862e-01,-6.545376167469999729e+00,-1.203634396570000042e+00,-1.097977958739999949e+01,-6.747659444810000240e-01,-2.679856777189999928e+00,1.175693988799999978e+00,0.000000000000000000e+00
8.851806930000000184e-01,-6.590294336599999525e+00,-1.943456665009999806e+00,-1.101803771410000010e+01,-7.668067812919999726e-01,-2.522094726559999778e+00,1.221198439599999963e+00,0.000000000000000000e+00
8.903003940000000505e-01,-4.508410320889999490e+00,-2.060016759559999855e+00,-9.960535908849999842e+00,-8.530505299570000366e-01,-2.243631124499999796e+00,1.161589503289999881e+00,0.000000000000000000e+00
8.951884009999999670e-01,-4.701659687360000284e+00,-2.747616454140000553e+00,-1.005447675980000000e+01,-9.343266487119999963e-01,-1.971798896790000200e+00,9.189096093179999203e-01,0.000000000000000000e+00
9.001582160000000110e-01,-5.415042350240000246e+00,-3.613598200930000726e+00,-1.107822242599999818e+01,-9.749168753620000016e-01,-1.737913727759999860e+00,6.238385438919999970e-01,0.000000000000000000e+00
9.053608619999999885e-01,-4.163082971769999752e+00,-3.870195127200000140e+00,-1.129769870510000018e+01,-1.084612488749999937e+00,-1.445151805879999918e+00,3.824560940269999820e-01,0.000000000000000000e+00
9.101862819999999576e-01,-1.974983729920000153e+00,-3.216440419070000001e+00,-1.009052656289999916e+01,-1.110002875329999972e+00,-1.208554148670000217e+00,6.524033099409999592e-02,0.000000000000000000e+00
9.151716020000000285e-01,-9.646090750859999119e-01,-3.512404310089999981e+00,-8.285872511599999157e+00,-1.110369443890000030e+00,-1.006734728809999924e+00,-2.691796123979999789e-01,0.000000000000000000e+00
9.203419179999999811e-01,-2.492359836569999931e+00,-2.645149182359999518e+00,-6.934846609700000108e+00,-1.069387197489999997e+00,-9.575997591020000144e-01,-5.480963587760000477e-01,0.000000000000000000e+00
9.252171200000000040e-01,-2.887973019339999947e+00,-1.278353172140000105e+00,-8.173553707880000019e+00,-9.112252593040000015e-01,-9.527450203899998638e-01,-8.100739121439999302e-01,0.000000000000000000e+00
9.303336840000000496e-01,-1.864972326359999766e+00,-1.154187278760000046e+00,-8.448076166939998188e+00,-7.022399306300001198e-01,-8.094062805180000097e-01,-9.829492568970000788e-01,0.000000000000000000e+00
9.352054659999999853e-01,-9.457986492190000316e-01,-5.433173342470000167e-01,-7.693516275019999462e+00,-3.583066463469999907e-01,-5.853542685510000343e-01,-1.130306243900000007e+00,0.000000000000000000e+00
9.401996550000000230e-01,-6.734577719850001198e-01,-8.142987231639998991e-02,-7.638213489989999161e+00,-1.113407462839999945e-01,-4.182315468789999935e-01,-1.232507586479999917e+00,0.000000000000000000e+00
9.453369839999999913e-01,-8.829513670970000339e-02,-6.617636809300000422e-01,-7.607983186900000305e+00,3.133292496199999860e-02,-2.792875766749999822e-01,-1.275641322140000034e+00,0.000000000000000000e+00
9.502871560000000217e-01,6.731104198520000415e-01,-1.559715414090000030e+00,-7.404089092300000452e+00,6.566230952740000071e-02,-1.884923875329999887e-01,-1.300385355950000044e+00,0.000000000000000000e+00
9.553479740000000442e-01,8.927287378110000393e-01,-1.820518852129999976e+00,-7.208425650419999720e+00,4.643381759519999569e-02,-1.248695030810000051e-01,-1.321030020710000086e+00,0.000000000000000000e+00
9.603182040000000086e-01,7.967700442030000163e-01,-1.569814344900000158e+00,-7.256772624960000861e+00,-2.802773378789999957e-03,-9.739329665899999766e-02,-1.313426136970000213e+00,0.000000000000000000e+00
9.651991589999999732e-01,9.404289388800000093e-01,-1.127986596519999996e+00,-7.300396078110001241e+00,-9.476541727779999591e-02,-5.575397610659999642e-02,-1.339167237279999867e+00,0.000000000000000000e+00
9.703479910000000208e-01,8.840256452650000485e-01,-7.617654393830000092e-01,-7.333982705889999565e+00,-1.744827777149999815e-01,-2.020404301579999812e-02,-1.357965469359999844e+00,0.000000000000000000e+00
9.751977539999999722e-01,6.778093913229999989e-01,-4.837357393899999747e-01,-7.293474169900000526e+00,-2.589917480950000295e-01,9.570214897389998920e-02,-1.347598075870000134e+00,0.000000000000000000e+00
9.801931849999999669e-01,6.294199658810000209e-01,-7.127125176639999282e-02,-7.218026422460000369e+00,-2.598853409290000083e-01,2.297650575640000081e-01,-1.348648786539999866e+00,0.000000000000000000e+00
9.851526099999999841e-01,6.019338469320000273e-01,4.998591911949999411e-01,-7.326469261519999776e+00,-2.527609169480000140e-01,3.377489447590000249e-01,-1.326373934749999872e+00,0.000000000000000000e+00
9.901829749999999652e-01,8.136403688529999512e-01,9.408188880450000235e-01,-7.440210791519999312e+00,-2.108297646049999696e-01,4.491120278840000091e-01,-1.334857702260000112e+00,0.000000000000000000e+00
9.953864789999999907e-01,8.766839041999999749e-01,1.112219045479999835e+00,-7.689253356880001000e+00,-1.868143826720000122e-01,5.259245634079999787e-01,-1.359701514239999964e+00,0.000000000000000000e+00
1.000179394999999971e+00,6.239009101990000694e-01,1.092588243140000026e+00,-7.832973261030000245e+00,-1.188658922910000026e-01,6.254206299779999645e-01,-1.347007632260000198e+00,0.000000000000000000e+00
1.005342074000000085e+00,2.967491596410000154e-01,1.169295342979999930e+00,-8.024214794809999773e+00,-7.617631554600000354e-02,7.571592330930000392e-01,-1.316024780270000027e+00,0.000000000000000000e+00
1.010307561999999937e+00,2.007028973480000089e-01,1.221510464190000089e+00,-8.228437975239998536e+00,-4.038177058100000244e-02,9.304813742640000163e-01,-1.299847126010000187e+00,0.000000000000000000e+00
1.015203059000000074e+00,1.242864236130000050e-01,1.387097770620000059e+00,-8.344787641899999997e+00,-2.423194609580000061e-02,1.081454992290000083e+00,-1.253499984739999906e+00,0.000000000000000000e+00
1.020190119000000006e+00,1.886685780200000051e-01,1.502844356830000061e+00,-8.414224166220000356e+00,-2.874230034649999724e-02,1.269576787949999952e+00,-1.207026362420000165e+00,0.000000000000000000e+00
1.025317695000000029e+00,1.861869172720000132e-01,1.531166926599999867e+00,-8.435068801330000809e+00,2.213982865210000189e-03,1.393349289889999953e+00,-1.151782989500000021e+00,0.000000000000000000e+00
1.030164266999999967e+00,2.133938356870000164e-01,1.736319058440000118e+00,-8.463504622220000329e+00,2.856644615530000084e-02,1.503774881360000037e+00,-1.055555939670000054e+00,0.000000000000000000e+00
1.035359847000000055e+00,6.018375286850000117e-02,1.962335553009999956e+00,-8.532870419389999128e+00,6.465144455429999715e-02,1.599768042560000048e+00,-9.682135581970000571e-01,0.000000000000000000e+00
1.040200921000000056e+00,-1.984409437649999886e-01,2.217915411179999907e+00,-8.639412977789998394e+00,9.168594330550000615e-02,1.705799102779999910e+00,-8.570743203159999490e-01,0.000000000000000000e+00
1.045358733999999901e+00,-4.205212679229999861e-01,2.401236673360000129e+00,-8.724248146769999934e+00,1.597158759829999941e-01,1.800490379330000001e+00,-7.560873627660000817e-01,0.000000000000000000e+00
1.050311347000000062e+00,-7.801420038770000565e-01,2.551246033040000416e+00,-8.815601319339998909e+00,2.498681396249999853e-01,1.905235886570000092e+00,-6.017840504649999422e-01,0.000000000000000000e+00
1.055166575000000106e+00,-9.940608680850000489e-01,2.608148362220000127e+00,-8.942903757179999857e+00,3.263648152349999942e-01,2.018216609950000073e+00,-4.741524159909999980e-01,0.000000000000000000e+00
1.060349192000000107e+00,-1.219355697310000153e+00,2.625434720319999915e+00,-9.084311292729999820e+00,4.185054302220000411e-01,2.133444309229999725e+00,-3.239038884639999782e-01,0.000000000000000000e+00
1.065206942999999962e+00,-1.415684544289999902e+00,2.646864754100000106e+00,-9.162656515169999238e+00,5.372163057329999436e-01,2.209334611890000133e+00,-1.701799780129999995e-01,0.000000000000000000e+00
1.070302974000000074e+00,-1.681648579970000057e+00,2.648156839739999935e+00,-9.258831993330000287e+00,6.311535835270000172e-01,2.270426988600000140e+00,-1.150416396560000054e-02,0.000000000000000000e+00
1.075374711999999899e+00,-1.816830519010000033e+00,2.664906899009999997e+00,-9.439978834079999714e+00,7.196980118750000432e-01,2.342920780180000051e+00,1.513227671379999972e-01,0.000000000000000000e+00
1.080195272999999956e+00,-1.955581987090000196e+00,2.647556243499999962e+00,-9.591152561359999495e+00,8.120522499079999568e-01,2.402460575100000106e+00,3.009931445119999882e-01,0.000000000000000000e+00
1.085178509999999985e+00,-2.216731754360000028e+00,2.537636902140000039e+00,-9.765698396410000370e+00,9.142696261409999359e-01,2.455077886579999813e+00,4.407433569430000420e-01,0.000000000000000000e+00
1.090183107999999956e+00,-2.575737207959999608e+00,2.394766600560000125e+00,-9.936249024339998570e+00,9.996232986449999913e-01,2.483270406719999990e+00,5.749679207800000302e-01,0.000000000000000000e+00
1.095373464999999991e+00,-3.046594432280000042e+00,2.136518107700000169e+00,-1.013724155230000079e+01,1.044096946720000085e+00,2.530435323719999907e+00,7.234791517259999694e-01,0.000000000000000000e+00
1.100189947999999918e+00,-3.333087899639999740e+00,1.842771015949999924e+00,-1.029421607479999956e+01,1.080026268959999980e+00,2.565250158309999584e+00,8.194329738619999803e-01,0.000000000000000000e+00
1.105163091999999958e+00,-3.642327159549999749e+00,1.659601144939999884e+00,-1.041883847979999977e+01,1.116260766979999985e+00,2.607637166980000032e+00,9.209365844729999750e-01,0.000000000000000000e+00
1.110345930000000036e+00,-3.935675315109999683e+00,1.464730607010000130e+00,-1.052407346270000055e+01,1.143213987350000016e+00,2.636805534360000092e+00,1.015677332879999950e+00,0.000000000000000000e+00
1.115183894999999925e+00,-4.016880603159999730e+00,1.211600187810000007e+00,-1.057190605799999972e+01,1.142109632489999971e+00,2.681103229520000131e+00,1.062510132789999950e+00,0.000000000000000000e+00
1.120175227999999912e+00,-4.165550530930000939e+00,9.481647207639999353e-01,-1.054975969260000035e+01,1.124818682669999959e+00,2.695361375809999682e+00,1.124130010600000062e+00,0.000000000000000000e+00
1.125317603999999916e+00,-4.168808071419999983e+00,6.203557118729999820e-01,-1.054052073959999980e+01,1.109266281129999809e+00,2.671575307849999970e+00,1.128895521160000026e+00,0.000000000000000000e+00
1.130157003000000104e+00,-4.181340512990000313e+00,2.100465893519999905e-01,-1.054846322309999884e+01,1.087701678279999973e+00,2.642094373699999998e+00,1.120696663859999997e+00,0.000000000000000000e+00
1.135142612999999967e+00,-4.245297729119999808e+00,-1.536230201340000046e-01,-1.055815693409999945e+01,1.030698418620000112e+00,2.584736347199999784e+00,1.086377978320000048e+00,0.000000000000000000e+00
1.140349695000000052e+00,-4.337031717699999511e+00,-3.006538937279999990e-01,-1.056701244070000101e+01,9.675948023799999520e-01,2.521404981609999929e+00,1.018504858020000015e+00,0.000000000000000000e+00
1.145180745000000000e+00,-4.540075625219999189e+00,-5.136350204280000220e-01,-1.065634141399999990e+01,8.841957449909999545e-01,2.455816268920000045e+00,9.497948884960000226e-01,0.000000000000000000e+00
1.150312951999999944e+00,-4.744265487899999911e+00,-7.423872966310000043e-01,-1.067756774190000080e+01,8.299918174739999710e-01,2.406410217289999931e+00,8.399100899699999401e-01,0.000000000000000000e+00
1.155358354000000087e+00,-4.866851710869999792e+00,-8.446056351549999786e-01,-1.074427337990000098e+01,7.484725117680000039e-01,2.333551168440000101e+00,6.953781247139999566e-01,0.000000000000000000e+00
1.160117421999999898e+00,-5.112793095340000704e+00,-8.573449244149999871e-01,-1.081845271489999938e+01,6.794452071189999165e-01,2.271724700930000118e+00,5.322741270070000530e-01,0.000000000000000000e+00
1.165124802000000015e+00,-5.365881721230000068e+00,-8.133354676219999302e-01,-1.079967319559999872e+01,6.430016160010000315e-01,2.218130111690000295e+00,3.495853841300000098e-01,0.000000000000000000e+00
1.170135404000000046e+00,-5.555619864709999689e+00,-6.510830777660000512e-01,-1.081490466700000042e+01,5.915749669080000439e-01,2.187970399859999748e+00,1.740934550759999921e-01,0.000000000000000000e+00
1.174935907999999918e+00,-5.562182291960000136e+00,-4.596365959979999971e-01,-1.083669213589999991e+01,5.476154685019999357e-01,2.161342620850000174e+00,-1.792897656559999664e-02,0.000000000000000000e+00
1.179848988999999904e+00,-5.527088766749999493e+00,-1.948317768239999914e-01,-1.086527759440000018e+01,5.504218339919999536e-01,2.141034364699999859e+00,-1.997436434030000207e-01,0.000000000000000000e+00
1.184916998000000055e+00,-5.410395401219999734e+00,1.212296207250000007e-01,-1.086105968450000070e+01,5.845091342929999989e-01,2.115934371949999893e+00,-3.875118196010000071e-01,0.000000000000000000e+00
1.189870023000000110e+00,-5.278592729349999679e+00,4.978660811489999949e-01,-1.084677513849999819e+01,6.530018448830000599e-01,2.074467420579999999e+00,-5.637720227239999549e-01,0.000000000000000000e+00
1.194898648999999979e+00,-5.214589336000000408e+00,8.834710801219999299e-01,-1.077751747790000003e+01,7.167538404459999901e-01,2.048365592959999759e+00,-7.171430587770000198e-01,0.000000000000000000e+00
1.200047043999999952e+00,-5.102947408630000403e+00,1.310403091870000036e+00,-1.073425467480000073e+01,8.198295831680000312e-01,2.028058528899999935e+00,-8.599554896349999034e-01,0.000000000000000000e+00
1.204987966000000021e+00,-5.237959105669999893e+00,2.004412068970000238e+00,-1.055743212690000021e+01,8.954592347149999965e-01,1.974066615099999922e+00,-9.629723429680000502e-01,0.000000000000000000e+00
1.210142172000000071e+00,-5.295287259049999307e+00,2.680792158150000049e+00,-1.036549735020000007e+01,1.010077595710000109e+00,1.964877128600000189e+00,-1.075842976569999943e+00,0.000000000000000000e+00
1.215105410999999913e+00,-5.373597994689999879e+00,2.969578120360000018e+00,-1.022884080859999933e+01,1.092106938360000168e+00,1.948233723640000248e+00,-1.112484812739999995e+00,0.000000000000000000e+00
1.220210897000000072e+00,-5.251645685719999790e+00,2.837626979940000016e+00,-1.043600004249999991e+01,1.138450384139999993e+00,1.927049398420000115e+00,-1.139257431029999879e+00,0.000000000000000000e+00
1.225140769000000018e+00,-5.319847699810000385e+00,2.727714945099999788e+00,-1.059618475919999980e+01,1.167230367659999990e+00,1.907731175419999925e+00,-1.091640949249999881e+00,0.000000000000000000e+00
1.230219425999999894e+00,-5.193205187190000238e+00,2.798358507130000117e+00,-1.060663133440000117e+01,1.118709683420000101e+00,1.885312557220000018e+00,-1.020119309429999843e+00,0.000000000000000000e+00
1.235196707999999921e+00,-5.213506216939999938e+00,2.804366515369999924e+00,-1.071332645299999875e+01,1.037470936779999908e+00,1.857114434240000334e+00,-9.115533828740001177e-01,0.000000000000000000e+00
1.240224272999999933e+00,-5.226815780369999054e+00,2.927223664229999578e+00,-1.080306576059999912e+01,9.199339151379999358e-01,1.822245717050000158e+00,-7.891004085539999879e-01,0.000000000000000000e+00
1.245320500999999913e+00,-5.250519896559999289e+00,3.282858180089999856e+00,-1.077884317349999854e+01,8.279675841329999786e-01,1.805575132370000224e+00,-6.246878504749999728e-01,0.000000000000000000e+00
1.250276777000000061e+00,-5.096462138269999720e+00,3.646796121660000001e+00,-1.070025069829999964e+01,7.051813006399999528e-01,1.818451762200000044e+00,-4.380977451799999978e-01,0.000000000000000000e+00
1.255169793999999950e+00,-4.857571549080000217e+00,3.959613824579999886e+00,-1.059659158640000065e+01,5.954779386519999385e-01,1.803093433379999944e+00,-2.456743419169999942e-01,0.000000000000000000e+00
1.260286087999999971e+00,-4.653811309990000034e+00,4.066385807819999698e+00,-1.038869702399999895e+01,5.189903378490000607e-01,1.793048739429999872e+00,-3.148751705879999918e-02,0.000000000000000000e+00
1.265160663000000074e+00,-4.487899155520000072e+00,4.220900369969999844e+00,-1.019770449660000011e+01,4.584816694259999936e-01,1.755495905879999929e+00,1.796500831839999979e-01,0.000000000000000000e+00
1.270315477000000026e+00,-4.424831873969999663e+00,4.122223430380000053e+00,-1.014318263280000032e+01,4.339995980259999664e-01,1.712798476220000143e+00,4.185730218890000298e-01,0.000000000000000000e+00
1.275353018999999977e+00,-4.297807668559999961e+00,3.845130536309999680e+00,-1.013087727789999981e+01,3.996524214739999858e-01,1.663843989370000109e+00,5.999375581739999630e-01,0.000000000000000000e+00
1.280304061999999909e+00,-4.552286872019999819e+00,3.560240704759999986e+00,-1.015461237379999915e+01,3.722166419030000228e-01,1.635947942730000104e+00,7.995250225069999717e-01,0.000000000000000000e+00
1.285171690999999949e+00,-4.709700370480000231e+00,3.202948484810000274e+00,-1.013655883070000030e+01,3.167664706710000000e-01,1.633073925970000007e+00,9.978224039080000329e-01,0.000000000000000000e+00
1.290314055999999932e+00,-4.850121817599999829e+00,2.887626397860000083e+00,-9.945581500830000365e+00,2.411162853240000070e-01,1.617339491839999921e+00,1.181708812709999945e+00,0.000000000000000000e+00
1.295288124999999901e+00,-4.833541854199999932e+00,2.636013689739999943e+00,-9.618454409789999104e+00,1.840497553350000093e-01,1.641189336780000119e+00,1.344735503199999904e+00,0.000000000000000000e+00
1.300157978000000103e+00,-4.657839250340000348e+00,2.687980900609999946e+00,-9.166552938089999714e+00,1.631153821949999916e-01,1.647535681720000200e+00,1.522391080859999857e+00,0.000000000000000000e+00
1.305303180999999979e+00,-4.470757174320000082e+00,2.820620023290000056e+00,-8.761379315289998360e+00,1.416338235140000013e-01,1.620733380320000139e+00,1.680827260020000047e+00,0.000000000000000000e+00
1.310317976999999967e+00,-4.260483607809999462e+00,2.856863303059999915e+00,-8.339214225680001036e+00,1.587653458119999972e-01,1.558755874630000093e+00,1.836051583290000178e+00,0.000000000000000000e+00
1.315158870999999952e+00,-4.280588822730000409e+00,2.838901529919999778e+00,-7.971856246539998914e+00,2.098800092939999973e-01,1.465205788610000059e+00,1.964798688890000200e+00,0.000000000000000000e+00
1.320283748999999895e+00,-4.297385643750000206e+00,2.676055485010000012e+00,-7.717797898839999782e+00,2.045233100649999913e-01,1.347901701929999918e+00,2.060992002489999919e+00,0.000000000000000000e+00
1.325295421000000085e+00,-4.539647170669999454e+00,2.478843060129999998e+00,-7.642074257080000876e+00,2.585120201109999960e-01,1.212216496470000182e+00,2.171387910840000046e+00,0.000000000000000000e+00
1.330298800000000004e+00,-4.795175006400000051e+00,2.246239150000000073e+00,-7.565000954269999411e+00,2.680674791340000307e-01,1.097133517270000080e+00,2.262617588040000349e+00,0.000000000000000000e+00
1.335263438999999996e+00,-5.081442263790000524e+00,2.043493933170000165e+00,-7.638888612779999754e+00,2.548967599870000100e-01,1.011340498920000108e+00,2.315756320949999836e+00,0.000000000000000000e+00
1.340309733000000003e+00,-5.498798491809999689e+00,1.792014642179999839e+00,-7.607301049860000219e+00,2.262707054620000102e-01,9.257971644399999311e-01,2.353137016299999829e+00,0.000000000000000000e+00
1.345198348999999904e+00,-5.609587017219999971e+00,1.551885597240000081e+00,-7.663650129069999650e+00,1.820537149910000096e-01,8.870271444320000365e-01,2.356590986250000075e+00,0.000000000000000000e+00
1.350274278000000105e+00,-5.573031018240000023e+00,1.693790707050000233e+00,-7.621760952369999842e+00,1.488128006459999986e-01,8.414843678470000921e-01,2.341081380840000392e+00,0.000000000000000000e+00
1.355163078999999993e+00,-5.606970112719999122e+00,1.815345979540000210e+00,-7.335287358749999598e+00,9.513478726150000064e-02,8.019344210619999691e-01,2.323783874509999681e+00,0.000000000000000000e+00
1.360281649999999898e+00,-5.512973147640000349e+00,1.790736292809999908e+00,-7.157220363839999600e+00,3.871780261399999923e-02,7.530061006550000657e-01,2.253951549529999987e+00,0.000000000000000000e+00
1.365283180999999901e+00,-5.314097757979999948e+00,1.593735610979999828e+00,-6.869281958370000218e+00,-8.461840450760000493e-03,6.777367591859999596e-01,2.202255725859999735e+00,0.000000000000000000e+00
1.370296976000000111e+00,-5.122721784160000347e+00,1.444295867879999973e+00,-6.751316673209999841e+00,-7.184797525409999941e-02,6.145222187039999229e-01,2.134646415709999800e+00,0.000000000000000000e+00
1.375341753999999916e+00,-4.877485040819999895e+00,1.315488140050000032e+00,-6.571299713270000176e+00,-1.416512876749999872e-01,4.921018481250000187e-01,2.040912866590000263e+00,0.000000000000000000e+00
1.380160078999999929e+00,-4.843433425880000698e+00,1.164195974020000079e+00,-6.423683970730000858e+00,-2.298346310849999907e-01,3.785690665250000531e-01,1.973197579379999844e+00,0.000000000000000000e+00
1.385141925999999968e+00,-4.843638885319999865e+00,8.851181166769999109e-01,-6.387198698899999805e+00,-2.971447110179999962e-01,2.378148585559999861e-01,1.884806036949999930e+00,0.000000000000000000e+00
1.390315578000000052e+00,-5.059322201919999706e+00,6.296527517239999261e-01,-6.450277963150000460e+00,-3.819547593590000290e-01,9.893237799409999866e-02,1.788261890409999832e+00,0.000000000000000000e+00
1.395269507999999936e+00,-5.327034980959999722e+00,4.775703851609999773e-01,-6.500991082300000556e+00,-4.087458550929999879e-01,-8.426910266279999048e-03,1.732107281679999833e+00,0.000000000000000000e+00
1.400196025999999927e+00,-5.421361031869999181e+00,5.503692255200000050e-01,-6.546445842529999837e+00,-4.520139396190000491e-01,-1.052058264609999905e-01,1.632273554799999804e+00,0.000000000000000000e+00
1.405285494999999996e+00,-5.611852039539999559e+00,6.338904623590000398e-01,-6.575472030519999400e+00,-4.562273621560000159e-01,-2.113303244110000256e-01,1.556198358540000104e+00,0.000000000000000000e+00
1.410272286999999958e+00,-5.620986363110000106e+00,5.788974739340000397e-01,-6.630701165789999685e+00,-4.601593911649999868e-01,-2.768575549130000146e-01,1.454973816870000158e+00,0.000000000000000000e+00
1.415132497999999961e+00,-5.618412713230000577e+00,5.985048588639999556e-01,-6.681192166619999817e+00,-4.275964796540000501e-01,-3.610474169250000309e-01,1.376831054689999778e+00,0.000000000000000000e+00
1.420230311000000079e+00,-5.442695496319999826e+00,5.783440413020000115e-01,-6.768769912309999803e+00,-3.916590511799999952e-01,-3.954259157180000095e-01,1.260475873949999936e+00,0.000000000000000000e+00
1.425300806999999947e+00,-5.299245056760000239e+00,4.963050058449999802e-01,-6.698861678830000166e+00,-3.600159287449999912e-01,-4.418139457699999939e-01,1.151042580599999976e+00,0.000000000000000000e+00
1.430105850999999983e+00,-5.072564545330000563e+00,3.131683064570000008e-01,-6.747599113990000674e+00,-3.153529167179999759e-01,-5.164968967440000114e-01,1.028420567509999994e+00,0.000000000000000000e+00
1.435365234000000045e+00,-4.891200846959999460e+00,-2.865021712540000154e-02,-6.841301480040000271e+00,-2.801905572410000045e-01,-5.752307772640000705e-01,9.292896389960000336e-01,0.000000000000000000e+00
1.440175557000000106e+00,-4.703212177500000202e+00,-4.691918483940000217e-01,-7.092679210350000041e+00,-2.888346314429999784e-01,-6.374726295470000137e-01,8.250702619549999950e-01,0.000000000000000000e+00
1.445132829999999924e+00,-4.585143431959999738e+00,-7.495907252040000524e-01,-7.273649525479999767e+00,-3.025804162029999689e-01,-7.128415107729999534e-01,7.312256693840000210e-01,0.000000000000000000e+00
1.450105627999999980e+00,-4.267856766930000489e+00,-8.328913780940000455e-01,-7.543464245239999144e+00,-3.167012929920000053e-01,-7.658538818359998945e-01,6.563386321069999418e-01,0.000000000000000000e+00
1.455088852000000044e+00,2.552442549349999812e+00,-1.320987468120000008e+00,-1.385856626069999997e+01,-5.501016974449999264e-01,-6.313189268109999919e-01,5.520711541180000070e-01,0.000000000000000000e+00
1.460301045000000020e+00,-6.456427133429999410e-01,-3.421538628770000479e+00,-1.012482163119999967e+01,-7.010587453839999261e-01,-1.234970331189999992e+00,4.170324206350000118e-01,0.000000000000000000e+00
1.465160039999999997e+00,3.465525362270000187e+00,-5.600558492109999342e+00,-8.516300392859999846e+00,-9.152440428730000965e-01,-1.022138834000000163e+00,4.933938086029999726e-01,0.000000000000000000e+00
1.470299910000000043e+00,5.510370856180000665e+00,-2.482194708650000248e+00,-1.044210829620000069e+01,-1.011574745179999901e+00,-1.128421425820000046e+00,6.021545529370000427e-01,0.000000000000000000e+00
1.475161804999999937e+00,6.284578282380000047e+00,-1.504054755530000120e+00,-1.138741813900000110e+01,-1.111603736880000026e+00,-1.107533931729999921e+00,6.184293031690000220e-01,0.000000000000000000e+00
1.480153945000000082e+00,5.415398908589999394e+00,-1.642586881780000008e+00,-1.311930973640000175e+01,-1.088097691540000023e+00,-8.615350723270001065e-01,7.117016315459999687e-01,0.000000000000000000e+00
1.485138724000000021e+00,7.878874011460000659e+00,-8.110784094110000675e-01,-1.243251288259999932e+01,-1.040431618690000004e+00,-7.761331200600000146e-01,5.524349212650000451e-01,0.000000000000000000e+00
1.490311249999999976e+00,7.222920624239999476e+00,2.245502031370000262e-01,-1.142595566720000022e+01,-9.189363718029999184e-01,-7.858169078829999599e-01,3.305415213110000083e-01,0.000000000000000000e+00
1.495151106000000008e+00,4.804928630919999222e+00,-6.198136408850000167e-01,-9.072273648930000434e+00,-9.220982789989999873e-01,-8.990985751150000205e-01,1.578752547499999992e-01,0.000000000000000000e+00
1.500112295000000096e+00,3.865883109219999891e+00,-1.510199103510000196e+00,-8.542159641259999603e+00,-9.138588309289998879e-01,-1.216392278670000104e+00,3.135636448859999842e-02,0.000000000000000000e+00
1.505098920000000007e+00,2.415669833990000015e+00,-1.336679250510000028e+00,-7.912440180980000903e+00,-8.549944162369998990e-01,-1.627315640449999767e+00,-7.580274343489998290e-02,0.000000000000000000e+00
1.510138713999999993e+00,5.484049397100000389e-01,1.985268684829999963e-01,-9.164230048100000303e+00,-7.807958126070000393e-01,-2.095929145809999561e+00,-1.994431763889999987e-01,0.000000000000000000e+00
1.515096631000000027e+00,-2.014980955389999995e+00,2.217585448579999952e+00,-1.015103276169999980e+01,-7.326557040209999982e-01,-2.523589134220000307e+00,-2.970534861090000089e-01,0.000000000000000000e+00
1.520239010999999918e+00,-4.102422166840000273e+00,4.033623940420000054e+00,-1.130672489210000009e+01,-6.337441802019999626e-01,-2.745661020280000031e+00,-3.711502850060000025e-01,0.000000000000000000e+00
1.525307406000000032e+00,-6.128773388159999946e+00,4.266710227239999931e+00,-1.236087738690000037e+01,-4.642704725269999888e-01,-2.686509847640000004e+00,-3.698431253430000121e-01,0.000000000000000000e+00
1.530301399999999923e+00,-6.350660235569999479e+00,3.979937942940000362e+00,-1.256607847249999921e+01,-2.885474562640000240e-01,-2.496231317519999937e+00,-3.310211598869999827e-01,0.000000000000000000e+00
1.535151402999999970e+00,-5.731652723439999875e+00,3.542153259400000032e+00,-1.225046704720000079e+01,-1.197699084879999959e-01,-2.074752569199999730e+00,-2.224370688200000001e-01,0.000000000000000000e+00
1.540149492999999925e+00,-5.749160907600000314e+00,2.691041164960000120e+00,-1.153687571000000034e+01,-3.866269066930000387e-02,-1.557063221929999797e+00,9.062370285389999974e-03,0.000000000000000000e+00
1.545148927000000061e+00,-4.188919423819999821e+00,1.872536185749999804e+00,-1.135799096900000116e+01,-1.477269269529999859e-02,-1.274075031279999992e+00,1.910132765769999852e-01,0.000000000000000000e+00
1.550137102000000100e+00,-3.170943573270000204e+00,1.151181448009999997e+00,-1.092026824470000079e+01,-5.375123117119999343e-03,-1.170888423920000143e+00,2.996132075790000071e-01,0.000000000000000000e+00
1.555146450000000069e+00,-2.395178396229999951e+00,3.739923756560000201e-01,-1.061647000680000019e+01,-1.834478043019999866e-02,-1.234794259070000066e+00,2.850911021229999842e-01,0.000000000000000000e+00
1.560305537000000076e+00,-1.866412734429999887e+00,-9.651602061630000229e-01,-1.057273607910000024e+01,-1.976468786600000041e-02,-1.395918607709999870e+00,1.993581503630000029e-01,0.000000000000000000e+00
1.565132143000000031e+00,-1.809948796669999860e+00,-1.793238192629999839e+00,-1.073046697290000040e+01,-2.503394149240000324e-02,-1.545711517329999785e+00,9.148395061489998648e-02,0.000000000000000000e+00
1.570299469000000059e+00,-2.176441975679999974e+00,-2.391213291999999768e+00,-1.058215155769999960e+01,-6.868523359299999465e-02,-1.607290983199999967e+00,-3.060948662459999844e-02,0.000000000000000000e+00
1.575132580000000004e+00,-2.680104175879999939e+00,-2.752263110899999532e+00,-1.055757942650000025e+01,-1.687094122170000043e-01,-1.599014997479999867e+00,-1.122487708929999911e-01,0.000000000000000000e+00
1.580140601999999950e+00,-3.618305647969999761e+00,-3.253409382770000136e+00,-1.136875435500000009e+01,-3.038204908370000235e-01,-1.488786339760000077e+00,-1.540607064959999828e-01,0.000000000000000000e+00
1.585146155999999973e+00,-4.133959168619999680e+00,-3.738977269489999866e+00,-1.196186287130000103e+01,-4.942604601380000129e-01,-1.370895028109999858e+00,-1.189738288519999881e-01,0.000000000000000000e+00
1.590111032999999896e+00,-4.801547464049999547e+00,-4.132161471540000797e+00,-1.267225453569999871e+01,-7.422781586650000207e-01,-1.261618494990000006e+00,-1.759968884290000202e-02,0.000000000000000000e+00
1.595143291000000074e+00,-5.316531707130000228e+00,-2.798514282209999759e+00,-1.177222877270000012e+01,-9.103675484659999873e-01,-1.150077342989999973e+00,6.438950449230000650e-02,0.000000000000000000e+00
1.600152543000000094e+00,-5.460312401549999528e+00,-2.252250519250000027e-01,-1.071397293419999919e+01,-1.020787715910000060e+00,-1.073444247249999872e+00,1.020831838250000068e-01,0.000000000000000000e+00
1.605294390000000071e+00,-5.177896558899999668e+00,9.620620940170000468e-01,-1.087785182930000083e+01,-9.935030937190000300e-01,-9.354801177979999993e-01,1.019377782939999977e-01,0.000000000000000000e+00
1.610154134000000070e+00,-4.682697797260000350e+00,1.898604692979999786e+00,-9.381953930610000825e+00,-8.643738031389999188e-01,-7.716369032860000976e-01,1.053285598750000052e-01,0.000000000000000000e+00
1.615147104999999916e+00,-3.923883755030000309e+00,3.306750512329999836e+00,-9.783545018739999932e+00,-6.824243664740000659e-01,-5.561897158619999448e-01,9.662083536389999561e-02,0.000000000000000000e+00
1.620150618000000042e+00,-3.210921363389999783e+00,3.761501528249999726e+00,-1.011318613839999969e+01,-5.742474198340000724e-01,-4.660355150700000171e-01,1.103952005509999945e-01,0.000000000000000000e+00
1.625117503000000019e+00,-3.342888870419999936e+00,3.141080934440000139e+00,-1.000045875390000027e+01,-4.972023963930000123e-01,-4.341833591459999808e-01,9.214263409379999659e-02,0.000000000000000000e+00
1.630303099999999894e+00,-3.602560966350000005e+00,2.103798033620000396e+00,-1.038428037659999958e+01,-4.161673486230000329e-01,-4.327150583269999684e-01,8.110594004389999612e-02,0.000000000000000000e+00
1.635133774999999901e+00,-3.961690923109999929e+00,1.937243343459999823e+00,-1.055275828989999987e+01,-3.552114367490000202e-01,-4.715259969230000126e-01,4.973280802369999670e-02,0.000000000000000000e+00
1.640219265999999898e+00,-4.049143581120000057e+00,1.453628198240000113e+00,-9.690182259910001150e+00,-2.833737730979999925e-01,-3.881942629810000156e-01,3.879840672019999742e-02,0.000000000000000000e+00
1.645172308000000028e+00,-3.533148991950000095e+00,1.553095849820000041e+00,-9.817116448960000241e+00,-2.258091121909999721e-01,-3.373089432720000058e-01,1.029696874319999990e-02,0.000000000000000000e+00
1.650047547000000003e+00,-3.182216077910000163e+00,1.898530750959999791e+00,-9.763484227490000222e+00,-2.066309005020000034e-01,-2.058784961699999805e-01,-3.184776008129999725e-02,0.000000000000000000e+00
1.655101865000000005e+00,-2.914851381650000128e+00,1.901147655459999752e+00,-9.709456869229999398e+00,-1.823787987230000018e-01,-1.275934278960000057e-01,-8.516869507729998498e-03,0.000000000000000000e+00
1.660320041000000080e+00,-2.530951725290000009e+00,1.814577187120000046e+00,-9.679171621080000065e+00,-1.653059571979999809e-01,-1.151245832440000033e-01,-1.142376102510000123e-02,0.000000000000000000e+00
1.665155684999999997e+00,-2.578045777159999830e+00,1.526709654930000104e+00,-9.547956978239998449e+00,-1.230192258950000006e-01,-1.191763803360000040e-01,4.430339671670000153e-03,0.000000000000000000e+00
1.670294423000000084e+00,-2.552738025159999591e+00,1.263812605610000084e+00,-9.539690085149999277e+00,-8.849867433310000531e-02,-1.488250792030000047e-01,2.112472802399999877e-02,0.000000000000000000e+00
1.675140373000000071e+00,-2.590814657840000201e+00,9.323948316369999878e-01,-9.526281737519999737e+00,-7.316491007799999502e-02,-1.772216260429999857e-01,1.064410433170000052e-02,0.000000000000000000e+00
1.680138920999999952e+00,-2.624110778239999942e+00,9.027364832149999962e-01,-9.551114565489999819e+00,-4.085818678139999799e-02,-1.727865934369999801e-01,-2.465745434170000389e-02,1.000000000000000000e+00
1.685139726000000060e+00,-2.750214653940000087e+00,8.584714442259999689e-01,-9.609586043680000245e+00,-4.565032944080000404e-02,-1.647340953349999970e-01,-3.150261566039999628e-02,1.000000000000000000e+00
1.690148862000000030e+00,-2.763606634959999919e+00,6.932431072990000720e-01,-9.598740824540000105e+00,-5.238783732060000448e-02,-1.480570733550000129e-01,-3.349793702360000236e-02,1.000000000000000000e+00
1.695189440999999908e+00,-2.737301980879999874e+00,7.051844511139999661e-01,-9.587322773939998655e+00,-6.403054296969999670e-02,-1.160169616339999932e-01,-4.151032492520000117e-02,1.000000000000000000e+00
1.700095598000000097e+00,-2.693805953500000072e+00,6.484454227379999880e-01,-9.504003270220000132e+00,-3.540069982409999733e-02,-8.433509618039998490e-02,-1.964351348579999879e-02,1.000000000000000000e+00
1.705163213999999927e+00,-2.597480253209999645e+00,6.922517581739999759e-01,-9.493592935369999708e+00,-4.452344402669999868e-02,-5.987380445000000523e-02,-5.051132291559999946e-03,1.000000000000000000e+00
1.710152233999999938e+00,-2.471118018839999930e+00,7.038274104809999487e-01,-9.506129176330000874e+00,-2.672841213640000241e-02,-6.825061142440000395e-02,-2.491232194009999901e-02,1.000000000000000000e+00
1.715145555999999960e+00,-2.500373339419999841e+00,7.872127459810001060e-01,-9.474555641939998551e+00,-3.153771534560000089e-02,-9.268678724770000599e-02,-8.363397791980000523e-03,1.000000000000000000e+00
1.720161215000000077e+00,-2.480136022549999986e+00,7.884615769980000133e-01,-9.478568384709999961e+00,-4.855385422709999899e-02,-8.481413871050000330e-02,-1.554917357860000071e-02,1.000000000000000000e+00
1.725281515999999904e+00,-2.590168176629999763e+00,8.356746521369999847e-01,-9.568587678330001012e+00,-3.167443722490000113e-02,-7.624500989910000526e-02,-2.556005120279999931e-02,1.000000000000000000e+00
1.730127838000000029e+00,-2.728679113959999736e+00,9.089536041639999508e-01,-9.531272969939999840e+00,-3.382924944159999836e-02,-9.809303283690000430e-02,-2.161624655129999739e-02,1.000000000000000000e+00
1.735068123000000018e+00,-2.702606807329999583e+00,9.173831404660000022e-01,-9.513829667710000493e+00,-2.847861871120000235e-02,-5.558080971240000195e-02,-2.420043386520000228e-02,1.000000000000000000e+00
1.740101891999999983e+00,-2.616170048370000334e+00,8.465561847010000252e-01,-9.537231586080000767e+00,-1.641776785250000092e-02,-5.411196872589999624e-02,-7.422796916220000644e-03,1.000000000000000000e+00
1.745110525999999940e+00,-2.506500882390000129e+00,8.137710825609999477e-01,-9.450593167070000078e+00,-1.610966958110000152e-02,-3.575658053159999628e-02,-1.377470232550000000e-02,1.000000000000000000e+00
1.750099942000000075e+00,-2.547786832499999932e+00,7.136136951540000828e-01,-9.498563709520000842e+00,-7.280926802200000719e-04,-3.452127426860000098e-02,-2.376170456409999743e-02,1.000000000000000000e+00
1.755098636999999906e+00,-2.562912213179999732e+00,6.987330830169999896e-01,-9.555457563130000054e+00,-1.141211483629999898e-02,-5.105143412950000070e-02,-9.761426597830000912e-03,1.000000000000000000e+00
1.760307245999999992e+00,-2.609495100649999788e+00,6.932796399169999235e-01,-9.540517768149999966e+00,-1.491351798180000007e-02,-5.412241816519999804e-02,-2.388322539630000074e-02,1.000000000000000000e+00
1.765148101999999941e+00,-2.608162683010000205e+00,6.767712804469999677e-01,-9.517022326270000221e+00,-2.817987278100000242e-02,-4.472667723890000335e-02,-3.024695068599999800e-02,1.000000000000000000e+00
1.770237669999999985e+00,-2.604876793199999874e+00,7.007433268610000487e-01,-9.482363100820000668e+00,-2.228543907399999774e-02,-4.262991249559999751e-02,-2.157307416199999786e-02,1.000000000000000000e+00
1.775159882000000078e+00,-2.620948514819999797e+00,6.742458536229999355e-01,-9.527035186239999121e+00,-1.415596343579999909e-02,-3.594347462059999804e-02,-1.292256452139999880e-02,1.000000000000000000e+00
1.780147995000000094e+00,-2.535914023869999756e+00,7.719236261080000272e-01,-9.488729128719999295e+00,-1.344694849099999957e-02,-2.647224068640000039e-02,-2.053995802999999953e-02,1.000000000000000000e+00
1.785140484000000027e+00,-2.546036189440000097e+00,7.659403139149999484e-01,-9.488962352959999791e+00,-2.322612516579999897e-02,-3.209226578470000119e-02,-1.816290058199999946e-02,1.000000000000000000e+00
1.790148969000000090e+00,-2.535193892909999747e+00,7.340922734289999640e-01,-9.457737778130001161e+00,-2.208779938519999861e-02,-1.847285963590000052e-02,-2.092591114340000211e-02,1.000000000000000000e+00
1.795140779000000020e+00,-2.599698513779999942e+00,6.615357904580000392e-01,-9.478414070930000435e+00,-2.170155942440000346e-02,-4.094253852959999634e-02,-1.643127761779999974e-02,1.000000000000000000e+00
1.800165672999999966e+00,-2.554861008670000100e+00,6.791749075229999155e-01,-9.487877480330000779e+00,-2.380624413490000160e-02,-3.095545992259999754e-02,-1.758812740449999801e-02,1.000000000000000000e+00
1.805183889999999902e+00,-2.557934132499999791e+00,6.529435378750000352e-01,-9.490411382719999622e+00,-3.900485858319999860e-02,-4.357920214530000558e-02,-1.128911972050000018e-02,1.000000000000000000e+00
1.810134024999999980e+00,-2.550535838950000134e+00,7.163637975800000168e-01,-9.455640513589999685e+00,-3.340697288510000029e-02,-3.842998296019999732e-02,-1.978495344519999935e-02,1.000000000000000000e+00
1.815119321000000063e+00,-2.628072083090000177e+00,6.590609247770000678e-01,-9.499187394369998927e+00,-2.232530526820000402e-02,-2.004858292640000067e-02,-1.275852508840000059e-02,1.000000000000000000e+00
1.820110727999999956e+00,-2.595754744590000218e+00,6.627468467479999958e-01,-9.486058448210000549e+00,-2.555652707820000105e-02,-1.161184068769999939e-02,-2.277094870809999796e-02,1.000000000000000000e+00
1.825100887000000061e+00,-2.605226045029999771e+00,6.651380527340000626e-01,-9.469266303360001302e+00,-2.877798490230000159e-02,-1.739485934380000098e-02,-9.000118821860001589e-03,1.000000000000000000e+00
1.830106632999999983e+00,-2.482791213240000072e+00,7.207929391339999992e-01,-9.462630226349999063e+00,-1.398804504420000060e-02,-3.671963466330000099e-03,-1.387582905589999915e-02,1.000000000000000000e+00
1.835271454999999996e+00,-2.486422555470000351e+00,7.685376369320000567e-01,-9.432714980549999240e+00,-3.609085828070000140e-02,-2.158891968430000016e-02,-3.649582853540000137e-03,1.000000000000000000e+00
1.840328415999999967e+00,-2.443224341999999716e+00,7.779375526350000847e-01,-9.442574695790000305e+00,-3.419534489509999664e-02,-1.688177324829999784e-02,-1.111620105799999980e-02,1.000000000000000000e+00
1.845312062999999947e+00,-2.491097561550000172e+00,6.530670911899999487e-01,-9.451584516200000508e+00,-2.161419019100000241e-02,-1.591536030170000171e-02,-8.636661805209999709e-03,1.000000000000000000e+00
1.850165913999999967e+00,-2.449722764109999673e+00,5.688293766449999955e-01,-9.424868943230000795e+00,-3.410715237260000116e-02,-1.524992287160000133e-02,-2.485475502909999940e-02,1.000000000000000000e+00
1.855264183999999927e+00,-2.404199176430000140e+00,4.912986854579999840e-01,-9.408156877879999769e+00,-2.857435122130000046e-02,-8.370888419450000714e-03,-1.304808817800000124e-02,1.000000000000000000e+00
1.860316228999999932e+00,-2.371811695299999911e+00,5.552548421369999376e-01,-9.429625197849999196e+00,-2.182563580570000272e-02,-2.122877910730000192e-02,-5.055418238039999929e-03,1.000000000000000000e+00
1.865164005000000014e+00,-2.355257743130000136e+00,6.540257801540000360e-01,-9.436632446260000862e+00,-4.743650928140000222e-02,-4.005947709080000252e-02,-2.054753527049999959e-02,1.000000000000000000e+00
1.870156586000000010e+00,-2.541684423970000051e+00,6.561656417269999819e-01,-9.374809904070000144e+00,-6.998824328180000554e-02,-3.885898739100000082e-02,-5.601509474219999789e-05,1.000000000000000000e+00
1.875344577999999984e+00,-2.578740189169999919e+00,6.571314910840000412e-01,-9.437805581689998391e+00,-6.451223790650000012e-02,-5.004565045239999649e-02,-6.498310714960000255e-03,1.000000000000000000e+00
1.880128637999999963e+00,-2.603778184309999855e+00,7.524754868600000979e-01,-9.418084397659999496e+00,-7.409474253650000231e-02,-5.543716251849999804e-02,-2.405647886920000023e-03,1.000000000000000000e+00
1.885304553999999966e+00,-2.632736860030000070e+00,9.530659368089999806e-01,-9.477305817430000445e+00,-5.794649198649999555e-02,-3.680786862969999407e-02,4.580709151919999667e-03,1.000000000000000000e+00
1.890301385999999972e+00,-2.681030350819999963e+00,1.032573919420000097e+00,-9.534975331589999215e+00,-6.410247087480000494e-02,-3.903768584130000441e-02,-8.377943187949999856e-03,1.000000000000000000e+00
1.895147842999999943e+00,-2.695206175690000094e+00,9.606696898109999827e-01,-9.460430670479999193e+00,-4.893703386190000060e-02,-4.481915011999999809e-02,-1.520384661849999951e-02,1.000000000000000000e+00
1.900160075999999920e+00,-2.669110195920000095e+00,8.456231416339999862e-01,-9.402529101129999844e+00,-5.403002724050000316e-02,-3.297272697090000704e-02,-1.119513437149999811e-02,1.000000000000000000e+00
1.905258724000000070e+00,-2.645520353759999832e+00,8.047104818139999560e-01,-9.453752507889999990e+00,-3.847701847550000220e-02,-1.654319465160000030e-02,-1.536108739669999994e-02,1.000000000000000000e+00
1.910294901999999961e+00,-2.625989723859999625e+00,8.322115060709999179e-01,-9.421646474050000108e+00,-1.959748752419999962e-02,-4.047815129159999803e-02,-1.029535755520000206e-02,1.000000000000000000e+00
1.915170779999999962e+00,-2.563565416390000351e+00,8.994100422059999600e-01,-9.485734038560000414e+00,-3.651802614330000585e-02,-3.791441395879999871e-02,-3.048911318180000038e-02,1.000000000000000000e+00
1.920307916000000059e+00,-2.660161165790000393e+00,8.245219014169999916e-01,-9.487090713860000690e+00,-3.971865028140000170e-02,-4.810470715169999634e-02,-9.978277608750000735e-03,1.000000000000000000e+00
1.925274262000000070e+00,-2.586193427780000054e+00,7.351509156359999908e-01,-9.494400160099999653e+00,-2.443351596590000174e-02,-2.709629200399999924e-02,-1.329822465779999935e-02,1.000000000000000000e+00
1.930123891000000036e+00,-2.590638424489999814e+00,6.947197557230000431e-01,-9.488474861700000318e+00,-2.253070473670000171e-02,-3.433035686609999665e-02,-8.573720231649999482e-03,1.000000000000000000e+00
1.935101192000000081e+00,-2.528563368849999993e+00,6.296394538509999528e-01,-9.438642032519998892e+00,-1.438723411409999903e-02,-2.296755835409999835e-02,-2.254585362970000159e-02,1.000000000000000000e+00
1.940263316000000016e+00,-2.665362241560000012e+00,6.188842510809999808e-01,-9.480182249649999449e+00,-1.050279475749999955e-02,-2.023594640200000044e-02,-1.084299199279999820e-02,1.000000000000000000e+00
1.945115955999999979e+00,-2.636518716659999928e+00,6.428872771549999365e-01,-9.446400976079999623e+00,-1.878243871030000137e-02,-2.362433448429999971e-02,-2.618879545479999883e-03,1.000000000000000000e+00
1.950262641999999991e+00,-2.630216986159999770e+00,6.248789614509999701e-01,-9.468718021829999998e+00,-2.054814808070000096e-02,-2.912158146499999739e-02,-1.445666071959999990e-03,1.000000000000000000e+00
1.955154126000000048e+00,-2.549346336899999788e+00,7.489900558969999622e-01,-9.404057041350000645e+00,-3.859123215080000752e-02,-1.956232450900000086e-02,-1.965107396250000138e-02,1.000000000000000000e+00
1.960312261999999972e+00,-2.623706289099999811e+00,7.845411886839999127e-01,-9.423136420349999653e+00,-2.613699622450000107e-02,-2.767306007440000284e-02,-4.557902459060000043e-03,1.000000000000000000e+00
1.965158501999999974e+00,-2.489446871729999788e+00,7.367597390729999640e-01,-9.413216499360000711e+00,-1.839650422330000104e-02,-1.464428938929999979e-02,-1.681786775589999908e-02,1.000000000000000000e+00
1.970148723000000102e+00,-2.482025781819999999e+00,6.007931159320000214e-01,-9.436268873639999555e+00,-2.922759391369999724e-02,-1.987374760209999897e-02,-8.999871090050000008e-03,1.000000000000000000e+00
1.975278936000000041e+00,-2.438135786690000195e+00,5.771097502669999546e-01,-9.406330246980001419e+00,-1.862574554979999977e-02,-3.590300306680000580e-02,-1.746254973109999950e-03,1.000000000000000000e+00
1.980296384000000076e+00,-2.505953185379999670e+00,6.000692221040000440e-01,-9.394832701409999487e+00,-3.457763791080000620e-02,-2.586340904240000058e-02,3.075485583389999701e-03,1.000000000000000000e+00
1.985154365000000087e+00,-2.450890054320000289e+00,5.232482866219999584e-01,-9.320349999610000324e+00,-3.642914071680000698e-02,-4.162012413140000339e-02,1.265325117859999841e-03,1.000000000000000000e+00
1.990168079000000034e+00,-2.332698705309999898e+00,4.665361827860000088e-01,-9.372913715060001039e+00,-4.612000659109999345e-02,-2.918576635420000107e-02,-1.071790419520000058e-02,1.000000000000000000e+00
1.995148351000000098e+00,-2.393418400820000347e+00,5.529449577599999666e-01,-9.424625782119999684e+00,-5.375216528770000030e-02,-1.771401986479999996e-02,4.620602820069999450e-03,1.000000000000000000e+00
2.000161947000000051e+00,-2.485447280699999872e+00,6.951368120909999782e-01,-9.400613622889999021e+00,-4.989668354389999866e-02,-3.644935414199999835e-02,4.649171605710000071e-03,1.000000000000000000e+00
2.005260940999999963e+00,-2.628698690559999829e+00,6.874101633620000040e-01,-9.384853159180000404e+00,-6.446731090549999432e-02,-4.348393902180000548e-02,1.179802790279999881e-02,1.000000000000000000e+00
2.010261625000000052e+00,-2.705634922979999857e+00,7.460894390839999391e-01,-9.383353276010000243e+00,-5.501076951619999350e-02,-5.924937874080000305e-02,3.763663582500000049e-03,1.000000000000000000e+00
2.015153937000000006e+00,-2.779346932659999769e+00,8.129711643549999422e-01,-9.372821945130000998e+00,-5.892103165389999536e-02,-5.172066763040000792e-02,7.640554104000000374e-03,1.000000000000000000e+00
2.020295359999999985e+00,-2.722839448019999775e+00,8.683830357790001120e-01,-9.403692884210000713e+00,-4.918564856049999906e-02,-4.168967902659999336e-02,1.483318954709999908e-02,1.000000000000000000e+00
2.025171657000000014e+00,-2.635859668229999730e+00,7.934295016040000537e-01,-9.393288979099999381e+00,-3.394518420100000461e-02,-2.506971172990000302e-02,-7.074699271469999523e-03,1.000000000000000000e+00
2.030299811999999982e+00,-2.688041983149999758e+00,7.775074175900000828e-01,-9.434563238770000027e+00,-3.343727812170000507e-02,-1.797229051590000168e-02,1.207308471200000018e-02,1.000000000000000000e+00
2.035154442000000063e+00,-2.623308229690000104e+00,7.654411322210000757e-01,-9.452503384610000836e+00,-4.073964059349999972e-02,-1.405767817050000007e-02,5.296787712719999404e-04,1.000000000000000000e+00
2.040306186000000022e+00,-2.650721137270000138e+00,7.828934214769999178e-01,-9.489017298010001156e+00,-2.505456097419999847e-02,-1.261945720759999855e-02,1.342561095949999957e-02,1.000000000000000000e+00
2.045292812000000016e+00,-2.610159409780000050e+00,8.865625433310000414e-01,-9.464902262929999921e+00,-3.473231196399999970e-02,-3.441032022240000238e-02,8.976317942140000714e-03,1.000000000000000000e+00
2.050292291999999961e+00,-2.644179168279999992e+00,9.660144118389999424e-01,-9.497370700339999416e+00,-3.585504367950000104e-02,-1.393143087629999943e-02,1.637316681440000032e-02,1.000000000000000000e+00
2.055339416999999891e+00,-2.636068342540000220e+00,1.007867494320000112e+00,-9.480361697870000270e+00,-2.429120801390000084e-02,-2.715154737230000143e-02,9.024489670989999796e-03,1.000000000000000000e+00
2.060138659000000150e+00,-2.660817291609999913e+00,9.608404432679999996e-01,-9.417902611349999731e+00,-1.121893431989999870e-02,-2.162612043320000232e-02,1.277273893360000162e-02,1.000000000000000000e+00
2.065165889999999838e+00,-2.538748955039999977e+00,9.163998285169999702e-01,-9.443165062900000351e+00,-9.501761524009999732e-04,-3.007799945770000052e-02,-1.561522483829999759e-02,1.000000000000000000e+00
2.070152122000000094e+00,-2.523898007390000142e+00,7.777714022880000133e-01,-9.489525832060001775e+00,1.616672240199999722e-02,-2.919298782940000364e-02,-1.618119888010000063e-02,1.000000000000000000e+00
2.075139662000000218e+00,-2.458134910880000135e+00,7.170614975210000130e-01,-9.482595156010001247e+00,2.506210841239999917e-02,-3.007393889130000053e-02,-1.782538369299999786e-02,1.000000000000000000e+00
2.080281081999999948e+00,-2.430565497569999955e+00,7.233427697470000695e-01,-9.439980003119998742e+00,2.076415717600000113e-02,-2.750612050290000138e-02,-2.853137627240000251e-02,1.000000000000000000e+00
2.085305464000000164e+00,-2.502492523529999957e+00,6.520999997230000345e-01,-9.428939553670000251e+00,2.772209793329999741e-02,-4.300186410549999838e-02,-6.797129753979999807e-03,1.000000000000000000e+00
2.090289407000000210e+00,-2.407573329040000321e+00,5.997893822490000248e-01,-9.418360876510000423e+00,7.602775935080000394e-03,-4.036778584119999486e-02,-2.410770393909999684e-02,1.000000000000000000e+00
2.095126057999999958e+00,-2.467706456829999784e+00,5.471313395779999755e-01,-9.444968312929999499e+00,1.556614879520000147e-02,-5.488267913459999453e-02,2.192829269919999852e-03,1.000000000000000000e+00
2.100164890999999923e+00,-2.405877338769999874e+00,6.040800651809999922e-01,-9.469861931169999636e+00,1.383231393990000044e-02,-5.030854791400000275e-02,-1.296908408400000018e-02,1.000000000000000000e+00
2.105096928000000034e+00,-2.435745676679999860e+00,6.596858517420000068e-01,-9.500390340419999191e+00,9.331730194389998775e-03,-6.687164306640000500e-02,-7.598547730590000590e-03,1.000000000000000000e+00
2.110290650000000046e+00,-2.543628251509999938e+00,7.327209120110000917e-01,-9.492791555850001117e+00,8.714742725720000301e-04,-8.053520321849999553e-02,-5.773235112430000031e-03,1.000000000000000000e+00
2.115166308000000051e+00,-2.633323135490000411e+00,8.011913677770000630e-01,-9.447993798230001516e+00,6.155633600430000405e-04,-8.452421426770000135e-02,1.540926285089999972e-03,1.000000000000000000e+00
2.120253035000000175e+00,-2.617417125820000301e+00,8.425099780500000524e-01,-9.360252970930000416e+00,1.372954063120000040e-02,-8.056022971869999938e-02,-1.587949320669999886e-02,1.000000000000000000e+00
2.125190465999999834e+00,-2.627024327600000042e+00,7.897532242439999628e-01,-9.398754258760000369e+00,2.265577018259999978e-02,-8.508944511409999301e-02,-1.607967540620000232e-02,1.000000000000000000e+00
2.130129837000000137e+00,-2.604389886470000359e+00,7.953914493269998998e-01,-9.411174764400000115e+00,9.548305533829999289e-03,-7.824022322889999381e-02,8.800963405519999280e-04,1.000000000000000000e+00
2.135102378000000023e+00,-2.515299398129999808e+00,8.431104281610000140e-01,-9.519771917239999937e+00,2.646940760309999738e-02,-9.145805239679999366e-02,-1.209018565709999923e-02,1.000000000000000000e+00
2.140157885999999898e+00,-2.475627312959999937e+00,9.770385677439999972e-01,-9.548858895510001332e+00,2.629594318570000269e-02,-1.015232801439999999e-01,-1.249616406859999952e-02,1.000000000000000000e+00
2.145296190999999908e+00,-2.550222242949999885e+00,8.860843313600000881e-01,-9.503296583260000929e+00,8.528737351300001018e-03,-8.393357694150001269e-02,-9.112291038040001498e-03,1.000000000000000000e+00
2.150282580999999915e+00,-2.615548409340000102e+00,8.039116595859999714e-01,-9.416440722100000826e+00,1.905911974610000059e-02,-1.267940551039999919e-01,-2.052146941420000120e-02,1.000000000000000000e+00
2.155273059999999852e+00,-2.709120719269999977e+00,7.893756231029999126e-01,-9.339082757130000800e+00,2.337840571999999853e-02,-1.260903775689999895e-01,-2.083827555179999791e-02,1.000000000000000000e+00
2.160303593000000077e+00,-2.778859441409999853e+00,6.976717373960000801e-01,-9.372768169109999548e+00,4.196488857269999734e-02,-1.273057907819999945e-01,-1.081366091970000116e-02,1.000000000000000000e+00
2.165166861999999970e+00,-2.708144567709999784e+00,7.586831093279999827e-01,-9.454241752710000668e+00,3.363388031720000032e-02,-9.001454710960000993e-02,-1.757235452529999978e-02,1.000000000000000000e+00
2.170130786000000089e+00,-2.636075941329999672e+00,7.431541893499999940e-01,-9.440151852559999668e+00,4.166392982009999718e-02,-1.093609556560000001e-01,-3.432679921390000000e-02,1.000000000000000000e+00
2.175286444000000152e+00,-2.609362998709999992e+00,5.920881236899999678e-01,-9.406844041719999439e+00,4.256279394029999913e-02,-1.004045382139999998e-01,-2.320473268629999822e-02,1.000000000000000000e+00
2.180293344999999938e+00,-2.535608318930000049e+00,4.375567565390000024e-01,-9.511043836380000727e+00,4.121037945150000242e-02,-1.060210242869999986e-01,-2.303899265829999904e-02,1.000000000000000000e+00
2.185158750999999899e+00,-2.497405721779999865e+00,5.853635646750000587e-01,-9.591147885189998945e+00,3.376545757059999653e-02,-1.221834421160000045e-01,-1.621840149160000064e-02,1.000000000000000000e+00
2.190143160999999949e+00,-2.413402181319999951e+00,8.453450553450000404e-01,-9.622429743160001436e+00,3.372681140900000291e-02,-1.196850538249999985e-01,-1.780243031680000046e-02,1.000000000000000000e+00
2.195139143000000015e+00,-2.418426293090000012e+00,9.105938456519999669e-01,-9.640894205129999506e+00,4.313784465190000084e-02,-1.578578948970000007e-01,-1.505639590320000110e-02,1.000000000000000000e+00
2.200221557999999966e+00,-2.516315297170000242e+00,8.690772285889999393e-01,-9.535967265240000046e+00,3.855674341319999948e-02,-1.763973832129999975e-01,-1.868722587820000058e-02,1.000000000000000000e+00
2.205117511000000086e+00,-2.576615744359999738e+00,7.878141459399999880e-01,-9.473535066719998454e+00,6.281350553040000728e-02,-2.067067027089999898e-01,-2.994778007269999903e-02,0.000000000000000000e+00
2.210272741999999901e+00,-2.670177240629999726e+00,7.528584217629999964e-01,-9.532526184869999142e+00,5.925464630130000687e-02,-2.097200304269999926e-01,-5.813629832120000788e-04,0.000000000000000000e+00
2.215273236999999895e+00,-2.595022046400000004e+00,7.737767796940000498e-01,-9.575414309480001052e+00,6.722003966569999045e-02,-2.063313126559999933e-01,7.645860780029999776e-03,0.000000000000000000e+00
2.220149947999999984e+00,-2.495994685939999957e+00,7.105681899789999534e-01,-9.571799041600000280e+00,5.997211486100000044e-02,-2.255072295670000060e-01,-6.417997181420000488e-03,0.000000000000000000e+00
2.225116557999999856e+00,-2.610020001309999671e+00,6.390059787420000470e-01,-9.627395841130001131e+00,6.316383182999998902e-02,-2.390270680190000052e-01,-3.252314869310000359e-03,0.000000000000000000e+00
2.230155626000000169e+00,-2.720863764030000187e+00,6.228761702610000617e-01,-9.616623102710001092e+00,6.713768094779999640e-02,-2.499408274890000115e-01,-4.675780888649999113e-03,0.000000000000000000e+00
2.235135778000000073e+00,-2.589223296999999757e+00,7.055323877680000910e-01,-9.626254269880000436e+00,7.681832462550000629e-02,-2.582955062389999945e-01,1.270317006859999955e-03,0.000000000000000000e+00
2.240142445000000038e+00,-2.708008374110000283e+00,8.717119610060000134e-01,-9.588640870800000826e+00,9.565021842720000667e-02,-3.081381320950000169e-01,-5.743079818790000103e-03,0.000000000000000000e+00
2.245152120999999834e+00,-2.781094068590000301e+00,9.425825367169999858e-01,-9.535935116530000144e+00,9.035987406970000246e-02,-3.036577999589999965e-01,-9.001037105920000128e-03,0.000000000000000000e+00
2.250151232999999973e+00,-2.738926659470000136e+00,9.830126006530000016e-01,-9.542983281479999746e+00,8.770272135730000640e-02,-3.347747325900000126e-01,-4.066058248280000204e-02,0.000000000000000000e+00
2.255126445000000146e+00,-2.757078986750000293e+00,8.156440368260000628e-01,-9.616246086089999423e+00,9.935937821869998687e-02,-3.338299691680000070e-01,-3.345812112089999873e-02,0.000000000000000000e+00
2.260282013999999950e+00,-2.813356462030000227e+00,7.878121731789999860e-01,-9.556009936309999730e+00,1.240192502740000008e-01,-3.320050835610000028e-01,-2.520580962299999797e-02,0.000000000000000000e+00
2.265153999999999890e+00,-2.728232246980000220e+00,7.008562857160000048e-01,-9.554143557919999807e+00,1.143601387740000030e-01,-3.521345257760000180e-01,-4.024919122459999499e-02,0.000000000000000000e+00
2.270280116999999986e+00,-2.748617740139999821e+00,7.138206159029999442e-01,-9.545114448290000553e+00,1.027560681100000012e-01,-3.548830449580000490e-01,-1.669511757790000106e-02,0.000000000000000000e+00
2.275326714000000194e+00,-2.815056251690000177e+00,6.678797526569999476e-01,-9.543619825820000457e+00,9.978462755680000962e-02,-3.734078109260000056e-01,-2.119349315759999630e-02,0.000000000000000000e+00
2.280161992000000026e+00,-2.784589217229999747e+00,7.154400337989998970e-01,-9.525137243659999697e+00,7.874973118310001075e-02,-3.904207646850000324e-01,-1.570060849190000121e-02,0.000000000000000000e+00
2.285137613999999928e+00,-2.785951445490000289e+00,6.511351732789999458e-01,-9.541978488350000731e+00,7.386481016870000138e-02,-3.967162072659999872e-01,-1.979448087509999912e-02,0.000000000000000000e+00
2.290131365999999780e+00,-2.849845825519999654e+00,6.034602527819999951e-01,-9.579161094799999887e+00,6.675328314299999732e-02,-4.051669836039999972e-01,-2.343285642560000159e-02,0.000000000000000000e+00
2.295113866999999974e+00,-2.668051042259999672e+00,5.539033544629999861e-01,-9.594860768230001113e+00,8.751939982180001465e-02,-4.057990908620000003e-01,-2.689329348499999717e-02,0.000000000000000000e+00
2.300200293000000062e+00,-2.704549758090000200e+00,5.124437282839999774e-01,-9.709302555449999872e+00,1.036226227879999962e-01,-4.314963221549999450e-01,-7.918741554019999990e-03,0.000000000000000000e+00
2.305162011000000177e+00,-2.823712728609999889e+00,6.605115619770000057e-01,-9.688104869120000018e+00,8.680310100320000333e-02,-4.545170366759999636e-01,1.645550131800000218e-02,0.000000000000000000e+00
2.310220995999999971e+00,-2.645643980140000462e+00,7.525231984589999534e-01,-9.724650931230000239e+00,1.011678650980000066e-01,-4.771624803540000515e-01,1.425028406079999893e-02,0.000000000000000000e+00
2.315157507999999975e+00,-2.689664908170000146e+00,8.176368180779999273e-01,-9.768658415260000893e+00,1.182234436270000050e-01,-5.072934627530000240e-01,2.407346479590000143e-02,0.000000000000000000e+00
2.320263667999999946e+00,-2.738625046169999688e+00,8.847022293520000469e-01,-9.752274851210000151e+00,1.510220468039999986e-01,-5.289418697359999921e-01,1.430176943539999967e-02,0.000000000000000000e+00
2.325298351999999902e+00,-2.684858384670000042e+00,8.300980210489999900e-01,-9.838114813320000707e+00,1.603261828420000090e-01,-5.745949745180000123e-01,2.493098750709999908e-02,0.000000000000000000e+00
2.330118457999999837e+00,-2.546252754799999796e+00,6.860297418539998970e-01,-9.937543155800000250e+00,1.844545453789999956e-01,-6.044093966480000857e-01,3.197028860449999815e-02,0.000000000000000000e+00
2.335101186000000162e+00,-2.561825002460000000e+00,6.251627468279999933e-01,-1.010597430740000036e+01,1.991509199139999964e-01,-6.433128714560000239e-01,3.783038258549999838e-02,0.000000000000000000e+00
2.340153013000000115e+00,-2.616715991820000031e+00,7.219262540130000350e-01,-1.021948728929999994e+01,2.327092587950000124e-01,-7.011595368390000083e-01,4.202499985690000273e-02,0.000000000000000000e+00
2.345135437999999795e+00,-2.498965518439999922e+00,8.395298662610000129e-01,-1.033190955340000095e+01,2.206327170129999959e-01,-7.622981667520000171e-01,3.926493227480000459e-02,0.000000000000000000e+00
2.350142114000000060e+00,-2.526445061520000035e+00,9.408602429690000601e-01,-1.044467551630000024e+01,2.464269548649999919e-01,-8.320879340170000971e-01,4.912471398709999243e-02,0.000000000000000000e+00
2.355129257000000198e+00,-2.416790508579999663e+00,8.310875435430000735e-01,-1.059711064190000052e+01,2.822701036929999852e-01,-9.056785106659999141e-01,3.344733268020000372e-02,0.000000000000000000e+00
2.360315942000000167e+00,-2.223622244520000013e+00,8.889400130529999666e-01,-1.084287403939999983e+01,3.192853331569999731e-01,-9.688887596130000279e-01,1.672477647659999928e-02,0.000000000000000000e+00
2.365149183999999849e+00,-2.000295865830000075e+00,8.446829381749999532e-01,-1.118808565319999992e+01,3.442941606040000324e-01,-1.065988302229999851e+00,4.328801762310000890e-03,0.000000000000000000e+00
2.370265220999999922e+00,-2.037346078070000122e+00,4.698138892819999635e-01,-1.134757829599999823e+01,3.830746114249999890e-01,-1.155046820639999972e+00,1.056320220229999864e-02,0.000000000000000000e+00
2.375159436000000124e+00,-2.110162600209999795e+00,6.419702353749999757e-01,-1.142023904309999871e+01,3.872436583039999825e-01,-1.278154373170000024e+00,1.071587763729999962e-02,0.000000000000000000e+00
2.380091461000000130e+00,-2.387257540109999798e+00,9.067020989099999762e-01,-1.145704054130000138e+01,3.781850039959999688e-01,-1.430018663409999835e+00,1.334654726089999979e-02,0.000000000000000000e+00
2.385135313999999784e+00,-2.463094579119999850e+00,1.343236709329999945e+00,-1.148450371769999911e+01,4.080633521079999881e-01,-1.562710404399999975e+00,2.248344942929999743e-02,0.000000000000000000e+00
2.390126833000000062e+00,-2.437510202140000359e+00,1.617316100789999878e+00,-1.129964516299999922e+01,4.511978924270000357e-01,-1.669164776799999972e+00,6.978852208699999789e-03,0.000000000000000000e+00
2.395138178999999923e+00,-2.314185289630000142e+00,1.756226997219999975e+00,-1.127690843049999891e+01,5.517635345460000229e-01,-1.762206077579999919e+00,-6.286173593249999407e-03,0.000000000000000000e+00
2.400308297000000035e+00,-2.342541469419999967e+00,1.639373034300000143e+00,-1.133401388109999886e+01,6.243582963939999786e-01,-1.876834154129999765e+00,-3.371762484309999419e-02,0.000000000000000000e+00
2.405133603999999981e+00,-2.228733742319999767e+00,1.642972520099999834e+00,-1.140303305670000000e+01,7.486484050749999675e-01,-1.994397640230000102e+00,-3.865855559709999861e-02,0.000000000000000000e+00
2.410205061000000093e+00,-1.960664843320000239e+00,1.663722608790000113e+00,-1.155431550509999994e+01,8.314229845999999702e-01,-2.157256603240000015e+00,-1.015378609300000012e-01,0.000000000000000000e+00
2.415181253000000083e+00,-2.002269065600000175e+00,1.454897779779999789e+00,-1.161993159440000056e+01,8.835306763650000450e-01,-2.312523603440000297e+00,-1.354386508459999860e-01,0.000000000000000000e+00
2.420273460999999848e+00,-1.902890991999999892e+00,1.627888055949999968e+00,-1.178347380479999984e+01,9.501683712010000615e-01,-2.488602876659999907e+00,-1.539501547809999926e-01,0.000000000000000000e+00
2.425151105999999945e+00,-1.692890251079999908e+00,1.710432922039999859e+00,-1.166601646920000057e+01,9.981140494349999281e-01,-2.651365518570000024e+00,-1.989741027359999970e-01,0.000000000000000000e+00
2.430186395999999860e+00,-1.779848549700000060e+00,1.649607428070000159e+00,-1.185196223460000020e+01,1.102176070210000081e+00,-2.817937374110000004e+00,-2.340886741880000010e-01,0.000000000000000000e+00
2.435375946999999819e+00,-1.917390495870000100e+00,1.542769101590000025e+00,-1.188638472869999951e+01,1.200867652889999970e+00,-3.005479335780000039e+00,-2.689630985260000329e-01,0.000000000000000000e+00
2.440188635000000161e+00,-1.803799772520000122e+00,1.218980945710000041e+00,-1.173554885509999934e+01,1.314547300339999891e+00,-3.195799350740000211e+00,-3.062569200990000184e-01,0.000000000000000000e+00
2.445181628999999912e+00,-1.561664502329999760e+00,1.013423447939999944e+00,-1.171589489109999960e+01,1.408445477489999931e+00,-3.397667646409999520e+00,-3.014646172520000222e-01,0.000000000000000000e+00
2.450173729999999939e+00,-1.643962846310000225e+00,9.346876918140000212e-01,-1.150623507250000088e+01,1.497706770900000040e+00,-3.598696470259999725e+00,-2.980417609209999874e-01,0.000000000000000000e+00
2.455173331000000125e+00,-1.958672938849999934e+00,6.716208388819999708e-01,-1.137085161959999979e+01,1.561420202260000112e+00,-3.834681749340000056e+00,-2.725717425349999945e-01,0.000000000000000000e+00
2.460333428000000211e+00,-2.180487890070000212e+00,3.771593883190000329e-01,-1.125216912609999831e+01,1.639824151990000090e+00,-4.097308635710000146e+00,-2.254041582350000128e-01,0.000000000000000000e+00
2.465179667000000130e+00,-2.098858385259999793e+00,4.390551784030000126e-01,-1.083173422119999962e+01,1.690820097919999876e+00,-4.287202835080000440e+00,-2.104296535249999822e-01,0.000000000000000000e+00
2.470228746000000086e+00,-2.317737867549999997e+00,3.968593834370000017e-01,-1.012174003179999993e+01,1.760000824930000096e+00,-4.484088897709999522e+00,-1.389154642819999952e-01,0.000000000000000000e+00
2.475182071999999955e+00,-2.520204705829999892e+00,3.524920165850000120e-01,-1.038950717130000001e+01,1.914418458940000178e+00,-4.703329086300000128e+00,-6.967780739069999452e-02,0.000000000000000000e+00
2.480200996999999852e+00,-3.570375437540000085e+00,1.299668804019999957e-01,-1.058568206990000071e+01,2.054605722429999837e+00,-4.859349250790000241e+00,-2.947101928290000311e-02,0.000000000000000000e+00
2.485186050999999896e+00,-4.682860002079999973e+00,-1.429871146280000116e-01,-1.044592873130000044e+01,2.282804489140000115e+00,-4.973485946660000323e+00,-1.708350144330000181e-02,0.000000000000000000e+00
2.490161018999999865e+00,-5.683901961230000133e+00,-2.221537912530000269e-01,-1.116610879919999988e+01,2.474692821500000139e+00,-5.076765537260000016e+00,4.991550371049999907e-02,0.000000000000000000e+00
2.495172607999999848e+00,-6.672371731310000165e+00,-6.179286308560000274e-01,-1.086502508099999886e+01,2.615415811540000135e+00,-5.120225429530000483e+00,9.824950248000000053e-02,0.000000000000000000e+00
2.500350233999999894e+00,-7.207030981189999963e+00,-1.763140283740000092e+00,-9.666160163809999872e+00,2.697600364690000418e+00,-5.135017871859999694e+00,1.672061681750000028e-01,0.000000000000000000e+00
2.505174541999999782e+00,-8.293592292190000492e+00,-2.328582209909999978e+00,-1.017163832740000018e+01,2.696561574940000039e+00,-5.081684589390000006e+00,2.284052073959999818e-01,0.000000000000000000e+00
2.510192611999999990e+00,-8.805955539119999287e+00,-1.611684086249999925e+00,-1.041760630759999984e+01,2.539207458499999959e+00,-4.978928565980000442e+00,2.980506420140000001e-01,0.000000000000000000e+00
2.515176778999999918e+00,-9.378974038019999071e+00,-2.043016524920000077e+00,-1.072458317559999941e+01,2.371926069260000158e+00,-4.938057899480000401e+00,3.903948962690000357e-01,0.000000000000000000e+00
2.520322644999999806e+00,-1.029040849919999978e+01,-3.306362974319999815e+00,-1.101333815809999983e+01,2.242189407350000163e+00,-4.881785392759999453e+00,4.419602453710000378e-01,0.000000000000000000e+00
2.525163989000000164e+00,-1.088181254960000111e+01,-3.472692769680000513e+00,-1.150911092019999948e+01,2.156466245649999891e+00,-4.742497444150000518e+00,4.918073713780000134e-01,0.000000000000000000e+00
2.530315050000000010e+00,-1.108285067029999915e+01,-2.785368384909999939e+00,-1.150723226690000089e+01,2.137934684749999814e+00,-4.572726249690000522e+00,4.983985722060000345e-01,0.000000000000000000e+00
2.535175989999999935e+00,-1.126027995180000119e+01,-2.208430520609999892e+00,-1.087156354280000059e+01,2.195828199390000179e+00,-4.361388683319999515e+00,5.177260041240000499e-01,0.000000000000000000e+00
2.540333788999999953e+00,-1.145989885329999858e+01,-1.509742299650000064e+00,-1.010296518870000071e+01,2.418140411380000021e+00,-4.098623752590000002e+00,4.906153678890000092e-01,0.000000000000000000e+00
2.545177642000000073e+00,-1.291379417809999985e+01,-9.879748261700000977e-01,-7.968401722170000312e+00,2.759111404420000468e+00,-3.799870491030000519e+00,4.934702813629999740e-01,0.000000000000000000e+00
2.550141433999999929e+00,-1.544629371729999967e+01,3.890160860580000324e-01,-9.814731599650000859e+00,3.197845697400000020e+00,-3.460400819780000248e+00,5.717559456830000331e-01,0.000000000000000000e+00
2.555240083999999801e+00,-1.436082955390000038e+01,-1.326157418099999930e-01,-8.662097687799999335e+00,3.527811288830000169e+00,-3.113859653470000044e+00,7.527834177019999684e-01,0.000000000000000000e+00
2.560181044000000128e+00,-1.068145013630000051e+01,2.978513852609999679e-01,-8.967490501420000371e+00,3.872900724409999995e+00,-2.833836793899999762e+00,8.925176262860000653e-01,0.000000000000000000e+00
2.565183894000000020e+00,-9.123409961930001089e+00,-4.831754751590000008e-01,-9.421227371860000588e+00,4.039906024930000505e+00,-2.567764997479999867e+00,9.648522734639999321e-01,0.000000000000000000e+00
2.570109779000000039e+00,-9.651182374910000306e+00,-2.872438181079999708e+00,-8.621232593450001147e+00,3.920244932169999696e+00,-2.313954830170000143e+00,1.054104447360000085e+00,0.000000000000000000e+00
2.575375230000000126e+00,-9.287349062760000606e+00,-5.226047718600000280e+00,-7.427244342439999869e+00,3.579679727549999857e+00,-1.964511871340000049e+00,1.198920726779999946e+00,0.000000000000000000e+00
2.580209668000000178e+00,-7.398581727050000723e+00,-6.062412033500000241e+00,-6.735490158520000215e+00,3.130942344670000210e+00,-1.546624660490000025e+00,1.433252692219999958e+00,0.000000000000000000e+00
2.585348117000000112e+00,-4.021041229969999797e+00,-5.641936796679999588e+00,-6.840104963729999987e+00,2.632441282269999849e+00,-8.974100947380000415e-01,1.601766824720000093e+00,0.000000000000000000e+00
2.590166673999999780e+00,-1.122516275349999981e+00,-4.854400225570000060e+00,-7.280850250639998578e+00,2.203735828400000152e+00,-2.687119245529999700e-01,1.773558259009999860e+00,0.000000000000000000e+00
2.595177173000000170e+00,9.020417058840000113e-01,-3.497863743559999961e+00,-8.582949332289999234e+00,1.775592923159999836e+00,1.917996108529999855e-01,1.947727560999999996e+00,0.000000000000000000e+00
2.600184453999999867e+00,2.770554846660000070e+00,-1.916974900800000103e+00,-8.898284278729999386e+00,1.383549451829999999e+00,4.685679674149999530e-01,2.129240512850000044e+00,0.000000000000000000e+00
2.605141043999999795e+00,3.550148349810000159e+00,-1.789369096110000057e-01,-7.680571453250000680e+00,1.106242299079999825e+00,5.489272475240000171e-01,2.372375965119999819e+00,0.000000000000000000e+00
2.610344839000000139e+00,1.894014588709999947e+00,6.908204101960000454e-01,-5.658064340140000148e+00,9.728123545649999260e-01,3.571783006189999665e-01,2.532202005389999844e+00,0.000000000000000000e+00
2.615184559999999880e+00,-1.088394298579999919e+00,6.919163156739999154e-01,-5.313887914619999542e+00,9.347921609879999982e-01,1.437776982779999935e-01,2.619111776350000031e+00,0.000000000000000000e+00
2.620179819000000077e+00,-2.908291292479999512e+00,1.767992546079999894e+00,-6.828050368799999603e+00,9.561942219729999692e-01,1.320700943469999833e-01,2.671376943590000330e+00,0.000000000000000000e+00
2.625184081000000003e+00,-2.179547102079999910e+00,2.996450637450000176e+00,-7.437559400219999617e+00,1.049224853520000167e+00,3.011295497420000133e-01,2.655040264129999716e+00,0.000000000000000000e+00
2.630301916000000073e+00,-8.245723894949998911e-01,3.505485324479999942e+00,-7.441991245189999660e+00,1.169915437700000060e+00,7.668171525000000432e-01,2.632788896559999703e+00,0.000000000000000000e+00
2.635184392999999847e+00,-3.984377386699999857e-01,3.497969542019999434e+00,-6.763415107280000171e+00,1.246881008149999914e+00,1.203755617140000123e+00,2.613288640980000022e+00,0.000000000000000000e+00
2.640335061000000039e+00,-5.182358652870000526e-01,2.898570401200000202e+00,-6.080459731369999510e+00,1.273221492770000074e+00,1.553831338879999802e+00,2.644928455350000096e+00,0.000000000000000000e+00
2.645193088000000081e+00,2.143333998259999984e-01,1.630986168099999967e+00,-5.838430844160000355e+00,1.271249413489999869e+00,1.721715569499999932e+00,2.720971107479999596e+00,0.000000000000000000e+00
2.650341158999999891e+00,1.461492063479999937e+00,1.293301150420000045e+00,-5.772116251249999941e+00,1.253882050509999901e+00,1.748821616170000093e+00,2.733960390090000026e+00,0.000000000000000000e+00
2.655386047999999999e+00,1.950569419630000079e+00,1.536209889210000012e+00,-5.567873781599999461e+00,1.212579131129999821e+00,1.720562577249999947e+00,2.711135625839999896e+00,0.000000000000000000e+00
2.660313008999999784e+00,1.762745439209999709e+00,1.616248471560000288e+00,-5.749797451940000137e+00,1.124073028560000020e+00,1.708745479580000115e+00,2.678239345550000206e+00,0.000000000000000000e+00
2.665188022000000156e+00,1.269294836410000071e+00,1.519960765190000007e+00,-6.102079442500000006e+00,9.873261451719999027e-01,1.751548886299999941e+00,2.621851205830000087e+00,0.000000000000000000e+00
2.670180942000000002e+00,4.230037323879999867e-01,1.291011285920000029e+00,-6.461469219249999618e+00,8.334551453590000047e-01,1.859089255330000023e+00,2.636678457259999941e+00,0.000000000000000000e+00
2.675162252999999879e+00,-8.427859454469999179e-02,1.357902948060000003e+00,-6.904673589750000673e+00,7.008499503139999920e-01,2.004829168320000132e+00,2.665249824520000033e+00,0.000000000000000000e+00
2.680332212999999797e+00,-4.595424879739999913e-01,1.806959990119999970e+00,-7.268700963169998808e+00,6.007701754569999553e-01,2.234753847119999914e+00,2.691059112550000076e+00,0.000000000000000000e+00
2.685187135000000058e+00,-7.002597080629999748e-01,2.738109790130000221e+00,-7.376815300930000596e+00,5.677832365039999774e-01,2.435207366939999840e+00,2.741737365720000152e+00,0.000000000000000000e+00
2.690175743999999813e+00,-7.671226555670001002e-01,3.913667481440000095e+00,-7.288230424019999099e+00,6.046000123020000006e-01,2.636617183690000310e+00,2.720498085020000456e+00,0.000000000000000000e+00
2.695172782999999850e+00,-1.033571625220000234e+00,4.772153027259999902e+00,-7.175749707749999651e+00,6.903877258300000763e-01,2.838397026059999995e+00,2.685874462130000140e+00,0.000000000000000000e+00
2.700352897000000141e+00,-1.239658261430000019e+00,5.332761541910000069e+00,-6.958036346630000146e+00,8.777515292170000594e-01,3.057945966719999742e+00,2.642701625820000011e+00,0.000000000000000000e+00
2.705178806999999797e+00,-1.377906017779999992e+00,5.373516161629999566e+00,-6.714954150969999702e+00,1.085421323779999891e+00,3.264202594759999965e+00,2.596111297609999813e+00,0.000000000000000000e+00
2.710180668000000015e+00,-1.222538784329999961e+00,5.114938290680000499e+00,-6.588440817690000451e+00,1.311089634899999856e+00,3.455345869059999409e+00,2.532382011409999745e+00,0.000000000000000000e+00
2.715168337000000154e+00,-9.044299892599999557e-01,4.575233155580000322e+00,-6.436448759759999305e+00,1.514964699749999921e+00,3.610907793049999981e+00,2.457592964169999838e+00,0.000000000000000000e+00
2.720325914000000012e+00,-4.636710391459999969e-01,3.999382355869999461e+00,-6.424922572619999883e+00,1.620501518249999773e+00,3.676022529599999977e+00,2.365179538730000086e+00,0.000000000000000000e+00
2.725183699000000015e+00,-2.722578751259999846e-02,3.279669028659999874e+00,-6.565864244219999257e+00,1.681645154949999998e+00,3.682547569270000043e+00,2.225338220599999861e+00,0.000000000000000000e+00
2.730182445000000069e+00,-6.010474194869999676e-02,2.558615100499999961e+00,-6.995583110210000122e+00,1.667611241339999939e+00,3.629564762119999344e+00,2.108854293819999892e+00,0.000000000000000000e+00
2.735379201000000204e+00,-2.742418154850000400e-01,2.165312532770000242e+00,-7.458235693029999780e+00,1.588784813879999813e+00,3.539813041690000439e+00,1.972377896309999823e+00,0.000000000000000000e+00
2.740346692000000139e+00,-6.132881115739999833e-01,2.069255420290000202e+00,-7.826734074380000905e+00,1.455155253409999849e+00,3.441911220550000206e+00,1.842921853070000004e+00,0.000000000000000000e+00
2.745203537000000082e+00,-1.063643961269999938e+00,2.373571690709999960e+00,-8.179134138360000250e+00,1.309937238690000116e+00,3.364424467090000093e+00,1.696489334110000025e+00,0.000000000000000000e+00
2.750345437000000004e+00,-1.746687746109999662e+00,2.895386218200000084e+00,-8.489619306679999866e+00,1.169376254079999899e+00,3.320790052410000026e+00,1.560961723329999939e+00,0.000000000000000000e+00
2.755181845000000074e+00,-2.408668869190000450e+00,3.527208203730000324e+00,-8.841361783540000019e+00,1.078912019729999949e+00,3.313837289809999920e+00,1.447560429570000196e+00,0.000000000000000000e+00
2.760177785999999855e+00,-2.948394170290000282e+00,4.363804866080000622e+00,-9.132700352839998814e+00,1.061465978620000028e+00,3.325206041339999974e+00,1.361586689949999984e+00,0.000000000000000000e+00
2.765166054999999901e+00,-3.365113853970000068e+00,5.313778609030000766e+00,-9.339043594169998741e+00,1.117981076239999982e+00,3.353348255159999791e+00,1.293596744540000065e+00,0.000000000000000000e+00
2.770167567000000108e+00,-3.743274089899999879e+00,6.245170985619998838e+00,-9.639343468559999906e+00,1.201650023460000050e+00,3.405118465419999740e+00,1.214613914490000113e+00,0.000000000000000000e+00
2.775368884000000147e+00,-4.190231967719999950e+00,6.811322521360000160e+00,-9.933291343580000543e+00,1.319942116740000060e+00,3.433673858640000187e+00,1.178343057630000024e+00,0.000000000000000000e+00
2.780348706999999919e+00,-4.624901149590000315e+00,7.097340772419999944e+00,-1.032915879339999954e+01,1.468570232389999841e+00,3.464646577840000408e+00,1.140126943589999886e+00,0.000000000000000000e+00
2.785310405000000156e+00,-5.170256857800000105e+00,7.194170330580000439e+00,-1.074634960170000042e+01,1.615040779110000102e+00,3.525337219240000319e+00,1.137619376179999753e+00,0.000000000000000000e+00
2.790187514999999951e+00,-5.623246709260000031e+00,7.213551322869999005e+00,-1.114525072009999995e+01,1.717716455459999958e+00,3.605630159380000421e+00,1.168861865999999861e+00,0.000000000000000000e+00
2.795179303999999920e+00,-6.008797347690000734e+00,7.119096677149999941e+00,-1.148838143589999916e+01,1.756086826320000016e+00,3.650911808010000037e+00,1.215699791910000105e+00,0.000000000000000000e+00
2.800338253000000055e+00,-6.296411928040000383e+00,7.052307452470000015e+00,-1.175352757940000004e+01,1.758338570590000094e+00,3.727480173110000017e+00,1.281461954120000080e+00,0.000000000000000000e+00
2.805172601999999848e+00,-6.551707124049999997e+00,7.154233456989999240e+00,-1.189296176900000113e+01,1.723143339159999732e+00,3.809875249860000146e+00,1.362080812450000122e+00,0.000000000000000000e+00
2.810099054999999790e+00,-6.715848469460000025e+00,7.169654897999999221e+00,-1.195466974490000034e+01,1.647676587100000090e+00,3.871288061140000014e+00,1.459071993829999858e+00,0.000000000000000000e+00
2.815022101999999915e+00,-6.888054463380000492e+00,7.110629293060001466e+00,-1.196535948119999837e+01,1.594527959819999952e+00,3.943368673319999740e+00,1.571173191069999975e+00,0.000000000000000000e+00
2.819975459000000129e+00,-6.922019861349999914e+00,7.191176409460000585e+00,-1.186468844520000054e+01,1.523788809779999864e+00,3.994622707370000025e+00,1.706479072570000088e+00,0.000000000000000000e+00
2.825030501000000083e+00,-6.900500103460000645e+00,7.392307469089999472e+00,-1.169009877099999883e+01,1.465248107910000153e+00,4.031612396239999896e+00,1.864183306690000208e+00,0.000000000000000000e+00
2.830036588000000020e+00,-6.764317024559999503e+00,7.540606517719999680e+00,-1.153898700309999903e+01,1.417017340660000180e+00,4.016860961909999972e+00,2.025512695309999778e+00,0.000000000000000000e+00
2.834947982000000088e+00,-6.707636521430000442e+00,7.620612366849999653e+00,-1.134757829599999823e+01,1.388913631439999907e+00,3.993496418000000325e+00,2.181852817540000267e+00,0.000000000000000000e+00
2.839973359000000031e+00,-6.680845545140000397e+00,7.530615869580000954e+00,-1.127593695510000060e+01,1.397709250449999940e+00,3.974577665330000453e+00,2.358930826190000385e+00,0.000000000000000000e+00
2.845058383000000024e+00,-6.675562051780000061e+00,7.276527711269999976e+00,-1.123508238219999988e+01,1.391719937319999989e+00,3.917634963989999886e+00,2.519630908969999972e+00,0.000000000000000000e+00
2.850089440000000085e+00,-6.613464199790000109e+00,6.938459539500000162e+00,-1.124258296710000060e+01,1.405204772949999903e+00,3.866929531100000261e+00,2.678444147110000007e+00,0.000000000000000000e+00
2.855072864999999904e+00,-6.526779603550000530e+00,6.662494480419999476e+00,-1.121628298920000155e+01,1.369362831120000124e+00,3.791792154309999940e+00,2.826819658280000258e+00,0.000000000000000000e+00
2.860005076999999840e+00,-6.496763819990000854e+00,6.353717285060000108e+00,-1.128755023599999952e+01,1.354168772700000023e+00,3.714838266369999698e+00,2.973045110699999771e+00,0.000000000000000000e+00
2.865071802000000112e+00,-6.570692979550000423e+00,5.913370057549999892e+00,-1.149384905369999821e+01,1.301337718959999945e+00,3.622105598450000130e+00,3.105731725690000111e+00,0.000000000000000000e+00
2.870098383999999836e+00,-6.615346360269999337e+00,5.557526575110000699e+00,-1.155979130619999928e+01,1.280988693240000087e+00,3.563289880749999750e+00,3.207898139950000171e+00,0.000000000000000000e+00
2.875087501999999962e+00,-6.566171118209999769e+00,5.356727523910000066e+00,-1.166722058430000075e+01,1.233423352239999993e+00,3.499636173249999871e+00,3.289676189420000174e+00,0.000000000000000000e+00
2.880098574999999883e+00,-6.546001021369999506e+00,5.153717226409999519e+00,-1.175217850289999966e+01,1.212468147279999853e+00,3.423747539520000327e+00,3.369566440579999878e+00,0.000000000000000000e+00
2.885099612999999952e+00,-6.451964308800000047e+00,4.923790864919999954e+00,-1.179237373509999998e+01,1.209937214850000053e+00,3.355144977570000187e+00,3.401519775390000166e+00,0.000000000000000000e+00
2.890084556000000138e+00,-6.458383528189999723e+00,4.720996255990000279e+00,-1.172735152009999915e+01,1.212467908860000110e+00,3.265383481980000280e+00,3.428339004520000177e+00,0.000000000000000000e+00
2.895212710000000023e+00,-6.412163044290000613e+00,4.520525121580000416e+00,-1.165830662549999985e+01,1.230340242389999839e+00,3.200613260269999927e+00,3.436664581300000076e+00,0.000000000000000000e+00
2.900099555000000162e+00,-6.334381885469999141e+00,4.304571171340000113e+00,-1.160602581859999916e+01,1.269642114640000097e+00,3.089975595469999892e+00,3.389304637910000029e+00,0.000000000000000000e+00
2.905058051000000141e+00,-6.532647618799999556e+00,4.160405276989999734e+00,-1.172500758730000037e+01,1.303975582120000087e+00,3.026407003399999684e+00,3.326716661449999890e+00,0.000000000000000000e+00
2.910098536000000014e+00,-6.821859697459998984e+00,3.990469566090000253e+00,-1.183520749920000092e+01,1.360984683039999865e+00,2.948665380479999598e+00,3.248693227770000025e+00,0.000000000000000000e+00
2.915216583999999944e+00,-7.041112104719999820e+00,3.695463998719999754e+00,-1.192250467440000072e+01,1.386479854580000115e+00,2.883607864379999608e+00,3.173012971879999533e+00,0.000000000000000000e+00
2.920097178999999876e+00,-7.052565811150000030e+00,3.538758648530000439e+00,-1.191913665920000120e+01,1.443574666979999810e+00,2.869944095609999746e+00,3.060899257659999595e+00,0.000000000000000000e+00
2.925106689999999787e+00,-7.095421787060001151e+00,3.319567616070000060e+00,-1.196362812739999981e+01,1.445930361750000115e+00,2.847003459929999813e+00,2.958804845809999584e+00,0.000000000000000000e+00
2.930253067999999850e+00,-7.186024433520000088e+00,3.118912064989999955e+00,-1.196396130489999976e+01,1.464417099950000134e+00,2.821843147279999631e+00,2.846728563309999682e+00,0.000000000000000000e+00
