t,ax,ay,az,wx,wy,wz,zv
5.130459999999999882e-03,-2.510075818259999814e+00,1.775667172360000101e-01,-9.461722463850000153e+00,-4.863602574909999671e-03,-1.704851910470000023e-02,-8.863981347530000381e-04,1.000000000000000000e+00
1.011819299999999928e-02,-2.543327807259999851e+00,1.702483205139999900e-01,-9.493138761860000940e+00,1.302026025949999839e-02,-1.012923568489999988e-02,-1.037242123860000016e-03,1.000000000000000000e+00
1.517274700000000032e-02,-2.523539987729999989e+00,1.632978437890000023e-01,-9.471615496839998372e+00,7.539912592620000124e-03,-7.854897528890000813e-03,-1.130337733779999965e-02,1.000000000000000000e+00
2.022175600000000045e-02,-2.585552791790000082e+00,1.764668297030000110e-01,-9.463261509989999709e+00,6.109556998130001321e-04,-3.301497315989999817e-03,8.338596671820000875e-03,1.000000000000000000e+00
2.524397600000000130e-02,-2.525657710539999989e+00,1.783743803570000119e-01,-9.505863218869999187e+00,-1.365770352999999982e-03,8.964521810409999125e-03,1.204044930639999907e-02,1.000000000000000000e+00
3.024771999999999877e-02,-2.489756083809999687e+00,1.585116506919999890e-01,-9.459539859119999505e+00,7.624623831360000450e-03,-1.125185471029999974e-02,3.438208485019999747e-03,1.000000000000000000e+00
3.505710799999999655e-02,-2.501370826020000049e+00,1.786277705959999906e-01,-9.489449844210000151e+00,-1.087532285599999982e-02,9.046657942239999181e-03,-2.107872813940000339e-02,1.000000000000000000e+00
4.026688400000000279e-02,-2.550872231290000069e+00,1.656753683090000095e-01,-9.459385545339999979e+00,1.169383060189999914e-02,2.274705283340000203e-02,-2.116875490169999909e-03,1.000000000000000000e+00
4.525845600000000246e-02,-2.510229839780000027e+00,1.846754167300000138e-01,-9.466443647160000197e+00,3.613469190899999597e-03,1.232181675729999894e-04,-8.005339652299998943e-03,1.000000000000000000e+00
5.034657299999999863e-02,-2.513552262200000165e+00,1.191434255680000054e-01,-9.477973341429999365e+00,-9.718433022499998672e-03,6.377477198840000340e-03,-1.092507224530000001e-02,1.000000000000000000e+00
5.513247400000000076e-02,-2.573405257879999741e+00,1.299829912869999993e-01,-9.470341239119999699e+00,3.860230557619999739e-03,2.189535181969999664e-03,7.011459209020000360e-03,1.000000000000000000e+00
6.028623599999999999e-02,-2.559636260250000017e+00,1.276696454440000017e-01,-9.468711592089999129e+00,-1.096237637099999919e-02,-1.048768870529999918e-02,1.059150602670000212e-02,1.000000000000000000e+00
6.528652000000000066e-02,-2.527979723740000129e+00,1.274862060349999937e-01,-9.479020804660001076e+00,-1.360732316969999987e-02,2.316592726860000270e-03,1.143503189089999962e-02,1.000000000000000000e+00
7.035561599999999582e-02,-2.523041975079999943e+00,1.453989250099999853e-01,-9.484179210329999776e+00,1.570609631020000079e-03,5.562385544180000092e-03,-6.570016033949999633e-03,1.000000000000000000e+00
7.527303300000000308e-02,-2.528182845099999909e+00,1.454297768059999996e-01,-9.458316454800000272e+00,2.653952687980000013e-03,2.125504612920000105e-02,5.537648685279999462e-03,1.000000000000000000e+00
8.030650200000000183e-02,-2.512850251409999736e+00,1.240120727840000048e-01,-9.462678741659999559e+00,-4.534630104899999709e-03,-3.879433497790000032e-03,5.371788516640000483e-03,1.000000000000000000e+00
8.506132299999999424e-02,-2.527085112990000049e+00,1.667753471739999993e-01,-9.475673832320000045e+00,-3.769927192479999994e-03,2.262621186670000367e-02,4.869706928729999711e-03,1.000000000000000000e+00
9.027129899999999929e-02,-2.523705115159999846e+00,1.381102475730000001e-01,-9.490856203879999953e+00,1.471712253989999842e-03,1.596749387679999993e-02,5.555793177339999733e-04,1.000000000000000000e+00
9.518274899999999705e-02,-2.531098732549999841e+00,1.654277867560000059e-01,-9.492468315249999122e+00,1.091245329010000036e-03,-8.487945888189998974e-04,3.892176086079999695e-03,1.000000000000000000e+00
1.001547639999999934e-01,-2.527649761140000173e+00,1.667707805969999846e-01,-9.480165883039999741e+00,-1.141931861640000127e-03,-1.217057835310000023e-02,-1.211489434350000033e-03,1.000000000000000000e+00
1.052448170000000044e-01,-2.503457276909999862e+00,1.545836087949999937e-01,-9.500134904350000298e+00,-1.931132562460000091e-02,7.137844339010000587e-03,-1.698190346359999955e-03,1.000000000000000000e+00
1.102836979999999995e-01,-2.466519000609999956e+00,1.379703002459999883e-01,-9.485234856860001784e+00,6.882716901600000048e-03,1.256692688910000235e-03,-8.322197943930000064e-03,1.000000000000000000e+00
1.152701190000000042e-01,-2.521066583350000112e+00,1.859049767909999873e-01,-9.451661088559999868e+00,7.800470571960000515e-03,1.403563190250000032e-03,3.832490416239999961e-03,1.000000000000000000e+00
1.202967610000000021e-01,-2.502926823290000158e+00,1.990740175040000004e-01,-9.447765250169998907e+00,5.614192225039999276e-03,1.107517816129999916e-02,-4.671313799920000210e-04,1.000000000000000000e+00
1.251288309999999959e-01,-2.531034142879999838e+00,1.670677542490000000e-01,-9.436679208010001929e+00,1.743120700120000255e-02,-6.705741398040000354e-04,7.485819980500000095e-03,1.000000000000000000e+00
1.302487310000000065e-01,-2.477392861319999806e+00,1.571562174950000002e-01,-9.477508646529999581e+00,-9.128123521799999182e-03,1.642131246629999902e-02,-5.949106067420000150e-03,1.000000000000000000e+00
1.351198150000000042e-01,-2.509955699009999819e+00,1.440823807850000193e-01,-9.477337966140000347e+00,-2.686036983500000343e-03,5.680397152899999309e-03,-4.110015928749999499e-03,1.000000000000000000e+00
1.403582419999999942e-01,-2.514474345479999595e+00,1.502687595359999961e-01,-9.447705044419999254e+00,2.412246307360000133e-03,8.863288909200000426e-03,2.566540380939999998e-03,1.000000000000000000e+00
1.452963090000000124e-01,-2.503066231760000093e+00,1.576044361869999855e-01,-9.430642850459999948e+00,1.163880620150000052e-02,1.275798492129999982e-02,-3.807988949120000039e-03,1.000000000000000000e+00
1.503637509999999899e-01,-2.533922850059999732e+00,1.537302799009999943e-01,-9.467485849680000953e+00,-2.639555139469999812e-03,-1.068428973670000051e-03,3.633905900639999853e-03,1.000000000000000000e+00
1.552535529999999886e-01,-2.470431497879999938e+00,1.453095296939999892e-01,-9.467030507130001382e+00,7.213071454319999742e-03,5.281959660350000509e-03,-7.333013229069999285e-03,1.000000000000000000e+00
1.603430080000000091e-01,-2.519013742479999873e+00,1.571424629649999793e-01,-9.477613275950000471e+00,3.590108826760000146e-03,4.975293762979999049e-03,2.282095374540000186e-03,1.000000000000000000e+00
1.651460710000000054e-01,-2.509257779879999983e+00,1.489017363660000148e-01,-9.470217905000000158e+00,3.946068231019999629e-03,1.874233968560000060e-02,3.817878430710000028e-03,1.000000000000000000e+00
1.703620449999999897e-01,-2.510224871340000163e+00,1.606819074030000072e-01,-9.483429268749999252e+00,-5.550255067649999784e-03,7.368714548649999731e-03,5.922645330430000021e-03,1.000000000000000000e+00
1.752661929999999868e-01,-2.490915190720000005e+00,1.345364898729999870e-01,-9.476385779980001089e+00,-8.526780875399999314e-04,2.233054954559999996e-03,3.467049216850000021e-03,1.000000000000000000e+00
1.801621969999999961e-01,-2.530670570259999863e+00,1.680187348309999940e-01,-9.469701187649999241e+00,9.498000727040000401e-04,-8.469425141810000418e-03,4.485095851119999706e-03,1.000000000000000000e+00
1.851739749999999907e-01,-2.522975631850000067e+00,1.417311688840000028e-01,-9.477110002599999916e+00,4.519916605200000048e-03,5.876217968759999723e-03,9.284337982540000894e-03,1.000000000000000000e+00
1.901578040000000136e-01,-2.459543900899999969e+00,1.536522827610000141e-01,-9.463620990949999978e+00,5.038242321460000180e-03,1.127668656410000039e-02,-5.329354200510000653e-03,1.000000000000000000e+00
1.953088109999999988e-01,-2.528657184610000108e+00,1.739242690810000047e-01,-9.465603104680001323e+00,4.431338980790000374e-03,9.457921609280000794e-03,5.698196589949999433e-03,1.000000000000000000e+00
2.001003299999999929e-01,-2.509228553779999871e+00,1.705602177409999698e-01,-9.448424006339999792e+00,2.447386505079999705e-03,-5.261722952130000637e-03,-1.115373917859999826e-03,1.000000000000000000e+00
2.053034420000000027e-01,-2.448803603440000032e+00,1.749840803319999971e-01,-9.481084166930001444e+00,-4.372452676760000233e-04,-6.486767902970000041e-03,-3.142241016030000028e-02,1.000000000000000000e+00
2.101577189999999928e-01,-2.575738669260000169e+00,1.690762445270000136e-01,-9.474056460249999034e+00,5.025928374379999911e-03,2.530712634330000051e-03,5.997572094199999856e-03,1.000000000000000000e+00
2.152876589999999923e-01,-2.459626610749999998e+00,1.452384554850000009e-01,-9.474257535780001405e+00,-2.668979112060000311e-03,8.307284675540000524e-03,-9.268981404600000126e-03,1.000000000000000000e+00
2.201567200000000002e-01,-2.523501117029999907e+00,1.476802682799999988e-01,-9.470453467320000485e+00,6.482310593130000652e-03,2.189039252700000077e-02,3.789850743490000024e-03,1.000000000000000000e+00
2.253150620000000104e-01,-2.492287355859999831e+00,1.284819116750000045e-01,-9.492759991669998954e+00,-4.311124794189999734e-03,-7.163747213779999602e-03,-2.919628052039999547e-03,1.000000000000000000e+00
2.303317069999999966e-01,-2.505241237709999957e+00,1.512529574010000044e-01,-9.474902263420000637e+00,-4.897497710769999285e-04,-1.640108996070000066e-03,-5.252080503850000900e-03,1.000000000000000000e+00
2.351092539999999897e-01,-2.534117495849999901e+00,1.681723362240000186e-01,-9.448476028789999148e+00,-1.013320311899999944e-02,1.214749645440000051e-03,1.824536593630000057e-03,1.000000000000000000e+00
2.403464899999999960e-01,-2.506983112940000424e+00,1.620936556310000054e-01,-9.461690315149999364e+00,4.049206618220000005e-03,-3.928971476849999443e-03,-2.561982022599999971e-03,1.000000000000000000e+00
2.451270010000000110e-01,-2.468423957450000206e+00,1.573522149909999945e-01,-9.450389168930000139e+00,-1.073266007010000023e-02,-4.961146507409999913e-03,-1.503977458920000183e-02,1.000000000000000000e+00
2.501422739999999978e-01,-2.529815999259999781e+00,1.537153380600000119e-01,-9.459799386839998547e+00,1.920598559079999884e-03,-1.242069154979999826e-02,1.909876475109999975e-03,1.000000000000000000e+00
2.551055990000000162e-01,-2.472197630770000210e+00,1.392744599140000039e-01,-9.477685172139999281e+00,-2.513084327800000316e-03,4.835159983489999841e-03,-8.831603452560000261e-03,1.000000000000000000e+00
2.603458770000000033e-01,-2.510921621440000084e+00,1.560826151810000006e-01,-9.462132798220000751e+00,-1.383332442489999987e-02,-1.622910727749999997e-03,-2.719822572539999997e-03,1.000000000000000000e+00
2.651481370000000060e-01,-2.511030050250000034e+00,1.344608399540000165e-01,-9.488104274819999517e+00,4.318305756899999855e-03,1.061544008549999973e-02,1.403936417770000177e-03,1.000000000000000000e+00
2.701227500000000226e-01,-2.462116089479999825e+00,1.391127939460000129e-01,-9.488943063729999849e+00,-4.676152952020000420e-03,-9.957740083339999479e-03,-5.344303324819999791e-03,1.000000000000000000e+00
2.753476979999999741e-01,-2.556937814940000386e+00,1.477961314779999979e-01,-9.477371868400000565e+00,1.901957020160000011e-02,4.080733284349999726e-03,-2.611870877440000184e-04,1.000000000000000000e+00
2.802786469999999919e-01,-2.536899235519999962e+00,1.537085429929999914e-01,-9.475450544950000165e+00,9.086420759559999533e-03,-2.542876405640000226e-03,1.976211788129999918e-03,1.000000000000000000e+00
2.853189589999999831e-01,-2.497848789369999878e+00,1.895717008720000096e-01,-9.444252858139998708e+00,1.964457798749999918e-03,-4.200818482790000079e-03,-2.546492498369999809e-03,1.000000000000000000e+00
2.901306060000000131e-01,-2.468920508790000135e+00,1.880349014920000006e-01,-9.463600532679999233e+00,4.857672029170000561e-04,-6.861020810899999718e-03,3.763344371690000023e-03,1.000000000000000000e+00
2.953286259999999830e-01,-2.522837976940000004e+00,1.463969230720000014e-01,-9.486758705430000660e+00,9.566152584739999768e-04,7.184104062619999648e-03,9.737218730150000098e-03,1.000000000000000000e+00
3.002221119999999854e-01,-2.503368137319999853e+00,1.809148768870000035e-01,-9.487937101560000031e+00,1.244281884280000049e-04,-2.589270938189999934e-03,1.185194356369999790e-03,1.000000000000000000e+00
3.053370750000000133e-01,-2.519268009499999739e+00,1.788548390839999891e-01,-9.456523726169999478e+00,-1.407949021089999891e-03,-7.797959726299999450e-03,-5.943063646550000335e-03,1.000000000000000000e+00
3.103926949999999962e-01,-2.522678402469999970e+00,1.847546559789999820e-01,-9.458041729510000550e+00,3.494883887469999676e-03,-9.549206122759999402e-03,-6.405636668210000495e-03,1.000000000000000000e+00
3.151793709999999860e-01,-2.568224640369999978e+00,1.382135800840000039e-01,-9.485613627050000218e+00,-9.106541983780000612e-05,9.996225126090000496e-03,3.731658449399999963e-03,1.000000000000000000e+00
3.202360450000000247e-01,-2.505943248499999942e+00,1.525718853799999941e-01,-9.463898054330000420e+00,-2.218431094659999766e-03,2.721301279960000141e-05,-3.096673637629999889e-03,1.000000000000000000e+00
3.253126109999999738e-01,-2.517909872890000234e+00,1.214328425470000000e-01,-9.478670676040000131e+00,-5.657699424770000832e-03,-4.946107976140000362e-03,8.100462146099999400e-03,1.000000000000000000e+00
3.303534550000000181e-01,-2.474546531979999742e+00,1.632749926359999826e-01,-9.460646359049999177e+00,9.823623113329999976e-03,1.112833153459999967e-02,-1.037111785260000016e-02,1.000000000000000000e+00
3.351404550000000038e-01,-2.517046534059999896e+00,1.486507390139999996e-01,-9.506669274560000105e+00,-1.176669728010000006e-02,-1.535389665509999911e-02,-1.406915020199999908e-02,1.000000000000000000e+00
3.401870229999999773e-01,-2.527557698940000375e+00,1.476217795580000158e-01,-9.469783605230000845e+00,5.141563713550000372e-03,6.845127791170000503e-03,1.020655315370000080e-02,1.000000000000000000e+00
3.451783230000000091e-01,-2.513528589069999875e+00,1.575678305029999948e-01,-9.448749000510000329e+00,7.631032262000000087e-03,-6.646753288810000257e-03,-7.942799478770001462e-03,1.000000000000000000e+00
3.503604069999999848e-01,-2.531026544089999941e+00,1.414893138189999844e-01,-9.509034250130000032e+00,-4.646852146830000342e-03,-1.475527230650000056e-02,-3.966480027880000050e-03,1.000000000000000000e+00
3.550942140000000191e-01,-2.553615100260000048e+00,1.417449508139999870e-01,-9.481462352589998588e+00,1.520222751419999900e-03,-6.332739256319999503e-03,9.127509780229999328e-03,1.000000000000000000e+00
3.602876799999999990e-01,-2.568798640870000316e+00,1.466033232310000045e-01,-9.480731700230000669e+00,-4.081995226440000152e-03,4.252252634609999735e-03,1.658446714279999956e-02,1.000000000000000000e+00
3.651469210000000132e-01,-2.463725278240000094e+00,1.571677070040000124e-01,-9.479649750210001002e+00,5.994114093479999822e-03,1.355083659289999963e-04,-8.093237876889999502e-03,1.000000000000000000e+00
3.703972509999999829e-01,-2.544610540549999911e+00,1.404524085190000104e-01,-9.488923774510000797e+00,9.648174047469999098e-03,8.258021436630000323e-03,5.879824981090000548e-03,1.000000000000000000e+00
3.751933109999999738e-01,-2.507726332529999880e+00,1.642878229410000002e-01,-9.482054473260001615e+00,2.121601020919999976e-03,5.535689182580000485e-03,3.082046983760000289e-03,1.000000000000000000e+00
3.801359049999999962e-01,-2.531020991140000120e+00,2.013002969849999879e-01,-9.467885078139998356e+00,-6.649422924970001085e-03,-6.011995486919999993e-03,1.004605460910000005e-02,1.000000000000000000e+00
3.853017000000000247e-01,-2.528479782220000249e+00,2.040550207869999966e-01,-9.429387297439999926e+00,3.549925750119999209e-04,1.384054776279999767e-04,9.690973907709999474e-03,1.000000000000000000e+00
3.901656479999999760e-01,-2.469105802230000091e+00,2.049118933450000124e-01,-9.451981406559999854e+00,-6.336381193249999641e-03,7.920224219560000403e-03,-1.440674997869999816e-03,1.000000000000000000e+00
3.950237819999999900e-01,-2.467165189559999749e+00,1.641364135049999950e-01,-9.474292022569999361e+00,1.008242648089999888e-02,-9.182842448349999576e-03,6.202453747389999848e-03,1.000000000000000000e+00
4.001550689999999744e-01,-2.497420334829999700e+00,1.441259094000000018e-01,-9.465863801439999392e+00,8.854771964250000155e-03,9.717445820570000739e-03,9.599411860110000985e-03,1.000000000000000000e+00
4.053663710000000031e-01,-2.481116265759999884e+00,1.454138851179999914e-01,-9.462893845720000030e+00,-1.137454155829999841e-02,9.092432446779998749e-04,-5.674847867339999526e-03,1.000000000000000000e+00
4.103884870000000240e-01,-2.533680858000000313e+00,1.581186327870000019e-01,-9.508214165910001014e+00,3.937227651479999896e-03,8.365987800060000965e-03,4.063136875630000110e-03,1.000000000000000000e+00
4.152257990000000065e-01,-2.488784900690000246e+00,1.701153965830000114e-01,-9.487464807869999461e+00,-4.478882532569999388e-03,-7.047270424659999449e-03,2.018597209830000176e-03,1.000000000000000000e+00
4.202203789999999772e-01,-2.480435005499999956e+00,1.356559132240000021e-01,-9.478041145969999803e+00,-5.661034490909999835e-03,-2.147753490139999843e-03,2.156690927219999734e-03,1.000000000000000000e+00
4.253182899999999877e-01,-2.507441085850000029e+00,1.429767028320000077e-01,-9.471120991319999405e+00,8.858990855520000943e-03,8.812264539299998964e-03,-1.556034549139999942e-03,1.000000000000000000e+00
4.303619830000000035e-01,-2.473996496879999896e+00,1.583787815599999871e-01,-9.462779279430000301e+00,-5.360533483329999946e-03,-6.423854269089999958e-03,-3.271828638389999780e-03,1.000000000000000000e+00
4.351321360000000027e-01,-2.526896604680000102e+00,1.752672263879999914e-01,-9.448844862099999631e+00,1.620754413310000058e-02,1.267780549820000068e-02,5.674161016939999365e-03,1.000000000000000000e+00
4.402397820000000239e-01,-2.507315121380000011e+00,1.678376243770000054e-01,-9.491135020819999824e+00,2.559437230229999818e-02,1.761320978399999806e-02,-5.853156093510000074e-03,1.000000000000000000e+00
4.451003829999999883e-01,-2.540692198059999907e+00,1.677630978360000191e-01,-9.497273669700000198e+00,2.215220592919999980e-05,4.126909654590000046e-03,2.673570299520000061e-03,1.000000000000000000e+00
4.501293310000000214e-01,-2.510408118960000046e+00,1.582332356099999948e-01,-9.489514141619999066e+00,1.400252617900000010e-02,5.293743684889999808e-03,7.284027524289999646e-03,1.000000000000000000e+00
4.552220779999999745e-01,-2.449648529829999699e+00,1.201265000550000017e-01,-9.481780332499999631e+00,6.710785906759999912e-03,1.551435329020000144e-03,-3.527234774079999937e-03,1.000000000000000000e+00
4.603617119999999785e-01,-2.540435008429999808e+00,1.677974750299999762e-01,-9.490326042519999561e+00,1.954471506179999984e-02,1.895227469500000055e-03,8.539708331230000046e-03,1.000000000000000000e+00
4.651080260000000077e-01,-2.506753980359999634e+00,1.737007625230000130e-01,-9.497388820519999442e+00,-1.059763133529999929e-02,6.428159773350000487e-03,1.031066989530000011e-03,1.000000000000000000e+00
4.701511489999999904e-01,-2.477886490059999947e+00,1.570037303470000201e-01,-9.488696395499999880e+00,-7.778585422779999564e-03,-1.198663190010000081e-02,-4.239201545719999305e-03,1.000000000000000000e+00
4.751200050000000119e-01,-2.496147830680000013e+00,1.750424959880000075e-01,-9.463924942330001144e+00,-3.119952045379999726e-03,-2.464399207380000255e-03,2.424389356749999652e-03,1.000000000000000000e+00
4.801290639999999943e-01,-2.492254622629999972e+00,1.297721524150000083e-01,-9.478629759510001307e+00,2.161702141169999890e-03,8.852371014649999467e-03,-1.220275182279999954e-03,1.000000000000000000e+00
4.853128039999999865e-01,-2.505551034309999814e+00,1.130763258149999895e-01,-9.482185406170000164e+00,-7.114335428920000488e-03,-2.761818002910000017e-03,3.601328236979999854e-03,1.000000000000000000e+00
4.901561509999999844e-01,-2.525175187719999936e+00,1.574210607099999770e-01,-9.458779980660001030e+00,1.496635284270000227e-02,-2.454722486440000240e-02,-8.412450551989999797e-05,1.000000000000000000e+00
4.953531800000000040e-01,-2.527484925960000073e+00,1.659242833029999920e-01,-9.436321480610001089e+00,-4.646011628209999883e-03,1.894803345199999947e-02,-4.885788075630000159e-05,1.000000000000000000e+00
5.001767879999999833e-01,-2.503764443159999686e+00,1.768337633189999980e-01,-9.418128236799999442e+00,8.850302547219999344e-03,7.751467637719999587e-04,-1.870310120279999877e-02,1.000000000000000000e+00
5.051520999999999928e-01,-2.545370711269999919e+00,1.489131893420000130e-01,-9.467902613789998867e+00,1.029237266629999883e-02,-1.851197797809999877e-03,2.465849043800000077e-03,1.000000000000000000e+00
5.103913749999999805e-01,-2.508356154859999521e+00,1.476023350720000182e-01,-9.484417110739999046e+00,-2.234169049189999989e-03,7.634696550669999894e-03,1.678660744799999891e-03,1.000000000000000000e+00
5.151537330000000026e-01,-2.448692105890000192e+00,1.526692356739999812e-01,-9.435300905389999215e+00,6.159656215460000001e-03,-6.032627075910000115e-03,-1.294673420489999942e-02,1.000000000000000000e+00
5.201126969999999572e-01,-2.533872288909999604e+00,1.574840794759999885e-01,-9.441586853800000512e+00,7.263740058989999818e-03,9.058250114319999977e-03,2.812547609210000113e-05,1.000000000000000000e+00
5.250469009999999548e-01,-2.496940150099999922e+00,1.371926395380000108e-01,-9.449780097119999667e+00,-6.609753705560000511e-03,4.483005031939999233e-03,-6.006851792340000586e-03,1.000000000000000000e+00
5.301164800000000010e-01,-2.536518711770000323e+00,1.418733538330000099e-01,-9.471571657689999313e+00,1.389897149059999941e-02,-2.386187668889999929e-03,-7.715458981689998948e-03,1.000000000000000000e+00
5.351285669999999994e-01,-2.524488666759999944e+00,1.989892252969999997e-01,-9.464009698010000804e+00,6.726950872689999895e-03,7.649546489119999834e-03,-8.975780569020000432e-03,1.000000000000000000e+00
5.401474459999999755e-01,-2.555539930840000196e+00,1.559405398289999967e-01,-9.489955455650001426e+00,-1.080077141519999962e-03,9.785891510549999533e-03,5.814919248220000100e-03,1.000000000000000000e+00
5.451167949999999873e-01,-2.515191846100000017e+00,1.632085398039999913e-01,-9.476751690680000451e+00,4.641334060579999782e-03,-1.128470245750000031e-02,-2.329038456080000010e-03,1.000000000000000000e+00
5.501282170000000304e-01,-2.497433486569999861e+00,1.633104840750000120e-01,-9.448119470439998224e+00,-7.146983407439999256e-03,1.819955930109999967e-02,1.257058465849999985e-03,1.000000000000000000e+00
5.553046560000000076e-01,-2.545125212070000309e+00,1.522715415929999927e-01,-9.495153024289999522e+00,-1.578161120409999826e-02,1.996505074199999771e-02,1.863248646259999669e-02,1.000000000000000000e+00
5.603277789999999703e-01,-2.427079993540000036e+00,1.558991849049999878e-01,-9.476898990200000483e+00,-1.135112531479999867e-02,-5.994305480270000104e-03,-1.009428314860000113e-02,1.000000000000000000e+00
5.651279580000000413e-01,-2.524310095320000169e+00,1.391850737310000030e-01,-9.493964106769999134e+00,-6.033897865560000282e-03,1.757028885190000181e-02,-1.608921098520000020e-03,1.000000000000000000e+00
5.703784210000000243e-01,-2.477833006310000030e+00,1.499477839540000190e-01,-9.481346032730000317e+00,2.550201956179999532e-03,1.431773044170000196e-02,-9.392960928379998423e-03,1.000000000000000000e+00
5.752928729999999824e-01,-2.534899878400000084e+00,1.595211747949999981e-01,-9.477631396119999607e+00,7.768186274919999801e-03,1.706892158839999965e-03,8.341738954189999167e-03,1.000000000000000000e+00
5.803003629999999857e-01,-2.475454586740000185e+00,1.594970997990000083e-01,-9.478928450199999745e+00,1.031570136550000009e-02,3.336691297589999654e-04,-2.404799219219999791e-03,1.000000000000000000e+00
5.851323059999999909e-01,-2.540347914669999874e+00,1.514111801700000204e-01,-9.462555992069999533e+00,-1.841992838310000172e-03,-6.047623697669999264e-03,5.860879085960000665e-03,1.000000000000000000e+00
5.900733169999999861e-01,-2.477045655319999984e+00,1.908550186809999938e-01,-9.423490640610001634e+00,1.538633089510000121e-02,7.162249647079999698e-03,2.973654074590000029e-03,1.000000000000000000e+00
5.952919749999999732e-01,-2.523383335859999743e+00,1.883720610249999816e-01,-9.458808037709999894e+00,1.146156433970000124e-02,1.683435589079999850e-02,-5.028569139540000309e-03,1.000000000000000000e+00
6.001369589999999699e-01,-2.545406074840000255e+00,1.836352234949999995e-01,-9.451928799590000096e+00,2.150734700259999965e-02,3.348107915369999757e-03,3.656666493040000143e-03,1.000000000000000000e+00
6.053247449999999974e-01,-2.500435006480000055e+00,1.655574227519999997e-01,-9.465853864570000553e+00,-4.518202040340000246e-03,2.040200401099999828e-03,5.715093575419999926e-03,1.000000000000000000e+00
6.101478959999999674e-01,-2.504667821740000466e+00,1.462651316520000022e-01,-9.508931958789998973e+00,-7.061379961670000149e-03,6.650658324360000061e-03,-6.149302236739999719e-03,1.000000000000000000e+00
6.150926979999999933e-01,-2.498526542510000059e+00,1.354931421440000172e-01,-9.499336447450000165e+00,1.217991299929999972e-02,9.300112724299999453e-03,1.327772624790000077e-04,1.000000000000000000e+00
6.201281979999999638e-01,-2.534182962300000064e+00,8.672921170040000238e-02,-9.507875727740000116e+00,7.450310979040000031e-03,5.138717591760000487e-03,1.320094522089999833e-02,1.000000000000000000e+00
6.253339540000000252e-01,-2.497116091190000109e+00,1.404558151860000048e-01,-9.481098195450000432e+00,-6.860495079310000716e-03,2.127311751250000188e-02,1.212189439679999849e-02,1.000000000000000000e+00
6.302717460000000216e-01,-2.452358373309999617e+00,1.501334609849999946e-01,-9.455419564319999637e+00,8.368842303750000447e-03,6.565517745909999446e-03,-3.123184200380000556e-03,1.000000000000000000e+00
6.353491799999999579e-01,-2.532073130540000161e+00,1.059527758119999941e-01,-9.483149282759999465e+00,1.622365042570000221e-02,1.201901026070000163e-02,1.211410854010000135e-02,1.000000000000000000e+00
6.404102139999999777e-01,-2.495546065390000123e+00,1.513584362030000185e-01,-9.465185756049999455e+00,2.233269158750000091e-03,1.692436635489999886e-03,1.803289400409999882e-03,1.000000000000000000e+00
6.452659160000000504e-01,-2.543111826420000110e+00,1.550079168880000025e-01,-9.461251339209999500e+00,-1.336742658170000236e-02,4.299309104680000201e-03,9.069451130930000424e-03,1.000000000000000000e+00
6.501464030000000394e-01,-2.502739776289999885e+00,1.296357761509999984e-01,-9.500838668710001045e+00,1.513791969049999974e-03,3.101637586949999859e-03,2.807290526110000229e-03,1.000000000000000000e+00
6.553016579999999536e-01,-2.506596451709999673e+00,1.477651061520000031e-01,-9.463122393780000863e+00,3.943314310159999961e-03,8.073796518149999740e-03,4.205076955259999874e-03,1.000000000000000000e+00
6.603426650000000508e-01,-2.513252694729999792e+00,1.536752617780000052e-01,-9.472361346769998747e+00,3.012615023179999758e-03,5.822300910949999332e-03,2.931442344559999705e-03,1.000000000000000000e+00
6.652856150000000524e-01,-2.522820441279999937e+00,9.498141867369999658e-02,-9.517411617849999672e+00,1.180116087199999976e-02,-2.670023124669999685e-03,9.039436466990000141e-03,1.000000000000000000e+00
6.703721419999999487e-01,-2.522620827059999904e+00,1.476424844199999975e-01,-9.485226089039999309e+00,6.337701925080000721e-04,6.499752402309999684e-03,8.814585395159999989e-03,1.000000000000000000e+00
6.751353639999999601e-01,-2.476127955950000015e+00,1.153782369489999987e-01,-9.481673949510000199e+00,6.045629736039999196e-03,1.489889435470000134e-02,1.024781819429999852e-02,1.000000000000000000e+00
6.802643029999999591e-01,-2.462841188879999699e+00,1.555862282319999956e-01,-9.507136892070001011e+00,5.808583809990001045e-04,3.102601505820000438e-03,7.029395550489999853e-03,1.000000000000000000e+00
6.853091350000000137e-01,-2.517577572200000002e+00,1.581186327870000019e-01,-9.508214165910001014e+00,-6.550179794430000674e-03,-1.215403154489999929e-02,8.557279594240000190e-03,1.000000000000000000e+00
6.901354560000000360e-01,-2.501940442600000036e+00,1.618128111290000060e-01,-9.491682717830000726e+00,-6.610947195439999952e-03,2.124585956339999915e-02,4.607572220270000039e-03,1.000000000000000000e+00
6.951047150000000396e-01,-2.512672264499999919e+00,1.692481852949999921e-01,-9.457148580069999255e+00,-1.416565850379999936e-02,2.096205390990000389e-02,6.238641217350000476e-03,1.000000000000000000e+00
7.001218809999999459e-01,-2.488265845249999941e+00,1.869430328689999921e-01,-9.466192302739999676e+00,-1.838771393519999901e-03,8.079960010950000202e-03,5.318790674209999784e-03,1.000000000000000000e+00
7.051171739999999577e-01,-2.529555302499999936e+00,1.728655720740000235e-01,-9.453457908849999924e+00,9.079499286600000449e-04,1.383411511779999818e-02,1.315371785309999916e-02,1.000000000000000000e+00
7.103765109999999883e-01,-2.511119482100000244e+00,1.346190809889999951e-01,-9.480215567400000154e+00,-1.228229701520000203e-02,1.524769887329999879e-02,4.524152725930000174e-03,1.000000000000000000e+00
7.152857989999999999e-01,-2.511240770390000154e+00,1.248542409630000044e-01,-9.502099482430001132e+00,-1.332938484849999911e-02,1.626691967250000134e-02,4.385544918479999423e-03,1.000000000000000000e+00
7.203568860000000296e-01,-2.479938161890000270e+00,1.796692607400000030e-01,-9.471641800319998694e+00,4.903141874820000044e-03,1.758385263379999910e-02,1.196569576860000150e-02,1.000000000000000000e+00
7.253058730000000454e-01,-2.479687401999999707e+00,1.918827360269999838e-01,-9.443671843380000652e+00,3.757253289219999407e-03,4.754716064779999918e-03,8.574892766770000549e-03,1.000000000000000000e+00
7.301289989999999452e-01,-2.478603990679999924e+00,1.580177114290000073e-01,-9.508981643160000274e+00,-1.334067806600000052e-02,2.291450649499999700e-02,3.651453414929999898e-03,1.000000000000000000e+00
7.351063519999999629e-01,-2.474125968480000104e+00,2.164501545180000097e-01,-9.488204228060000744e+00,-6.723933853209999693e-03,1.492877025160000261e-03,1.223399536679999934e-03,1.000000000000000000e+00
7.400641620000000254e-01,-2.496712186559999935e+00,1.521155929799999917e-01,-9.500796583130000528e+00,4.952798597510000254e-03,-1.324934884909999928e-03,9.154620580379999734e-03,1.000000000000000000e+00
7.452915430000000008e-01,-2.443461219500000059e+00,1.578193575790000081e-01,-9.520518351689998937e+00,-1.237922580910000032e-03,7.583012338730000298e-04,3.244357649240000425e-04,1.000000000000000000e+00
7.501193779999999478e-01,-2.457694765899999911e+00,1.926250057610000010e-01,-9.484967145840000668e+00,1.065465062860000006e-02,1.484057307240000019e-02,-1.519726938570000038e-03,1.000000000000000000e+00
7.551078230000000113e-01,-2.530259066850000238e+00,1.520159137309999853e-01,-9.522725506349999591e+00,2.988118305800000277e-02,2.888817340140000054e-03,1.067405100910000064e-02,1.000000000000000000e+00
7.601214020000000016e-01,-2.457040685910000022e+00,1.485956204259999969e-01,-9.493717438530000052e+00,-1.688302028920000107e-03,-5.273413844409999404e-04,1.888175029309999923e-04,1.000000000000000000e+00
7.650547290000000444e-01,-2.479610829629999902e+00,1.567629621280000052e-01,-9.501670443360000107e+00,1.313667651270000042e-02,5.491784773770000752e-03,1.408028509470000099e-02,1.000000000000000000e+00
7.700980729999999941e-01,-2.404080664609999918e+00,1.960440569570000013e-01,-9.492813183160000889e+00,-3.585436381400000129e-03,-1.060919743029999952e-02,-3.493609838189999997e-03,1.000000000000000000e+00
7.752807969999999660e-01,-2.461016311540000334e+00,1.805445092040000032e-01,-9.503010752050000676e+00,1.396467816079999952e-02,-9.520389139650001394e-04,4.988159053029999918e-04,1.000000000000000000e+00
7.803047330000000281e-01,-2.500535251979999707e+00,1.604893074410000120e-01,-9.502721998239998413e+00,9.494852274659999411e-03,-1.750013977290000231e-02,1.294438960029999910e-03,1.000000000000000000e+00
7.851142979999999882e-01,-2.509955406750000062e+00,1.455101576989999979e-01,-9.448791086089999069e+00,5.290743894879999625e-03,8.200536482039999520e-03,4.406598396600000522e-03,1.000000000000000000e+00
7.901053519999999830e-01,-2.512748252340000210e+00,1.550824068960000024e-01,-9.446199900549999029e+00,2.107866667209999656e-02,7.797178812329999369e-03,4.145568236710000208e-03,1.000000000000000000e+00
7.953070949999999639e-01,-2.537633395009999848e+00,1.670265271899999959e-01,-9.445907055079999282e+00,1.020082738250000128e-02,4.657636862250000287e-03,9.960150346160000917e-03,1.000000000000000000e+00
8.001301699999999739e-01,-2.492751758499999859e+00,1.797529935000000134e-01,-9.474347552150000240e+00,1.670033298430000090e-02,-1.522726379329999991e-02,8.815945126120000239e-03,1.000000000000000000e+00
8.052603430000000451e-01,-2.488598730470000131e+00,1.704272207449999688e-01,-9.458350357069999603e+00,1.971388608220000019e-02,-4.655282944439999467e-03,-1.820960547779999902e-03,1.000000000000000000e+00
8.102893119999999838e-01,-2.491037355790000074e+00,1.640940356679999879e-01,-9.489099715600000096e+00,1.797427609559999750e-02,-4.045783542100000151e-03,5.771615542470000249e-03,1.000000000000000000e+00
8.151857099999999523e-01,-2.512683954929999963e+00,1.263955338550000196e-01,-9.464889403449999961e+00,-2.837499487209999504e-04,7.171526551250000624e-03,2.163904020559999797e-03,1.000000000000000000e+00
8.200526150000000403e-01,-2.478930153890000376e+00,1.287111629869999996e-01,-9.464273901900000396e+00,2.355699986219999750e-02,-1.209040638060000138e-04,-8.873101323839999513e-03,1.000000000000000000e+00
8.250145370000000478e-01,-2.553737849859999631e+00,1.144284893429999977e-01,-9.465356436439998689e+00,1.486594509329999987e-02,-8.913390338420000558e-03,1.811343803999999891e-02,1.000000000000000000e+00
8.302571279999999554e-01,-2.487052962329999950e+00,1.347497216319999969e-01,-9.459164596060000818e+00,3.357292851429999423e-03,8.354566991329999762e-03,4.564902745190000007e-03,1.000000000000000000e+00
8.352953279999999481e-01,-2.502976507649999682e+00,1.372316198419999966e-01,-9.447255547080001037e+00,1.751728542150000206e-02,4.975177347660000512e-03,-8.277005981649999608e-04,1.000000000000000000e+00
8.403331259999999858e-01,-2.509652916679999901e+00,1.429239497320000107e-01,-9.469293191369999363e+00,-3.607814665879999997e-03,2.154559828340000226e-03,6.349465809760000690e-03,1.000000000000000000e+00
8.452833109999999817e-01,-2.479202541090000267e+00,1.196101114980000074e-01,-9.424282083250000497e+00,5.392604973170000808e-03,4.679721780120000250e-03,-1.432707998899999946e-02,1.000000000000000000e+00
8.501061500000000049e-01,-2.512755851130000107e+00,1.193727864780000092e-01,-9.442801490280000820e+00,-8.116624318060001314e-03,1.057467609639999896e-02,-6.944421678779999323e-03,1.000000000000000000e+00
8.552817270000000471e-01,-2.520379770129999919e+00,9.659721070679999633e-02,-9.469607079619999368e+00,-2.972276182849999723e-03,9.129302576180000142e-03,-3.830266417940000022e-03,1.000000000000000000e+00
8.603351599999999877e-01,-2.507447807849999766e+00,1.285724395020000077e-01,-9.475357021449999806e+00,-5.082975258119999950e-05,-3.014518879349999928e-04,5.756120197470000407e-03,1.000000000000000000e+00
8.651723599999999736e-01,-2.519315063509999675e+00,1.478224258299999927e-01,-9.460458143000000319e+00,1.835912652309999726e-02,1.033636741339999908e-03,8.762359619140000500e-03,1.000000000000000000e+00
8.702880689999999975e-01,-2.485690734069999852e+00,1.703985426400000114e-01,-9.459682482459999875e+00,-1.271846052260000061e-02,1.774427853520000112e-02,-9.180130437019999937e-04,1.000000000000000000e+00
8.751272399999999729e-01,-2.517254039330000026e+00,1.549895775129999931e-01,-9.461391039939998748e+00,-6.106938701120000722e-03,1.565450243650000003e-02,-4.394979216159999869e-03,1.000000000000000000e+00
8.802892669999999864e-01,-2.487592183779999910e+00,1.762800018939999769e-01,-9.456882038080001607e+00,1.396126300100000196e-02,9.300235658879999617e-03,-2.420202363279999928e-04,1.000000000000000000e+00
8.853044389999999986e-01,-2.494794077979999969e+00,1.628691517820000101e-01,-9.492703877569999449e+00,3.639275208119999942e-03,5.428166128699999336e-03,9.861832484599999948e-03,1.000000000000000000e+00
8.900898560000000126e-01,-2.447916883730000048e+00,1.392285840789999896e-01,-9.478034131710000310e+00,-2.300773281600000143e-03,2.046898566190000213e-02,-7.157715968789999869e-03,1.000000000000000000e+00
8.953029279999999979e-01,-2.464927347500000199e+00,1.349382847400000252e-01,-9.548127074110000834e+00,1.031043007970000027e-03,1.886332593860000004e-02,8.323278743769999509e-04,1.000000000000000000e+00
9.000822499999999726e-01,-2.403979396200000007e+00,1.195120396850000016e-01,-9.539938506950001340e+00,4.563939757649999526e-03,1.069110911339999845e-02,-1.748770661649999905e-02,1.000000000000000000e+00
9.053081360000000410e-01,-2.432313510279999758e+00,1.124216612989999975e-01,-9.526164833150000177e+00,1.562801562249999804e-02,2.376783825460000027e-02,-1.102593541149999960e-02,1.000000000000000000e+00
9.103616989999999687e-01,-2.531868840140000465e+00,1.352971172480000039e-01,-9.517540797189999680e+00,2.841158420780000348e-04,1.885837130249999952e-02,1.772209815679999870e-02,1.000000000000000000e+00
9.152691429999999517e-01,-2.435754444509999672e+00,1.118055478280000070e-01,-9.481681548300000983e+00,5.132693797350000066e-03,-5.728797055779999425e-03,-8.517133537679999564e-04,1.000000000000000000e+00
9.203329070000000334e-01,-2.488098379729999809e+00,1.369174849919999881e-01,-9.469701187649999241e+00,6.465541198850000698e-03,2.061337605119999833e-02,3.219558624549999793e-03,1.000000000000000000e+00
9.253140869999999518e-01,-2.499437227609999645e+00,1.343095218500000021e-01,-9.502626136649999111e+00,1.394039019940000040e-02,2.922798041250000266e-03,5.070569925009999618e-03,1.000000000000000000e+00
9.302152599999999882e-01,-2.485460724709999791e+00,1.358267397460000137e-01,-9.466713696270000256e+00,7.768821436909999038e-03,-7.414734456689999267e-03,-2.582287648690000104e-03,1.000000000000000000e+00
9.351252549999999886e-01,-2.449410337159999784e+00,1.342292322880000166e-01,-9.501008764579999877e+00,1.614529639479999820e-02,-3.527413122360000246e-03,-1.281578186900000048e-02,1.000000000000000000e+00
9.403111659999999761e-01,-2.463961425079999934e+00,1.620258876250000035e-01,-9.438805698650000409e+00,1.857548952099999850e-03,3.383169416339999909e-03,-1.282935612829999876e-03,1.000000000000000000e+00
9.452641120000000452e-01,-2.463892159240000268e+00,1.343151661389999918e-01,-9.483640865669999087e+00,2.048455365000000084e-02,-6.921535357829999499e-03,5.042547360060000566e-03,1.000000000000000000e+00
9.501049010000000017e-01,-2.459513213499999740e+00,1.225533892750000076e-01,-9.479203760009999868e+00,3.098535351460000170e-02,8.012454025450000197e-03,-4.373561590909999519e-03,1.000000000000000000e+00
9.553437759999999779e-01,-2.514296066310000022e+00,1.168163982599999956e-01,-9.465304998510001511e+00,4.891182295979999185e-03,-6.807381287220000757e-03,1.301094191150000160e-03,1.000000000000000000e+00
9.603269100000000336e-01,-2.512621995609999992e+00,1.310566757999999943e-01,-9.470116198189998613e+00,2.347067557279999828e-02,-2.620630199090000223e-03,5.012690089640000485e-03,1.000000000000000000e+00
9.651113470000000083e-01,-2.498272567740000394e+00,2.132110995310000090e-01,-9.460046639590000694e+00,2.831871062519999982e-02,-1.078542973849999989e-02,2.707627369090000093e-03,1.000000000000000000e+00
9.701221749999999755e-01,-2.533549048309999829e+00,1.969050942330000109e-01,-9.438350940610000350e+00,2.605261839929999892e-02,-9.367895312610001468e-03,-4.286503419280000143e-03,1.000000000000000000e+00
9.750964989999999499e-01,-2.551432203259999643e+00,1.965645919660000129e-01,-9.464340537400000031e+00,1.490578334779999944e-02,-1.640965789559999805e-02,1.427079830320000103e-02,1.000000000000000000e+00
9.803030160000000270e-01,-2.504208679800000059e+00,1.396240314030000040e-01,-9.429341120210001037e+00,1.844311319290000209e-02,-1.438572444020000049e-02,2.968660928309999752e-02,1.000000000000000000e+00
9.852839850000000288e-01,-2.441611792240000245e+00,1.476344381109999937e-01,-9.479715801180001122e+00,-1.087633706629999829e-02,5.594318732620000290e-03,-3.904473735020000044e-03,1.000000000000000000e+00
9.903417429999999966e-01,-2.494981709509999757e+00,1.391598570910000110e-01,-9.496385196429999453e+00,1.130657456819999900e-02,-5.176755599680000867e-03,-9.767470881339999564e-03,1.000000000000000000e+00
9.952579320000000118e-01,-2.502907534070000217e+00,1.679327005160000108e-01,-9.464784189510000445e+00,8.019104599949998524e-03,-3.602971090000000026e-03,-4.597665742039999670e-03,1.000000000000000000e+00
1.000288623999999960e+00,-2.471265318349999962e+00,1.427370671240000000e-01,-9.482971588110000738e+00,4.883127985520000207e-05,-4.888707306239999453e-03,-7.253241725270000856e-03,1.000000000000000000e+00
1.005121573000000046e+00,-2.474757252120000306e+00,1.095185054699999994e-01,-9.467594570760001105e+00,1.703825406729999811e-02,-1.331112231130000085e-03,-1.669696532189999996e-03,1.000000000000000000e+00
1.010363187000000051e+00,-2.450605976679999909e+00,3.758457256049999723e-02,-9.523768293399999862e+00,9.997012093659999460e-03,3.326523117720000047e-03,2.520182402800000103e-03,1.000000000000000000e+00
1.015248448999999997e+00,-2.453023266959999837e+00,6.640447228050000428e-02,-9.499610003700000860e+00,4.688743967560000427e-03,-1.083374954760000077e-04,-9.373333305119999764e-04,1.000000000000000000e+00
1.020254148000000027e+00,-2.504216570840000156e+00,1.035866312030000042e-01,-9.479692420310000145e+00,2.102267555890000028e-02,-6.432915106419999753e-04,2.519642235710000018e-03,1.000000000000000000e+00
1.025299280000000035e+00,-2.453169397429999954e+00,1.163107502930000037e-01,-9.492550732839999839e+00,2.075093239550000052e-02,-1.074346993119999934e-02,1.541936490679999758e-02,1.000000000000000000e+00
1.030350215999999985e+00,-2.420677579149999925e+00,5.491489995430000326e-02,-9.569013210269998737e+00,2.716877683999999876e-02,-6.403475534169999518e-03,2.151170372959999855e-02,1.000000000000000000e+00
1.035109123000000020e+00,-2.376772532579999986e+00,1.073534911889999915e-01,-9.545205049179999790e+00,3.992741182449999898e-02,-2.777431532740000028e-02,2.032295055690000116e-02,1.000000000000000000e+00
1.040299214000000028e+00,-2.397538695620000215e+00,1.386346550399999988e-01,-9.511522559810000388e+00,4.500179365280000676e-02,-3.503090888259999952e-02,2.087623812259999795e-02,1.000000000000000000e+00
1.045269231000000021e+00,-2.528510761879999791e+00,1.679522271999999983e-01,-9.472435581050000053e+00,5.199276655910000516e-02,-5.515758693219999925e-02,2.689304389059999842e-02,1.000000000000000000e+00
1.050126501999999906e+00,-2.529935533990000263e+00,2.267825105000000063e-01,-9.418546754470000337e+00,5.218025669459999683e-02,-5.702177435159999641e-02,2.260486595329999973e-02,1.000000000000000000e+00
1.055295987000000046e+00,-2.514004974409999704e+00,1.979457806590000091e-01,-9.444602402230000138e+00,3.608496487140000486e-02,-4.236275702709999674e-02,1.052813511340000042e-02,1.000000000000000000e+00
1.060272448000000090e+00,-2.516546475579999775e+00,1.275978405829999995e-01,-9.450969014650000943e+00,4.113871604199999948e-02,-3.912770748140000088e-02,1.562966965139999873e-02,1.000000000000000000e+00
1.065116251000000069e+00,-2.476313833909999929e+00,-8.877540364049999301e-04,-9.440559848839999546e+00,4.053426161409999506e-02,-4.560516774650000271e-02,1.564816571769999873e-02,1.000000000000000000e+00
1.070348019999999956e+00,-2.481996555729999887e+00,-1.160923035029999897e-02,-9.443950075800000121e+00,3.937705978749999475e-02,-3.828711807730000166e-02,1.663986593480000151e-02,1.000000000000000000e+00
1.075321991000000033e+00,-2.511171212279999843e+00,1.333832555839999934e-01,-9.459272148089999277e+00,3.485622629519999349e-02,-4.338976740840000401e-02,3.185389563440000488e-02,1.000000000000000000e+00
1.080302711999999943e+00,-2.592851424370000046e+00,2.664105556029999766e-01,-9.395792486350000416e+00,3.619613498450000022e-02,-4.260393977169999596e-02,2.584113925700000022e-02,1.000000000000000000e+00
1.085303029000000086e+00,-2.613705119559999623e+00,2.295157348559999921e-01,-9.410178154580000509e+00,4.366898909209999957e-02,-4.518049955369999454e-02,1.549236569549999887e-02,1.000000000000000000e+00
1.090366788000000087e+00,-2.604881177120000224e+00,1.962192856599999924e-01,-9.399850237309999912e+00,3.671685233709999496e-02,-4.975552111859999488e-02,1.197803579270000085e-02,1.000000000000000000e+00
1.095105975999999925e+00,-2.580765265250000162e+00,1.173943899440000049e-01,-9.425153605389999356e+00,2.508298680190000282e-02,-1.763599365949999886e-02,1.012140698729999989e-02,1.000000000000000000e+00
1.100037547999999976e+00,-2.583029703050000236e+00,1.172877694980000024e-01,-9.431535999899999467e+00,2.138092555110000098e-02,-1.812646165489999878e-02,1.673116348679999990e-02,1.000000000000000000e+00
1.105092256000000051e+00,-2.502600660079999706e+00,1.590437665409999979e-01,-9.395222577510001116e+00,2.594823576510000077e-02,-3.044172190130000136e-02,9.569817222650000427e-03,1.000000000000000000e+00
1.110092813000000067e+00,-2.527010586450000318e+00,1.657924736159999968e-01,-9.436109299169999076e+00,1.833999529480000168e-02,-1.014779042449999967e-02,1.973338797689999993e-02,1.000000000000000000e+00
1.115090460000000006e+00,-2.492063191709999792e+00,1.646203976299999983e-01,-9.450454635379999857e+00,8.073256351050000709e-03,-1.024520769720000182e-02,-8.084542118010001194e-03,1.000000000000000000e+00
1.120297593999999952e+00,-2.584158414820000083e+00,1.399189044299999907e-01,-9.425884842269999453e+00,1.325698662550000087e-02,-4.291656427090000114e-03,1.733702840280000037e-03,1.000000000000000000e+00
1.125272861000000013e+00,-2.555379771850000203e+00,1.304865568949999943e-01,-9.425184585049999342e+00,-1.167870126660000086e-03,-5.060354247690000001e-03,-1.417757291350000073e-02,1.000000000000000000e+00
1.130101194999999947e+00,-2.519696464049999918e+00,8.135804918920000461e-02,-9.438725619150000412e+00,-1.591378590089999713e-03,1.019222196189999846e-02,-1.393276359889999982e-02,1.000000000000000000e+00
1.135289916000000066e+00,-2.547545717220000228e+00,9.214013996639998372e-02,-9.435987718610000741e+00,-5.298868753020000502e-03,-2.114148344840000027e-03,-7.004133425649999682e-03,1.000000000000000000e+00
1.140278982000000108e+00,-2.535532623340000402e+00,7.101132675519999937e-02,-9.406953347310000879e+00,-7.607695180920000591e-03,1.300599239770000061e-02,-1.060261111710000120e-02,1.000000000000000000e+00
1.145160155999999985e+00,-2.522885030949999940e+00,1.101926510050000030e-01,-9.411112220560001518e+00,-7.741516921670000238e-03,7.704178802670000673e-03,-1.545302569869999934e-02,1.000000000000000000e+00
1.150276998000000050e+00,-2.566975517090000380e+00,1.365134159689999904e-01,-9.402335039860000521e+00,-6.822269409890000143e-03,1.987054478380000360e-03,-8.576129563149998900e-03,1.000000000000000000e+00
1.155262296999999938e+00,-2.579588622690000221e+00,1.342253232979999933e-01,-9.407198846500000045e+00,-2.230495586990000056e-02,1.221449486909999965e-02,-1.420516707000000003e-02,1.000000000000000000e+00
1.160290947000000017e+00,-2.562095636100000018e+00,1.851432169049999910e-01,-9.422672309970000271e+00,-2.098251879219999866e-02,1.323534734549999987e-02,-1.493489090349999979e-02,1.000000000000000000e+00
1.165208583999999936e+00,-2.512080143820000000e+00,1.324443672989999987e-01,-9.451803711910001127e+00,-5.033209919930000525e-03,8.732382208110001792e-03,-2.577655017380000094e-02,1.000000000000000000e+00
1.170336945000000073e+00,-2.570958741510000145e+00,1.443998766359999852e-01,-9.440281616420000077e+00,-1.315907202659999907e-02,2.074634097519999915e-02,-9.953032713380001451e-04,1.000000000000000000e+00
1.175293168000000055e+00,-2.530217565800000123e+00,1.396711219479999933e-01,-9.443368476519999888e+00,-2.189329080279999937e-02,3.060195036229999832e-02,-4.959379322829999583e-03,1.000000000000000000e+00
1.180310283999999932e+00,-2.560154146639999961e+00,1.711448492289999734e-01,-9.394850821580000400e+00,-2.164085768159999812e-02,1.197481900450000046e-02,-1.163580454889999970e-02,1.000000000000000000e+00
1.185108290000000064e+00,-2.586425190709999988e+00,1.751565690879999804e-01,-9.348046400310000337e+00,-3.097525611520000194e-02,2.409966848790000282e-02,-1.030893251299999994e-02,1.000000000000000000e+00
1.190344966000000060e+00,-2.551925539740000026e+00,8.337041192489999530e-02,-9.365619466400000093e+00,-3.153103962539999944e-02,3.626978397370000246e-02,-2.063826099040000361e-02,1.000000000000000000e+00
1.195251754999999916e+00,-2.529453887949999924e+00,3.266281148430000281e-02,-9.431143785719999784e+00,-7.283665705470000057e-03,4.414140433069999037e-02,-1.669593900440000112e-02,1.000000000000000000e+00
1.200096183999999955e+00,-2.446798839489999988e+00,3.942978715190000039e-02,-9.454063473530000650e+00,-2.373149991040000156e-02,5.065225809809999202e-02,-3.046951629219999888e-02,1.000000000000000000e+00
1.205270728999999985e+00,-2.540758249040000027e+00,1.535376251390000168e-01,-9.479994033600000591e+00,-3.276703134180000004e-02,3.280512988570000177e-02,-1.618664152920000140e-02,1.000000000000000000e+00
1.210280980000000062e+00,-2.465274261249999821e+00,1.965266711089999896e-01,-9.463414654719999319e+00,-2.034955285490000140e-02,5.166493356230000139e-02,-4.365654662250000040e-02,1.000000000000000000e+00
1.215298709000000033e+00,-2.465212009660000092e+00,1.850267143859999908e-01,-9.520641101289999852e+00,-3.442955017089999875e-02,3.943837434050000146e-02,-2.864372916519999923e-02,1.000000000000000000e+00
1.220276004000000025e+00,-2.482370941999999747e+00,2.387292428760000029e-01,-9.512987956189999039e+00,-1.872550323609999817e-02,2.894567139450000132e-02,-2.029195800420000029e-02,1.000000000000000000e+00
1.225271930999999981e+00,-2.522763158140000073e+00,2.546472352370000025e-01,-9.476208085319999697e+00,1.461398787799999860e-04,2.155304141340000021e-02,-1.068466994910000079e-02,1.000000000000000000e+00
1.230053339999999995e+00,-2.452130702029999831e+00,3.021265783629999979e-01,-9.476182950880000178e+00,-3.302481956780000619e-03,1.724550686779999925e-02,-2.266772091390000313e-02,1.000000000000000000e+00
1.235049615999999961e+00,-2.545112352589999904e+00,4.067664814779999860e-01,-9.491654076259999684e+00,2.453060820699999676e-03,-4.287141375239999184e-03,-1.048779347909999972e-03,1.000000000000000000e+00
1.240241362999999986e+00,-2.467439330319999957e+00,4.839248687539999816e-01,-9.501190550889999642e+00,7.225831504910000362e-03,2.673052623870000172e-02,-8.034119382499999712e-03,1.000000000000000000e+00
1.245090719000000012e+00,-2.441004181729999889e+00,5.717164398560000693e-01,-9.509120174839999606e+00,1.979116536679999955e-02,6.659663282330000218e-03,-5.219189450140000741e-03,1.000000000000000000e+00
1.250050408999999974e+00,-2.464523150620000269e+00,6.733900405110000431e-01,-9.447560082989999941e+00,3.330750018359999315e-02,-8.488419465720001278e-03,5.018424242729999790e-03,1.000000000000000000e+00
1.255151474000000045e+00,-2.530449620990000259e+00,7.565583722589999116e-01,-9.488974627919999350e+00,4.450360685589999782e-02,-1.154159568250000094e-02,1.167269516739999867e-02,1.000000000000000000e+00
1.260194027999999911e+00,-2.420486002100000089e+00,7.726775862809999174e-01,-9.519890575179999814e+00,5.847866460680000572e-02,-3.199066221709999380e-02,1.686315517869999947e-04,1.000000000000000000e+00
1.265116394999999949e+00,-2.416268384409999914e+00,7.603573992159999850e-01,-9.554243511160001034e+00,6.516408920289999684e-02,-2.097322791809999934e-02,4.665737971660000385e-03,1.000000000000000000e+00
1.270082484000000012e+00,-2.484621935790000347e+00,5.987864888170000288e-01,-9.575013911989998405e+00,6.235780566930000657e-02,-4.072101414200000186e-02,-1.041923649610000148e-02,1.000000000000000000e+00
1.275309926999999899e+00,-2.428801995020000160e+00,3.146111256760000252e-01,-9.536548279989998989e+00,9.571424871680001001e-02,-2.542088367039999769e-02,-2.330836653709999692e-02,1.000000000000000000e+00
1.280274023000000039e+00,-2.492840021300000153e+00,6.639085931369999305e-02,-9.510757420660000960e+00,1.204952448609999949e-01,-3.254432231189999941e-02,-2.690906263889999983e-02,1.000000000000000000e+00
1.285106145000000089e+00,-2.548305011150000077e+00,-9.131285882940000376e-02,-9.479138293560000150e+00,1.314805895089999899e-01,-2.458354271950000114e-02,-3.459192439909999917e-02,1.000000000000000000e+00
1.290345059000000072e+00,-2.525676415239999972e+00,-2.031681184169999987e-01,-9.456413836050000299e+00,1.238119900230000014e-01,-2.964593097570000085e-02,-1.993303373459999819e-02,1.000000000000000000e+00
1.295269041999999926e+00,-2.547562083829999935e+00,-2.392198028720000091e-01,-9.389733916960000926e+00,7.295538485050000188e-02,3.623880445959999728e-03,-2.907260693610000044e-02,1.000000000000000000e+00
1.300176301000000034e+00,-2.662936183459999828e+00,-2.020663129220000021e-01,-9.380063586819998633e+00,8.664264529939999515e-02,1.745605841279999773e-03,-7.133981212969999451e-03,1.000000000000000000e+00
1.305284348000000039e+00,-2.526846920320000134e+00,-1.502331584999999914e-01,-9.396516124450000618e+00,7.410119473930000533e-02,1.421828940510000069e-02,-2.929493552070000419e-03,1.000000000000000000e+00
1.310281902999999915e+00,-2.420895021290000226e+00,-1.592902155829999944e-01,-9.439900508139999147e+00,5.757951736449999636e-02,1.762935332950000059e-02,-2.247585449369999839e-03,1.000000000000000000e+00
1.315273971999999958e+00,-2.338126283320000276e+00,-1.887917112090000127e-01,-9.385532958139998883e+00,5.646613240240000442e-02,1.072034146639999977e-02,-1.038285531099999992e-02,1.000000000000000000e+00
1.320281156999999927e+00,-2.154188350550000131e+00,-3.974081033609999647e-01,-9.216945154719999422e+00,4.279806092380000065e-02,1.827568933369999940e-02,-9.460218250750000030e-03,1.000000000000000000e+00
1.325265192000000036e+00,-1.780361613790000019e+00,-5.374943637150000342e-01,-9.308896877709999629e+00,6.188188120719999991e-02,-6.539848633109999337e-03,-1.314436364920000024e-02,1.000000000000000000e+00
1.330262652000000045e+00,-1.640468720579999928e+00,-3.140317183529999778e-01,-9.551509702280000624e+00,3.559447079900000116e-02,-3.300067037340000120e-02,-2.504182979460000194e-02,1.000000000000000000e+00
1.335222319000000102e+00,-1.716343899650000004e+00,-1.679286453950000202e-01,-9.459212526860001802e+00,-8.813885971900000185e-03,-5.671110004189999776e-02,-2.435533888639999922e-02,1.000000000000000000e+00
1.340035612999999959e+00,-2.340387067859999615e+00,-9.778166211780001116e-02,-9.441834691080000397e+00,-2.572889439760000195e-03,-9.452898800370000687e-02,-1.781873404980000020e-02,1.000000000000000000e+00
1.345812699999999973e+00,-2.505096860809999715e+00,-3.679079411760000085e-01,-9.248896290250000263e+00,-3.242314234379999743e-02,-1.292969286439999976e-01,-1.277260854839999855e-02,1.000000000000000000e+00
1.350067005999999958e+00,-2.186330478609999517e+00,-3.380275109679999890e-01,-9.380891854339999725e+00,-3.605473786590000090e-02,-1.256273537869999901e-01,-1.463548652830000060e-02,1.000000000000000000e+00
1.355041402999999978e+00,-2.148366512529999994e+00,7.124526337519999919e-02,-9.619536944330000949e+00,-3.217647224659999500e-02,-1.194533407689999938e-01,-2.943355822940000362e-03,1.000000000000000000e+00
1.360121512000000088e+00,-2.150513169169999905e+00,1.029189793409999998e-01,-9.657665307189999382e+00,-2.650397643449999702e-02,-1.186368614439999997e-01,2.591088972990000100e-02,1.000000000000000000e+00
1.365131848999999953e+00,-2.128980259540000475e+00,-1.292378446089999799e-01,-9.550531797160001446e+00,-1.823128387329999919e-02,-1.394740939140000080e-01,3.534338250759999633e-02,1.000000000000000000e+00
1.370129868000000029e+00,-2.247930025700000112e+00,-3.240846180730000414e-01,-9.558589431410000614e+00,-2.847357653079999815e-03,-2.008676379919999699e-01,6.243291124699999750e-02,1.000000000000000000e+00
1.375097534000000010e+00,-2.025794464220000091e+00,-9.521194862710001539e-02,-9.552110006260001285e+00,1.782927103340000222e-02,-2.121751457449999878e-01,8.432240039110000529e-02,1.000000000000000000e+00
1.380153310999999938e+00,-1.863454761409999660e+00,-1.564238481000000125e-01,-9.695285136009999860e+00,3.026083111759999764e-02,-2.394126653669999827e-01,9.416284412149998617e-02,1.000000000000000000e+00
1.385299889999999978e+00,-1.853635232050000026e+00,-2.259501330620000137e-01,-9.785800688720000196e+00,1.690516248350000181e-02,-2.641555070880000078e-01,6.357469409699999241e-02,1.000000000000000000e+00
1.390362536000000038e+00,-2.334598839849999941e+00,-3.749741532349999962e-01,-9.717982705510001651e+00,-4.520078189669999615e-03,-2.797661423680000148e-01,7.096125185489998710e-02,1.000000000000000000e+00
1.395345309000000089e+00,-2.556927293549999813e+00,-3.070358681159999770e-01,-9.502066749199999052e+00,-3.582135774199999862e-03,-2.673714756969999828e-01,9.983235597610000400e-02,1.000000000000000000e+00
1.400318310999999927e+00,-2.589933491090000484e+00,-6.701315593050000130e-02,-9.431966208010001296e+00,-2.789525315170000158e-02,-2.863079905510000356e-01,9.949942678210001168e-02,1.000000000000000000e+00
1.405118190999999905e+00,-2.711975231920000340e+00,-1.152483908909999882e-01,-9.417543714909999863e+00,-2.375941537320000116e-02,-2.711932957170000158e-01,1.030143275860000013e-01,1.000000000000000000e+00
1.410042285999999923e+00,-2.895263760870000258e+00,-1.987987807589999822e-01,-9.374435810070000485e+00,-2.378695830699999875e-02,-2.663110196590000034e-01,1.243302747609999898e-01,1.000000000000000000e+00
1.415121658999999976e+00,-2.963500261750000142e+00,-2.483036383639999900e-01,-9.367299382310001477e+00,-3.074815869330000187e-02,-2.360160052780000128e-01,1.244560554620000037e-01,1.000000000000000000e+00
1.420122302000000003e+00,-2.848969042680000285e+00,-1.616580041599999795e-01,-9.345918156110000652e+00,-4.516270011660000055e-02,-2.178750634189999813e-01,1.193593218920000060e-01,1.000000000000000000e+00
1.425133460999999935e+00,-3.028522769020000283e+00,1.260848878699999953e-01,-9.280646934780000024e+00,-7.397166639569999202e-02,-2.118055224419999882e-01,1.338794827459999781e-01,1.000000000000000000e+00
1.430152010000000029e+00,-3.070326021000000072e+00,2.057482345709999993e-01,-9.309297275200000499e+00,-8.213809132579999450e-02,-1.796688288450000170e-01,1.391573995350000037e-01,1.000000000000000000e+00
1.435131571000000106e+00,-3.102259913140000158e+00,7.963685141979999493e-02,-9.324225964260001831e+00,-8.851391077039999500e-02,-1.693319529289999958e-01,1.456196606159999851e-01,1.000000000000000000e+00
1.440359737999999945e+00,-3.002781594040000446e+00,6.499753265859999074e-02,-9.331364145580000269e+00,-8.076495677230000059e-02,-1.440180540079999960e-01,1.444873809810000020e-01,1.000000000000000000e+00
1.445335387999999943e+00,-3.027191812670000370e+00,1.270334938319999940e-01,-9.298086145360000998e+00,-7.365144044160000514e-02,-1.378020495179999860e-01,1.710259616369999847e-01,1.000000000000000000e+00
1.450420859999999923e+00,-2.910449639559999913e+00,-4.048679909130000615e-02,-9.258660728420000652e+00,-8.084212988620000095e-02,-1.351341456169999899e-01,1.580496877429999891e-01,1.000000000000000000e+00
1.455311760000000065e+00,-2.858962905689999889e+00,-1.065381014189999975e-01,-9.297540201910001301e+00,-9.823680669069999316e-02,-1.490502506489999879e-01,1.603580266240000052e-01,1.000000000000000000e+00
1.460119949000000084e+00,-2.938275804119999890e+00,8.800858398639999081e-02,-9.383135833869999942e+00,-1.142871230839999919e-01,-1.499562561510000003e-01,1.735084801909999863e-01,1.000000000000000000e+00
1.465099852999999896e+00,-3.058547612659999526e+00,3.031758316869999637e-01,-9.463604039819999869e+00,-1.273842900989999860e-01,-1.369763165709999841e-01,1.678657531740000153e-01,1.000000000000000000e+00
1.470118385999999999e+00,-3.059325903560000004e+00,4.136662874620000152e-01,-9.493225271100000029e+00,-1.105511635539999926e-01,-1.404906958340000067e-01,1.451452821489999934e-01,1.000000000000000000e+00
1.475268376000000048e+00,-3.016853374009999644e+00,4.458647122880000091e-01,-9.594359832969999502e+00,-1.038316637279999982e-01,-1.228750795130000018e-01,1.337431818250000015e-01,1.000000000000000000e+00
1.480166322000000090e+00,-2.962634584829999973e+00,3.760699856470000046e-01,-9.653488898290000009e+00,-7.814715057609999960e-02,-1.244652494789999925e-01,1.361226886509999956e-01,1.000000000000000000e+00
1.485132706999999996e+00,-2.888492367040000008e+00,3.143365465179999707e-01,-9.630980129360001030e+00,-7.090155780319999657e-02,-1.229325085879999918e-01,1.111668720840000013e-01,1.000000000000000000e+00
1.490120227000000019e+00,-2.850265804490000221e+00,2.720559776120000106e-01,-9.812938286489998774e+00,-3.891829028730000445e-02,-1.223679557440000010e-01,1.039105206729999953e-01,1.000000000000000000e+00
1.495310759000000100e+00,-2.671071266859999849e+00,2.872130686029999991e-01,-9.903541517480000778e+00,-2.592735737559999712e-02,-1.507430970670000092e-01,1.065903007979999984e-01,1.000000000000000000e+00
1.500324191999999890e+00,-2.605288296609999943e+00,1.063370076229999961e-01,-9.895060104860000649e+00,-3.395872190590000506e-02,-1.583838015790000053e-01,9.622295200819999672e-02,1.000000000000000000e+00
1.505267310000000025e+00,-2.572387897530000078e+00,-1.781088247560000115e-01,-9.894309578750000611e+00,-2.679799869659999986e-02,-1.751402020449999986e-01,9.177270531649998897e-02,1.000000000000000000e+00
1.510121067000000039e+00,-2.596667183259999678e+00,-2.218905920059999759e-01,-9.865519537599999111e+00,-3.771336376669999491e-02,-1.928499937060000058e-01,1.024875640870000076e-01,1.000000000000000000e+00
1.515295446000000101e+00,-2.754332318389999923e+00,-1.185035202300000062e-01,-9.803324654969999941e+00,-3.667384758590000460e-02,-2.317393124100000090e-01,1.153246983890000021e-01,1.000000000000000000e+00
1.520339708000000067e+00,-2.661093478199999751e+00,-2.261820603880000113e-01,-9.696885556950000762e+00,-2.969978563490000001e-02,-2.335020601749999702e-01,1.311471760270000175e-01,1.000000000000000000e+00
1.525334140000000005e+00,-2.437508156309999841e+00,-2.030112108229999990e-01,-9.825582664009999689e+00,-4.596900939939999736e-02,-2.633662223820000259e-01,1.319077759979999931e-01,1.000000000000000000e+00
1.530382762999999979e+00,-2.488269352390000133e+00,-1.085366365589999910e-01,-1.004775125100000110e+01,-3.491901233789999892e-02,-2.935282588010000304e-01,1.517952978609999892e-01,1.000000000000000000e+00
1.535290237999999974e+00,-2.284030097609999643e+00,2.595234492709999966e-02,-1.011731753910000009e+01,-2.380124106999999961e-02,-3.410436511039999785e-01,1.406648755069999923e-01,1.000000000000000000e+00
1.540297735000000001e+00,-2.359452418340000079e+00,-7.927729739239998408e-02,-1.006273371600000033e+01,-2.088760584589999941e-02,-3.622260391709999916e-01,1.447058320050000069e-01,1.000000000000000000e+00
1.545305232999999889e+00,-2.463355275880000139e+00,-2.556765417519999972e-01,-1.014222167880000036e+01,-1.811083406210000106e-03,-4.315281212329999949e-01,1.540489941840000043e-01,1.000000000000000000e+00
1.550269984000000045e+00,-2.435346886620000095e+00,-2.128138712409999647e-02,-1.038875430720000104e+01,3.087086416780000092e-02,-4.672383666040000327e-01,1.752133071420000077e-01,1.000000000000000000e+00
1.555120030999999958e+00,-2.082273015029999730e+00,2.928155647850000376e-01,-1.053661613340000081e+01,6.041538342830000269e-02,-5.405234098430000689e-01,1.635713726280000058e-01,1.000000000000000000e+00
1.560291464999999933e+00,-2.014179283620000316e+00,1.707486529850000267e-01,-1.087039566809999869e+01,9.199417382480000460e-02,-5.919891595840000020e-01,1.494461745020000121e-01,1.000000000000000000e+00
1.565177728999999962e+00,-1.783243306699999975e+00,3.581476928430000085e-03,-1.126787055309999985e+01,1.283738166089999910e-01,-6.620528101920000186e-01,1.263086497779999928e-01,1.000000000000000000e+00
1.570136428999999945e+00,-1.855246758899999904e+00,2.601326261110000204e-01,-1.144648290690000003e+01,1.461068838829999994e-01,-7.951572537419999698e-01,1.444066017869999885e-01,1.000000000000000000e+00
1.575327329999999915e+00,-1.772702769600000172e+00,4.940943440580000123e-01,-1.148097320549999978e+01,1.675225645300000010e-01,-9.191478490829999570e-01,1.316881775860000159e-01,1.000000000000000000e+00
1.580165811000000087e+00,-1.791773088509999834e+00,8.130402840679999965e-01,-1.159126430279999909e+01,2.033434808250000059e-01,-1.059855341910000082e+00,1.407957077030000115e-01,0.000000000000000000e+00
1.585088942999999917e+00,-1.829235388679999907e+00,9.927386065050000097e-01,-1.162861875869999828e+01,2.317987084389999952e-01,-1.181902170179999878e+00,1.122912764550000053e-01,0.000000000000000000e+00
1.590118056999999974e+00,-1.772656007849999993e+00,1.387631731369999954e+00,-1.199625146310000012e+01,2.599746286869999978e-01,-1.321893215180000025e+00,1.145859286189999937e-01,0.000000000000000000e+00
1.595249061000000079e+00,-1.556332055259999958e+00,1.412582632749999956e+00,-1.236588557049999970e+01,3.137402236460000160e-01,-1.461405396460000006e+00,6.432013213630000115e-02,0.000000000000000000e+00
1.600154969000000094e+00,-1.496435804959999949e+00,1.548784124099999993e+00,-1.269361764170000129e+01,3.475409150119999624e-01,-1.645495891569999980e+00,4.740091040729999330e-03,0.000000000000000000e+00
1.605105741000000030e+00,-1.799890490119999908e+00,2.222940107479999927e+00,-1.255193304280000000e+01,3.654558360580000276e-01,-1.855737566950000028e+00,-1.872800663109999708e-02,0.000000000000000000e+00
1.610147723000000086e+00,-1.453933172539999985e+00,1.426452168149999977e+00,-1.226863515660000026e+01,3.792175054550000479e-01,-2.054453611370000043e+00,-1.041873171930000064e-01,0.000000000000000000e+00
1.615154535000000058e+00,-1.696310142530000009e+00,1.034427949789999968e+00,-1.227768004829999882e+01,4.533765316009999990e-01,-2.263466835020000012e+00,-1.471186280250000034e-01,0.000000000000000000e+00
1.620035180999999991e+00,-1.718172430250000104e+00,1.089013453389999997e+00,-1.202248831260000017e+01,4.750950932500000445e-01,-2.435814142229999923e+00,-1.807505935429999933e-01,0.000000000000000000e+00
1.625031169000000109e+00,-1.747932193220000041e+00,1.016053284989999916e+00,-1.207518529910000105e+01,5.344603061679999989e-01,-2.618487358090000328e+00,-2.037607580420000009e-01,0.000000000000000000e+00
1.630090700000000004e+00,-1.601165468720000096e+00,4.546019993639999757e-01,-1.190748479990000064e+01,5.384575128559999646e-01,-2.773497819900000216e+00,-2.600582540040000112e-01,0.000000000000000000e+00
1.635058914999999891e+00,-1.771921263829999926e+00,-5.864098953900000188e-02,-1.186583878430000105e+01,5.593454241749999944e-01,-2.913195610049999829e+00,-2.637142241000000054e-01,0.000000000000000000e+00
1.639965439000000025e+00,-1.668888467120000163e+00,-5.284580571589999609e-01,-1.178214810920000133e+01,5.418825149539999719e-01,-3.047106742860000050e+00,-2.186135351660000170e-01,0.000000000000000000e+00
1.644939119000000005e+00,-1.505197203569999864e+00,-1.099042972229999915e+00,-1.193726502109999821e+01,5.217933058739999685e-01,-3.166643142699999913e+00,-1.600755304099999998e-01,0.000000000000000000e+00
1.649903775000000072e+00,-1.301143680620000076e+00,-1.103308374589999863e+00,-1.192025543410000132e+01,4.621537923810000170e-01,-3.333854913709999757e+00,-7.951695472000000486e-02,0.000000000000000000e+00
1.654815256000000012e+00,-1.271413143740000029e+00,-1.126494019869999974e+00,-1.227694588880000026e+01,4.065663814540000365e-01,-3.488629579539999970e+00,-2.603322453799999936e-02,0.000000000000000000e+00
1.659797897000000022e+00,-1.123323573139999976e+00,-1.203472703199999883e+00,-1.244683600699999992e+01,3.442756831650000127e-01,-3.693787097930000485e+00,4.091809689999999916e-02,0.000000000000000000e+00
1.664777565000000070e+00,-6.436356843689999829e-01,-1.819079320850000014e+00,-1.277327511579999886e+01,2.523044943809999996e-01,-3.899631261830000195e+00,6.773420423270000434e-02,0.000000000000000000e+00
1.669899347000000089e+00,-2.165516603970000231e-01,-2.192397085180000094e+00,-1.297032212099999882e+01,1.806429922580000125e-01,-4.140996932980000267e+00,1.259553581479999906e-01,0.000000000000000000e+00
1.675028270999999958e+00,1.025517169310000004e-01,-3.079029259679999964e+00,-1.362030695520000023e+01,6.436077505350000505e-02,-4.376097679139999919e+00,1.427499204869999982e-01,0.000000000000000000e+00
1.680078036000000052e+00,2.179790628519999995e-01,-2.930860559430000123e+00,-1.374017602809999872e+01,-6.292697042230001314e-02,-4.688839435580000270e+00,2.134735882279999997e-01,0.000000000000000000e+00
1.684980463999999900e+00,2.450169448429999897e-01,-2.689175371090000155e+00,-1.417739021829999935e+01,-2.514297068119999978e-01,-5.021213054659999564e+00,2.299465984109999861e-01,0.000000000000000000e+00
1.690103933999999919e+00,1.376810806420000199e-01,-2.183913188340000033e+00,-1.465802152539999881e+01,-4.362312555309999507e-01,-5.401780605319999040e+00,2.818539738659999738e-01,0.000000000000000000e+00
1.695045786000000110e+00,-1.036937959849999924e+00,-2.269702004780000060e+00,-1.492791398660000013e+01,-6.195768713949999507e-01,-5.750974655150000281e+00,3.074399828909999965e-01,0.000000000000000000e+00
1.700097747000000048e+00,-3.048224079309999723e+00,-2.407798808349999931e+00,-1.527953546740000057e+01,-8.391913175579999162e-01,-6.044052124019999361e+00,4.586641192440000236e-01,0.000000000000000000e+00
1.705083612999999998e+00,-4.556016413930000120e+00,-2.904531939950000030e+00,-1.640616049319999803e+01,-9.824834465979999099e-01,-6.380031585690000284e+00,4.560660421850000201e-01,0.000000000000000000e+00
1.710268595999999919e+00,-6.179014798150000765e+00,-2.819694140620000233e+00,-1.644448174829999942e+01,-1.097048878670000116e+00,-6.684247970580001308e+00,5.275176763530000645e-01,0.000000000000000000e+00
1.715288836999999900e+00,-1.101614386319999994e+01,-2.644445418000000103e+00,-1.776127746380000261e+01,-1.161305785179999939e+00,-6.780232429500000713e+00,5.491289496419999860e-01,0.000000000000000000e+00
1.720171936999999929e+00,-1.181475624730000007e+01,-1.908147158960000089e+00,-1.706206770320000032e+01,-1.176244139670000077e+00,-6.846539497380000228e+00,4.916752576829999666e-01,0.000000000000000000e+00
1.725083383000000081e+00,-1.273432608420000101e+01,-2.255645568509999865e+00,-1.631438120420000004e+01,-1.150167703629999982e+00,-6.750141143799999632e+00,4.851220250130000022e-01,0.000000000000000000e+00
1.730341850000000070e+00,-1.358652977319999877e+01,-1.717672225640000105e+00,-1.714853368829999880e+01,-1.131781697270000109e+00,-6.540243148800000128e+00,5.016878247259999313e-01,0.000000000000000000e+00
1.735146496999999899e+00,-1.463853473460000032e+01,-1.912109925109999775e+00,-1.694849042390000093e+01,-1.235450506210000077e+00,-6.173661231989999720e+00,6.894232630730000588e-01,0.000000000000000000e+00
1.740078647000000034e+00,-1.323522510329999946e+01,-3.986026322950000367e+00,-1.596256800019999922e+01,-1.393300652500000014e+00,-5.741895198819999990e+00,9.324278831479999585e-01,0.000000000000000000e+00
1.745079115000000014e+00,-1.320154261390000094e+01,-5.124102424870000227e+00,-1.687153928609999909e+01,-1.606263160710000193e+00,-5.248631000519999645e+00,1.159826397900000083e+00,0.000000000000000000e+00
1.750089712000000075e+00,-1.893420129949999975e+01,-4.588350995829999945e+00,-2.022190185350000036e+01,-1.856029272080000014e+00,-4.803595066069999753e+00,1.108482599260000034e+00,0.000000000000000000e+00
1.755287687000000041e+00,-1.816574556870000023e+01,-5.896252334010000595e+00,-1.749318649910000190e+01,-1.956317067150000089e+00,-4.145756721499999742e+00,1.036598205570000042e+00,0.000000000000000000e+00
1.760245438999999967e+00,-9.565842763539999183e+00,-3.955271119200000296e+00,-1.753337237910000113e+01,-1.978423476220000143e+00,-3.589730501170000032e+00,9.479581713680000910e-01,0.000000000000000000e+00
1.765090046999999940e+00,-1.594427246510000007e+00,-2.754924548669999695e-01,-1.824067893690000020e+01,-2.035050630570000241e+00,-3.054958581920000249e+00,8.913131356239999414e-01,0.000000000000000000e+00
1.770093235999999903e+00,-5.464299498429999735e-01,-1.151553203929999825e+00,-1.487544613270000049e+01,-2.205459833149999938e+00,-2.638568401340000147e+00,7.913702130320000583e-01,0.000000000000000000e+00
1.775071588000000089e+00,1.024845882449999968e+00,-4.112176083609999644e+00,-1.039292662440000115e+01,-2.161093711849999988e+00,-1.929247975350000033e+00,8.094082474709999309e-01,0.000000000000000000e+00
1.779964306000000107e+00,7.921221453320000272e+00,-6.673787443320000179e+00,-8.819529890960000174e+00,-1.749098777770000002e+00,-1.007220506670000182e+00,1.175379157070000069e+00,0.000000000000000000e+00
1.785077282000000043e+00,7.590707642449999959e+00,-5.805609355529999682e+00,-8.105974209610000258e+00,-1.511981010439999995e+00,-3.255436420439999923e-01,1.592143535609999994e+00,0.000000000000000000e+00
1.790091477000000042e+00,3.723604270719999554e-01,-1.721851264890000177e+00,-1.463863059619999873e+01,-1.478443861010000138e+00,6.152846664190000231e-02,1.847566008569999862e+00,0.000000000000000000e+00
1.795064481999999906e+00,-1.763739418679999948e+00,-2.339926756870000180e+00,-1.750864944119999933e+01,-1.531320095060000108e+00,4.418838620189999844e-01,1.785313844679999873e+00,0.000000000000000000e+00
1.800068910000000022e+00,3.850848329430000216e+00,-6.171092188450000293e+00,-1.473703134920000046e+01,-1.377427816390000004e+00,9.070202112200000943e-01,1.559855341910000082e+00,0.000000000000000000e+00
1.805251826999999976e+00,8.417147944710000829e+00,-6.651952043609999699e+00,-1.123792549670000085e+01,-1.177443504330000001e+00,1.504484772680000138e+00,1.502970218660000024e+00,0.000000000000000000e+00
1.810253555000000070e+00,1.003939258790000011e+01,-7.340869542800000147e+00,-8.006386292649999348e+00,-1.255975961689999920e+00,2.051261425019999862e+00,1.588770389560000051e+00,0.000000000000000000e+00
1.815083435000000023e+00,1.271802259960000114e+01,-8.020558025870000662e+00,-7.041593750760000603e+00,-1.443865180019999972e+00,2.340888261799999981e+00,1.567913174629999906e+00,0.000000000000000000e+00
1.820112664999999907e+00,1.307830084959999972e+01,-8.981711919000000321e+00,-7.051082294589999577e+00,-1.571059226990000113e+00,2.282284021379999750e+00,1.521935105320000092e+00,0.000000000000000000e+00
1.825018334999999992e+00,1.298369598180000040e+01,-8.711205709839999756e+00,-6.634120618849999929e+00,-1.647547960280000057e+00,1.974355220790000365e+00,1.283277630810000014e+00,0.000000000000000000e+00
1.830107018999999946e+00,1.236011049420000063e+01,-8.528741941279999850e+00,-6.657270608290000169e+00,-1.652289628979999980e+00,1.793713092800000020e+00,1.093831658360000070e+00,0.000000000000000000e+00
1.835036322000000109e+00,1.083838608039999940e+01,-8.312409805389998851e+00,-6.345843190680001022e+00,-1.605408310889999912e+00,1.842785954479999821e+00,9.006084203720000625e-01,0.000000000000000000e+00
1.840105883999999969e+00,1.015911669950000018e+01,-7.282199327160000735e+00,-6.293703253600000380e+00,-1.473414301870000109e+00,1.976361274720000116e+00,5.973158478740000499e-01,0.000000000000000000e+00
1.845078914999999986e+00,8.492944067189998947e+00,-7.134208321569999178e+00,-6.785549782200000379e+00,-1.298306941989999963e+00,2.245944261550000043e+00,3.022804856299999843e-01,0.000000000000000000e+00
1.850090038000000048e+00,7.500086291289999707e+00,-6.960505367089999673e+00,-7.451968449330000688e+00,-1.031891942020000119e+00,2.622633695599999815e+00,3.569388762119999475e-02,0.000000000000000000e+00
1.855111082999999939e+00,6.372668069240000399e+00,-7.047856318280000920e+00,-8.064957139560000599e+00,-6.958329677580000761e-01,3.000584125519999645e+00,-1.550233066080000111e-01,0.000000000000000000e+00
1.860075892000000009e+00,5.432374008790000985e+00,-6.763631964900000071e+00,-8.236483334529999922e+00,-3.537131249899999608e-01,3.385487794879999957e+00,-3.891624510289999894e-01,0.000000000000000000e+00
1.865080722999999940e+00,4.795615443650000032e+00,-6.826192758230000379e+00,-8.230984152589998715e+00,-1.543633919209999941e-02,3.757940769200000197e+00,-6.787825226779999888e-01,0.000000000000000000e+00
1.870055451999999896e+00,4.711943765490000047e+00,-7.272718966639999394e+00,-8.497927700820000041e+00,2.320259660480000208e-01,4.120000362399999894e+00,-9.980653524400000531e-01,0.000000000000000000e+00
1.875072902000000097e+00,4.430800719250000519e+00,-8.459753745249999568e+00,-8.494613461709999314e+00,4.124417304990000144e-01,4.426820754999999608e+00,-1.332005143169999961e+00,0.000000000000000000e+00
1.880063956000000092e+00,3.579942891830000473e+00,-9.211351280229999716e+00,-8.645200329019999685e+00,4.602744579320000029e-01,4.750679016110000319e+00,-1.591409206390000053e+00,0.000000000000000000e+00
1.885038935999999943e+00,3.086058719920000026e+00,-9.659149992789998862e+00,-8.621509072310001187e+00,4.629589915280000190e-01,5.013133049009999453e+00,-1.814140081409999716e+00,0.000000000000000000e+00
1.890015435000000021e+00,2.601867966779999986e+00,-9.657506317239999305e+00,-8.801921169039999882e+00,4.131029248240000173e-01,5.243593215940000718e+00,-2.061131954190000393e+00,0.000000000000000000e+00
1.895060009999999906e+00,1.797043137870000029e+00,-9.314719300249999279e+00,-8.951824145730000737e+00,3.343277573589999996e-01,5.391078472140000244e+00,-2.270761489870000371e+00,0.000000000000000000e+00
1.900035850000000082e+00,9.228937205810000544e-01,-8.773934845479999467e+00,-9.221665168979999549e+00,2.996314466000000176e-01,5.513424396510000491e+00,-2.463050603869999744e+00,0.000000000000000000e+00
1.905271936000000110e+00,-2.842069638559999861e-02,-8.209358596239999528e+00,-9.672310503139998517e+00,3.067787289620000357e-01,5.586002826690000589e+00,-2.653657436370000067e+00,0.000000000000000000e+00
1.910348849000000016e+00,-1.548462198670000234e+00,-7.016275769630000880e+00,-9.997616808489999229e+00,3.547901213169999957e-01,5.671247005459999713e+00,-2.798782587049999826e+00,0.000000000000000000e+00
1.915094048999999909e+00,-4.106637738709999930e+00,-5.415269729249999386e+00,-9.142331520019999047e+00,4.604606330390000335e-01,5.723292350770000425e+00,-2.934754371640000414e+00,0.000000000000000000e+00
1.920258827000000057e+00,-5.497811234340000297e+00,-5.387191635759999819e+00,-9.451128589119999646e+00,6.363514661789999582e-01,5.780214786530000204e+00,-3.003238201140000285e+00,0.000000000000000000e+00
1.925278961000000066e+00,-6.220886439190000061e+00,-6.618629619730000080e+00,-9.772665312810000060e+00,8.731274008750000704e-01,5.793626308439999484e+00,-3.048651695249999793e+00,0.000000000000000000e+00
1.930345903999999946e+00,-7.248523852060000827e+00,-7.559348627589999481e+00,-9.607243279939998715e+00,1.055990099910000035e+00,5.782728195190000697e+00,-3.064820289609999637e+00,0.000000000000000000e+00
1.935280861000000074e+00,-7.709204258019998868e+00,-8.706153687149999598e+00,-9.806539525359999843e+00,1.121306300160000102e+00,5.674785614010000145e+00,-3.079880476000000034e+00,0.000000000000000000e+00
1.940266272999999986e+00,-7.750735707319999612e+00,-9.734868373860001256e+00,-1.027754784859999937e+01,1.066184163089999970e+00,5.524396896360000753e+00,-3.184365272520000456e+00,0.000000000000000000e+00
1.945136323000000056e+00,-8.651839328639999493e+00,-1.032753031539999888e+01,-1.102703116789999882e+01,9.509257078170000321e-01,5.290482044220000013e+00,-3.384405374530000010e+00,0.000000000000000000e+00
1.950086785000000100e+00,-1.003174002739999970e+01,-1.070403138590000047e+01,-1.160289511940000118e+01,8.537300825119999992e-01,5.084710597990000025e+00,-3.676203727719999481e+00,0.000000000000000000e+00
1.955238009999999971e+00,-1.155779808650000007e+01,-1.075314525319999959e+01,-1.216661270589999866e+01,7.958914041519999927e-01,4.917872428889999981e+00,-4.003458976750000176e+00,0.000000000000000000e+00
1.960090016999999962e+00,-1.253666416200000100e+01,-1.055147701789999992e+01,-1.267581076680000152e+01,8.331515789030000674e-01,4.790249824520000033e+00,-4.371365070340000436e+00,0.000000000000000000e+00
1.965256654999999908e+00,-1.325158820910000124e+01,-9.950316128130001658e+00,-1.320259007709999999e+01,9.479554295540000286e-01,4.669701099400000111e+00,-4.737475395199999717e+00,0.000000000000000000e+00
1.970125303999999966e+00,-1.368402334829999845e+01,-8.925934502200000509e+00,-1.368618140309999909e+01,1.106186270710000086e+00,4.490863800049999632e+00,-5.155443668369999344e+00,0.000000000000000000e+00
1.975247071000000076e+00,-1.440359902059999975e+01,-7.771594955479999456e+00,-1.413478324869999803e+01,1.308806300160000102e+00,4.239032745360000298e+00,-5.644809246059999452e+00,0.000000000000000000e+00
1.980108858999999999e+00,-1.567478332400000163e+01,-6.593023469310000273e+00,-1.446625275289999912e+01,1.537887692450000010e+00,3.913006067280000444e+00,-6.179092407230000639e+00,0.000000000000000000e+00
1.985062493999999900e+00,-1.757453791769999896e+01,-6.341414852849999839e+00,-1.450485224039999999e+01,1.771716833109999945e+00,3.593696832659999618e+00,-6.703818321229999988e+00,0.000000000000000000e+00
1.990065618999999897e+00,-1.987820999660000254e+01,-6.574469575480000216e+00,-1.416259129310000020e+01,1.995465874670000028e+00,3.212162256240000069e+00,-7.150595664979999988e+00,0.000000000000000000e+00
1.995258742000000085e+00,-2.233717668210000085e+01,-6.439897438910000105e+00,-1.347533149799999919e+01,2.092385768890000275e+00,2.897394895550000182e+00,-7.533897876739999333e+00,0.000000000000000000e+00
2.000261453999999883e+00,-2.482162150780000331e+01,-6.661103318320000355e+00,-1.244083413619999945e+01,2.031772136690000341e+00,2.586608409880000181e+00,-7.748167037960000059e+00,0.000000000000000000e+00
2.005217062999999911e+00,-2.716633754480000107e+01,-7.449294261679999529e+00,-1.122653550309999915e+01,1.839880824090000200e+00,2.282100200649999966e+00,-7.877307891849999244e+00,0.000000000000000000e+00
2.010285564000000136e+00,-2.952401126300000200e+01,-1.049630516580000084e+01,-9.752367790190000107e+00,1.448983907700000184e+00,2.024266481399999762e+00,-7.789270401000000454e+00,0.000000000000000000e+00
2.015075525999999950e+00,-3.140619279059999869e+01,-1.171520749329999944e+01,-7.317392221100000427e+00,8.741821050640000701e-01,1.797887206079999745e+00,-7.229018211360000556e+00,0.000000000000000000e+00
2.020260980000000206e+00,-3.198038033320000295e+01,-9.993935489630001001e+00,-5.328334957640000091e+00,1.540990322830000092e-01,1.502876281739999875e+00,-6.847663879389999764e+00,0.000000000000000000e+00
2.025261163999999781e+00,-3.085523414780000095e+01,-8.482410398220000758e+00,-3.541144666880000180e+00,-6.290847063059999966e-01,1.272408843039999793e+00,-6.670776844019999707e+00,0.000000000000000000e+00
2.030333612999999815e+00,-3.085071696260000351e+01,-8.746257734000000283e+00,-1.367318426660000030e+00,-1.416748285289999743e+00,1.052271723750000110e+00,-6.252020835880000682e+00,0.000000000000000000e+00
2.035241602999999788e+00,-2.963757451380000063e+01,-6.887589183960000305e+00,9.244428497190000371e-01,-2.017848253249999946e+00,8.155940771100000930e-01,-5.782480239869999927e+00,0.000000000000000000e+00
2.040116139999999856e+00,-2.791029128699999973e+01,-4.244173693530000513e+00,3.174823045050000125e+00,-2.383898973460000015e+00,4.820377826690000478e-01,-5.351129055019999470e+00,0.000000000000000000e+00
2.045263566000000033e+00,-2.688470788400000089e+01,-2.652991712549999992e+00,5.153927654290000326e+00,-2.529005050659999920e+00,1.473550647499999866e-01,-4.834147930149999439e+00,0.000000000000000000e+00
2.050367780000000195e+00,-2.603462133329999872e+01,-1.438370277219999993e+00,6.761471572000000485e+00,-2.479282855990000201e+00,-1.699715405699999959e-01,-4.330370903019999496e+00,0.000000000000000000e+00
2.055252777999999836e+00,-2.492062548739999883e+01,-9.038719169859998903e-01,7.547928823439999491e+00,-2.267556667329999609e+00,-5.493386387830000439e-01,-3.836406230930000660e+00,0.000000000000000000e+00
2.060094101999999872e+00,-2.455096683010000191e+01,-2.270875761270000140e-02,8.058535582080001092e+00,-1.885344982150000126e+00,-8.595952391619999799e-01,-3.383918762209999542e+00,0.000000000000000000e+00
2.065290230000000005e+00,-2.448313423380000131e+01,8.080600114380001031e-01,8.197207555189999439e+00,-1.378951191899999928e+00,-1.175318956379999946e+00,-3.041790008540000478e+00,0.000000000000000000e+00
2.070211706999999901e+00,-2.337728194690000194e+01,1.789973784000000068e+00,8.068430368630000515e+00,-8.232006430630000038e-01,-1.456713438029999974e+00,-2.830127954479999985e+00,0.000000000000000000e+00
2.075256560000000139e+00,-2.165321592860000166e+01,2.013824917230000011e+00,7.729547957869999486e+00,-3.630842566489999590e-01,-1.729651451109999627e+00,-2.753743648529999977e+00,0.000000000000000000e+00
2.080282825999999918e+00,-1.940976830900000039e+01,1.685824550479999795e+00,7.669577765549999704e+00,-5.908413603900000699e-02,-1.975904464719999920e+00,-2.751424789430000128e+00,0.000000000000000000e+00
2.085228428000000189e+00,-1.680246984160000068e+01,1.380298319740000057e+00,7.382215114139999201e+00,5.060511827469999641e-02,-2.196762561799999958e+00,-2.761182069779999804e+00,0.000000000000000000e+00
2.090248422999999800e+00,-1.311468967539999930e+01,-5.925856029640000244e+00,-1.719072564729999897e+01,-7.940116524699999401e-01,-2.450482368469999894e+00,-2.896528244020000198e+00,0.000000000000000000e+00
2.095095539999999978e+00,-4.937086049109999664e+01,-3.671309508409999722e+01,1.353446991570000035e+00,-3.232138395309999801e+00,-3.575231313709999803e+00,-2.219526529309999940e+00,0.000000000000000000e+00
2.100157191000000090e+00,-3.922867154560000102e+01,-2.018588595270000141e+01,-2.307156297010000401e+01,-5.431775093080000616e+00,-5.118424415589999832e+00,1.047398686410000002e+00,0.000000000000000000e+00
2.105257257999999965e+00,-5.889056168119999768e+01,1.728941047800000064e+01,-1.380290574829999883e+01,-9.567625045779999837e+00,-3.578438043590000284e+00,2.088126182559999933e+00,0.000000000000000000e+00
2.110278486999999981e+00,-3.234448135639999578e+01,4.408358878079999954e+01,-2.255505370939999921e+01,-9.296257019039998681e+00,-3.173799753189999961e+00,3.125645875930000095e+00,0.000000000000000000e+00
2.115271907999999979e+00,-1.829007688180000102e+01,3.235678203510000372e+01,-1.801818769380000163e+01,-6.602548599240000371e+00,1.361626505850000113e+00,2.939488649370000317e+00,0.000000000000000000e+00
2.120276657999999870e+00,-8.896496226270000918e-01,2.989411181880000257e+01,-2.721828283600000020e+01,-1.074475884439999973e+00,4.563587188719999688e+00,1.300105333329999890e+00,0.000000000000000000e+00
2.125265275999999925e+00,2.081053176300000018e+01,1.605495753010000115e+01,-2.679805368290000089e+01,1.982009172440000189e+00,5.649113178250000367e+00,1.492733001710000007e+00,0.000000000000000000e+00
2.130269574999999804e+00,1.087549503700000031e+01,-2.892903753740000194e+00,-1.051263787649999948e+01,3.343298435209999475e+00,6.020267486569999882e+00,8.212985396390000137e-01,0.000000000000000000e+00
2.135251699999999975e+00,8.055709418750000239e+00,-1.598821448260000011e+01,3.670060677390000414e+00,3.090665340419999740e+00,3.555756807330000324e+00,4.405444562439999601e-01,0.000000000000000000e+00
2.140087755999999786e+00,-4.374930655730000062e+00,-1.280747315339999837e+01,-1.171405364710000008e+01,1.655129790310000182e+00,6.422874927520000332e-01,8.744706511500000001e-01,0.000000000000000000e+00
2.145056956999999986e+00,5.276407786530000976e+00,-4.347056268110000232e+00,-1.240558746630000186e+01,-4.277746677400000586e-01,-2.450976133350000197e+00,2.162726223470000098e-01,0.000000000000000000e+00
2.150045497999999888e+00,6.792586402840000703e-01,-5.312967511839999935e-01,-4.974337979859999592e+00,-1.825776934620000125e+00,-4.815419673919999255e+00,-2.977544665340000063e-01,0.000000000000000000e+00
2.155236662000000081e+00,-2.252606493080000050e+00,2.395331687100000106e+00,-9.071996585560000881e+00,-2.228400707240000056e+00,-4.813992977139999851e+00,-8.596707582470000109e-01,0.000000000000000000e+00
2.160125074999999839e+00,-8.735340618669999557e+00,2.822538387599999865e-01,-1.091321423459999984e+01,-1.912158012390000161e+00,-2.646024465560000039e+00,-7.632352709769999466e-01,0.000000000000000000e+00
2.165084666999999907e+00,-8.846087643019998836e+00,-2.380037416130000028e-01,-6.981316684450000309e+00,-8.197859525679999093e-01,-1.413533210749999824e+00,-4.880919754510000264e-01,0.000000000000000000e+00
2.170265495999999850e+00,-1.118146535829999877e+01,1.373047471830000088e+00,-1.140185115349999911e+01,1.690313518050000074e-01,7.368172407149999881e-01,1.924038678409999981e-01,0.000000000000000000e+00
2.175231981000000037e+00,-1.388327896940000139e+00,-8.725663858789999283e-01,-9.840810628279999861e+00,6.465157270429999770e-01,1.563454747199999995e+00,3.311426937579999841e-01,0.000000000000000000e+00
2.180291814999999911e+00,-7.585447237710000179e-01,-1.189385944849999932e+00,-1.011994788770000042e+01,2.942016422750000082e-01,1.601633667949999840e+00,7.093371152879999197e-01,0.000000000000000000e+00
2.185075445999999921e+00,-2.143729646510000031e-01,-5.559826449549999383e-01,-1.006504257749999987e+01,-3.268575072289999772e-01,7.875274419779999535e-01,6.115973591800000220e-01,0.000000000000000000e+00
2.190238803999999817e+00,-2.252292897080000245e+00,-2.187547416660000077e-01,-9.320380979269998534e+00,-5.973176956180000774e-01,-2.659812271600000000e-01,6.927469372750000298e-01,0.000000000000000000e+00
2.195257407999999799e+00,-4.735171496340000452e+00,1.414618084100000006e+00,-9.819655612050000926e+00,-5.499998331069999580e-01,-6.711770296100001421e-01,5.557598471639999538e-01,0.000000000000000000e+00
2.200119707999999896e+00,-3.075574150790000072e+00,2.055290169430000091e+00,-9.581621931950000004e+00,-1.268880218270000138e-01,-9.912859797480000346e-01,2.727065980430000147e-01,0.000000000000000000e+00
2.205276843000000042e+00,-4.635283719659999413e+00,1.953397482659999795e+00,-9.280607187290000226e+00,1.257195770739999996e-01,-7.295500040050000301e-01,7.864093780519999799e-02,1.000000000000000000e+00
2.210356271000000206e+00,-3.568952711259999688e+00,-4.875128467759999862e-01,-9.345173475219999304e+00,2.926669418810000090e-01,-3.746678233150000370e-01,-5.970203503970000075e-02,1.000000000000000000e+00
2.215237206999999930e+00,-2.288016244630000084e+00,-1.988227096240000158e+00,-9.822059166060000734e+00,3.144691586489999913e-01,-5.681938678029999773e-02,2.016346901659999899e-02,1.000000000000000000e+00
2.220091060000000116e+00,-3.056614306509999768e+00,-9.635640230130000372e-01,-1.034934467230000088e+01,6.565895676609999343e-02,1.287284642459999850e-01,2.805773615839999846e-01,1.000000000000000000e+00
2.225066061999999789e+00,-2.925316953830000344e+00,1.621958008309999921e-01,-9.323817967980000176e+00,-1.756408661599999921e-01,1.727023348209999823e-02,4.854055047039999571e-01,1.000000000000000000e+00
2.230103292999999987e+00,-2.712431743510000270e+00,2.038350578929999934e-01,-9.555958498389999889e+00,-3.029600381850000024e-01,-5.367673188449999938e-02,4.639724195000000107e-01,1.000000000000000000e+00
2.235053778999999796e+00,-2.583449097509999959e+00,4.858016224109999726e-02,-9.884154095439999566e+00,-1.912393122909999965e-01,-1.225612536070000008e-01,3.986391127109999988e-01,1.000000000000000000e+00
2.240085834999999914e+00,-2.658859727799999906e+00,-4.112456727189999772e-01,-9.709847914370000055e+00,-4.674677923320000317e-02,-2.035643160339999924e-01,3.436718285079999879e-01,1.000000000000000000e+00
2.245056632999999913e+00,-2.536337802240000272e+00,-4.169733661829999605e-01,-9.501853398710000675e+00,5.333027243610000134e-02,-2.731843590740000161e-01,2.818454504010000083e-01,1.000000000000000000e+00
2.249998934000000173e+00,-2.755710913270000173e+00,-6.571468347840000446e-01,-9.625465165330000517e+00,2.305483818049999800e-02,-3.002432286739999956e-01,3.336528539660000292e-01,1.000000000000000000e+00
2.255295304000000112e+00,-2.645090730170000182e+00,-8.134707798730000244e-03,-1.004605847559999887e+01,-7.575006037949999493e-02,-2.911823689940000182e-01,3.847416043280000308e-01,1.000000000000000000e+00
2.260065818000000171e+00,-3.147522657929999745e+00,5.471162516059999703e-01,-9.881923559909999710e+00,-1.421445310120000027e-01,-2.102847546339999818e-01,4.222730398179999622e-01,1.000000000000000000e+00
2.265245055999999924e+00,-2.920209986079999709e+00,7.655210655890000160e-01,-9.763114809660001114e+00,-9.863699227569999728e-02,-1.977411508559999975e-01,3.871355652810000159e-01,1.000000000000000000e+00
2.270228663999999785e+00,-3.126148153729999546e+00,6.998159098180000148e-01,-9.344175111839998493e+00,-5.528313294049999604e-02,-2.291032224890000024e-01,3.361069858070000471e-01,1.000000000000000000e+00
2.275222138999999810e+00,-3.273484787070000124e+00,2.875107729080000341e-01,-9.173987472000000309e+00,-1.300316676500000088e-02,-2.577828168869999992e-01,3.357167839999999903e-01,1.000000000000000000e+00
2.280121808000000083e+00,-3.561293720940000629e+00,4.232650867380000764e-02,-9.335004547909999673e+00,2.215181011710000251e-03,-2.863003015520000361e-01,3.040867149829999949e-01,1.000000000000000000e+00
2.285073032000000115e+00,-3.658979895930000392e+00,-1.545075661499999975e-01,-9.297720234650000748e+00,-3.464267030359999971e-02,-2.839810252189999829e-01,2.791849672789999959e-01,1.000000000000000000e+00
2.290251720000000102e+00,-3.688350659580000190e+00,7.917524352369999241e-02,-9.369994028230001604e+00,-9.998156130310001388e-02,-2.056326270099999853e-01,2.727546393870000085e-01,1.000000000000000000e+00
2.295058664999999998e+00,-3.415297396290000176e+00,2.873359460640000362e-01,-9.545535888570000793e+00,-1.528384983540000130e-01,-1.597990244630000112e-01,2.498444914820000251e-01,1.000000000000000000e+00
2.300203208000000110e+00,-3.264888808159999822e+00,4.786873699589999642e-01,-9.511274722530000503e+00,-1.587596982719999827e-01,-1.180875524879999999e-01,2.151476144790000211e-01,1.000000000000000000e+00
2.305235012999999888e+00,-3.140861738739999964e+00,5.775171620239999415e-01,-9.726513217970000014e+00,-1.124452278020000029e-01,-1.464837640520000039e-01,1.762362122540000187e-01,1.000000000000000000e+00
2.310041401999999966e+00,-2.768443845849999807e+00,7.503446853759999646e-01,-1.019929673419999894e+01,-9.933304786680000054e-02,-1.739127933980000040e-01,1.617352217440000128e-01,1.000000000000000000e+00
2.315024231000000210e+00,-2.780164678790000288e+00,6.270204304590000222e-01,-1.032381509429999866e+01,-3.629600256680000359e-02,-2.378348857160000052e-01,1.142171621319999913e-01,1.000000000000000000e+00
2.320229165999999843e+00,-2.544102006509999736e+00,1.592952570839999971e-01,-1.050556282350000004e+01,2.189030311999999937e-02,-2.574106454850000336e-01,9.592261910440000316e-02,1.000000000000000000e+00
2.325217959000000167e+00,-2.145192558670000249e+00,3.269889886119999728e-02,-1.108870173440000073e+01,4.850455001000000127e-02,-2.939176559450000226e-01,7.433609664439999598e-02,1.000000000000000000e+00
2.330079870000000053e+00,-2.135410584850000237e+00,5.297570291950000343e-02,-1.159708964789999897e+01,6.146604195240000512e-02,-3.751035928729999913e-01,9.076286107300000905e-02,1.000000000000000000e+00
2.335052525000000045e+00,-1.855798839829999825e+00,1.585524028280000108e-01,-1.195031154970000031e+01,1.111957058310000107e-01,-4.943256676199999644e-01,7.880973815920000458e-02,1.000000000000000000e+00
2.340052228999999873e+00,-1.863253539749999854e+00,2.794479875589999662e-01,-1.240836628329999947e+01,1.375898867850000040e-01,-6.475281715389999970e-01,7.658331096169999908e-02,1.000000000000000000e+00
2.345044967000000202e+00,-1.358543876310000176e+00,6.195577664279999786e-01,-1.290901863420000062e+01,2.255569249390000086e-01,-8.351725339890000432e-01,6.035215780140000541e-02,1.000000000000000000e+00
2.350046203999999861e+00,-9.401239645839999381e-01,4.033144778609999981e-01,-1.338105630049999917e+01,3.126189708709999904e-01,-1.032624602320000085e+00,6.132232770320000109e-02,1.000000000000000000e+00
2.355117823000000055e+00,-6.844120775239999066e-01,4.722124017909999916e-01,-1.396459034819999978e+01,4.081537127489999750e-01,-1.255891084669999991e+00,7.418677210810001310e-02,0.000000000000000000e+00
2.360058358999999939e+00,-5.482368531340000573e-01,4.287184202409999867e-01,-1.440551040709999953e+01,4.710144400600000392e-01,-1.488568067549999929e+00,7.989253103729999916e-02,0.000000000000000000e+00
2.365225602999999843e+00,-7.244436436610000030e-01,5.051620103109999427e-01,-1.571527900049999893e+01,4.615932703019999805e-01,-1.769183754920000240e+00,4.396988451480000198e-02,0.000000000000000000e+00
2.370217724999999831e+00,-1.761440092229999976e-01,6.765629714589999066e-01,-1.574595470930000118e+01,4.027032554150000165e-01,-2.126007080079999945e+00,2.025922760370000089e-02,0.000000000000000000e+00
2.375007470999999981e+00,9.796697930310001023e-01,-2.633933814730000100e-01,-1.571290817969999942e+01,3.685676157469999770e-01,-2.494785308840000049e+00,-1.733844866979999955e-03,0.000000000000000000e+00
2.380215102000000194e+00,1.241775984240000019e+00,1.403686118259999949e-01,-1.595948406269999964e+01,3.302566707130000223e-01,-2.918033599850000215e+00,-1.567075029020000010e-02,0.000000000000000000e+00
2.385209648000000016e+00,1.251933659510000130e+00,3.160594613209999904e-01,-1.585516210299999962e+01,2.696532309059999633e-01,-3.345898866650000247e+00,-1.095986273139999863e-02,0.000000000000000000e+00
2.390054469999999931e+00,1.408557468889999997e+00,-7.498544176410000262e-01,-1.598712727190000038e+01,1.842531561850000166e-01,-3.739978790280000354e+00,-4.892674833539999851e-02,0.000000000000000000e+00
2.395010993000000088e+00,1.431289817439999945e+00,-8.863288807060000218e-01,-1.550087286420000154e+01,1.236237585539999989e-01,-4.149262905119999623e+00,-3.555059060450000558e-02,0.000000000000000000e+00
2.400211349000000105e+00,1.328056529719999990e+00,3.380598788679999855e-01,-1.515481486280000034e+01,4.614352807400000367e-02,-4.562657833100000282e+00,-8.524142950770000060e-02,0.000000000000000000e+00
2.405194653000000127e+00,1.083192857480000049e+00,5.973110094369999956e-01,-1.520815482329999924e+01,-1.029991805550000139e-01,-4.910460472109999586e+00,-2.159479558469999949e-01,0.000000000000000000e+00
2.410241195999999864e+00,1.663791582370000244e+00,3.590003755659999518e-01,-1.442241828729999931e+01,-1.902631074190000160e-01,-5.310836315159999543e+00,-2.702640295029999917e-01,0.000000000000000000e+00
2.415219718999999987e+00,1.826707185379999876e+00,2.185072697109999851e-01,-1.396381293410000168e+01,-3.653206527229999612e-01,-5.627203464509999975e+00,-3.348095715050000143e-01,0.000000000000000000e+00
2.420159111999999890e+00,1.153554899139999979e+00,-8.676966609499999761e-01,-1.370657770989999946e+01,-4.843065738679999677e-01,-5.934515953060000015e+00,-3.691237270830000083e-01,0.000000000000000000e+00
2.425184273000000168e+00,1.473363995319999953e+00,-2.126423706919999823e+00,-1.355374043329999978e+01,-6.199757456779999565e-01,-6.248756885529999749e+00,-3.226816356180000067e-01,0.000000000000000000e+00
2.430239455999999798e+00,-1.658650273960000227e-02,-4.830961482320000222e+00,-1.284469550740000088e+01,-8.115864992139999456e-01,-6.477534770970000189e+00,-2.048002183439999735e-01,0.000000000000000000e+00
2.435213597000000174e+00,1.159186986749999981e+00,-5.891653900299999691e+00,-1.163074641839999934e+01,-1.060787320139999990e+00,-6.709286212919999492e+00,-6.264724582430000743e-02,0.000000000000000000e+00
2.440066756999999864e+00,4.613065750370000107e-01,-6.621766748709998929e+00,-1.163702652150000105e+01,-1.413966417310000168e+00,-6.941971302030000679e+00,8.290580660099999832e-02,0.000000000000000000e+00
2.445186568000000005e+00,-2.295603777150000191e+00,-7.816120325910000943e+00,-1.096157173049999933e+01,-1.862678289409999799e+00,-7.118771553039999311e+00,1.426374465230000055e-01,0.000000000000000000e+00
2.450223096000000211e+00,-8.225428272030001153e+00,-8.069201937529999924e+00,-1.209953648099999945e+01,-2.412555694579999965e+00,-7.335036277769999558e+00,1.272694170480000164e-01,0.000000000000000000e+00
2.455007306999999805e+00,-1.460390064359999940e+01,-7.519098450269999567e+00,-1.356674721440000120e+01,-3.102007150649999989e+00,-7.487335205079999945e+00,3.312655389310000253e-01,0.000000000000000000e+00
2.460043122000000082e+00,-2.108506298989999905e+01,-5.594815564540000175e+00,-1.589511651219999955e+01,-3.585756063459999421e+00,-7.432603836060001079e+00,5.243550539019999901e-01,0.000000000000000000e+00
2.465215759999999978e+00,-2.803561745630000246e+01,-3.007920710490000094e+00,-1.618279948160000004e+01,-3.867675781250000000e+00,-7.014741420750000067e+00,7.038012743000000571e-01,0.000000000000000000e+00
2.470186423999999992e+00,-2.733492067199999909e+01,-1.451226251660000077e+00,-1.634682099999999849e+01,-3.998196840290000331e+00,-6.292386054990000588e+00,6.572595238689999952e-01,0.000000000000000000e+00
2.475028927999999961e+00,-2.622370481219999760e+01,2.009285374100000077e+00,-1.476295723309999985e+01,-4.086609840390000414e+00,-5.113372325899999460e+00,8.608754873280001219e-01,0.000000000000000000e+00
2.480045818999999874e+00,-2.488090839400000220e+01,1.816692571840000214e+00,-1.616122945480000084e+01,-4.343518733979999880e+00,-4.084468841549999674e+00,9.490823745730000427e-01,0.000000000000000000e+00
2.485017290000000045e+00,-2.798375633619999903e+01,7.129691136400000129e-02,-1.657040413000000001e+01,-4.486742973330000162e+00,-3.593809366230000357e+00,9.578819870950000537e-01,0.000000000000000000e+00
2.490219842000000128e+00,-3.012865239610000145e+01,8.097124548199999827e-01,-2.193922716539999840e+01,-4.298706054690000222e+00,-3.265446186070000145e+00,7.057015299799999086e-01,0.000000000000000000e+00
2.495033258999999948e+00,-2.746466115059999780e+01,6.273498085440000205e-01,-2.028219645540000116e+01,-3.956166267399999992e+00,-3.179672479630000215e+00,5.016142129899999746e-01,0.000000000000000000e+00
2.500099644000000065e+00,-1.954628573440000139e+01,3.296056099840000142e-01,-1.896342973209999982e+01,-3.695879936219999884e+00,-3.082257509229999748e+00,2.987233102319999944e-01,0.000000000000000000e+00
2.505179468000000131e+00,-1.416979494089999925e+01,-1.799437631790000269e+00,-1.807891133489999902e+01,-3.738458394999999879e+00,-2.895477294920000055e+00,1.039655879139999989e-01,0.000000000000000000e+00
2.510227726000000104e+00,-8.420110886170000697e+00,-7.997102916000000228e+00,-1.880299016380000054e+01,-4.065942764279999899e+00,-2.903026819229999944e+00,2.001199275259999966e-01,0.000000000000000000e+00
2.515186579999999950e+00,-2.397124971030000040e+01,-7.805658553119998899e+00,-1.866847764849999791e+01,-4.369909763339999920e+00,-3.924706220630000075e+00,-3.979614004489999760e-03,0.000000000000000000e+00
2.520146555999999816e+00,-2.826438529540000033e+01,-5.822037927760000287e+00,-2.857198877080000088e+01,-4.648046970369999364e+00,-4.306450366970000054e+00,3.054531849919999917e-02,0.000000000000000000e+00
2.524988968000000167e+00,-2.632537421159999980e+01,-3.032513884480000144e+00,-3.208951524620000129e+01,-4.650007724760000016e+00,-4.133340358729999942e+00,-2.089953124520000094e-01,0.000000000000000000e+00
2.530208072999999835e+00,-1.730211096960000106e+01,-4.719684588869999864e+00,-3.022812866940000021e+01,-4.226333618159999972e+00,-3.455990076069999972e+00,-5.374856591219999702e-01,0.000000000000000000e+00
2.535155646999999846e+00,-1.300862700940000138e+01,-2.851083842880000052e+00,-2.876129670619999956e+01,-3.921559095380000581e+00,-2.228192806240000046e+00,-6.166424751279999672e-01,0.000000000000000000e+00
2.540015037999999947e+00,-1.041831241010000042e+01,-3.888767433459999534e+00,-2.840981667959999868e+01,-3.912997961040000305e+00,-1.378219366069999952e+00,-3.697906136509999664e-01,0.000000000000000000e+00
2.545197469000000101e+00,-5.030118903790000040e+00,-6.564786970380000142e+00,-2.635345464320000275e+01,-3.978822231290000122e+00,-8.517976999279999184e-01,-6.667183339599999647e-02,0.000000000000000000e+00
2.550139721999999942e+00,-1.135177896260000097e+00,-8.122262496579999436e+00,-2.505157943340000060e+01,-3.820026159290000223e+00,-9.559201002120000235e-01,2.546862661839999764e-01,0.000000000000000000e+00
2.555150493000000189e+00,1.949514649880000006e+00,-8.385793606030000902e+00,-2.406095745380000039e+01,-3.612313747409999998e+00,-1.520597815509999950e+00,5.032682418819999226e-01,0.000000000000000000e+00
2.560000199000000087e+00,3.895013049850000186e+00,-7.708965188569999682e+00,-2.322299388699999767e+01,-3.535201072690000057e+00,-1.941407680510000011e+00,6.386818289760000100e-01,0.000000000000000000e+00
2.565177047999999793e+00,4.318169780849999917e+00,-8.417378830860000605e+00,-2.230309671790000081e+01,-3.580564975740000211e+00,-2.026846170429999816e+00,7.743940353389999753e-01,0.000000000000000000e+00
2.570009869999999808e+00,4.979831316580000333e+00,-9.282316913819999016e+00,-2.090999634579999977e+01,-3.632907867430000159e+00,-1.839977741240000020e+00,7.832552194600000961e-01,0.000000000000000000e+00
2.575145513999999913e+00,5.366254061670000297e+00,-9.613715106309999925e+00,-1.971534583150000230e+01,-3.678133726120000002e+00,-1.299858808520000020e+00,7.970190048219999435e-01,0.000000000000000000e+00
2.580149136999999815e+00,7.520507148019999200e+00,-1.044927453460000066e+01,-1.857019263079999760e+01,-3.681719541549999697e+00,-5.975272059439999950e-01,8.409509658810000454e-01,0.000000000000000000e+00
2.584998081999999808e+00,9.660127313389999415e+00,-1.197950257289999954e+01,-1.785530248599999936e+01,-3.710206270219999602e+00,4.481246322390000647e-02,9.052680134770000331e-01,0.000000000000000000e+00
2.589911260000000048e+00,1.156644550339999888e+01,-1.237726854980000013e+01,-1.676935784559999831e+01,-3.800028324130000357e+00,5.066813826560000456e-01,8.874232172970000221e-01,0.000000000000000000e+00
2.594977601000000078e+00,1.293234924089999893e+01,-1.209949556449999974e+01,-1.493785553490000062e+01,-3.845176935199999591e+00,8.835206627850000771e-01,8.138294816019999711e-01,0.000000000000000000e+00
2.599953842000000126e+00,1.414195883940000087e+01,-1.193338496480000011e+01,-1.284118837599999985e+01,-3.789811611180000206e+00,1.251199960710000170e+00,7.326290011409999359e-01,0.000000000000000000e+00
2.604981763000000061e+00,1.701906092069999943e+01,-1.180600127849999836e+01,-1.096520745669999997e+01,-3.617193460460000232e+00,1.526995182040000065e+00,6.344862580300000277e-01,0.000000000000000000e+00
2.609972737000000098e+00,1.809733897199999930e+01,-1.186628185190000018e+01,-9.081799602169999375e+00,-3.378428936000000160e+00,1.851449251170000032e+00,5.617455244060000075e-01,0.000000000000000000e+00
2.615176697999999966e+00,1.923955085849999946e+01,-1.238155192619999845e+01,-7.911490917430000103e+00,-3.104057550429999868e+00,2.163980960850000024e+00,5.368438363080000331e-01,0.000000000000000000e+00
2.620015374999999924e+00,1.917190881640000200e+01,-1.224312311420000121e+01,-7.076926345419999542e+00,-2.755945920940000349e+00,2.442950725559999814e+00,5.018537640569999958e-01,0.000000000000000000e+00
2.625158690000000128e+00,1.846308951589999836e+01,-1.165050559630000038e+01,-5.603049139880000418e+00,-2.382928848270000177e+00,2.762797355650000064e+00,4.181112647060000187e-01,0.000000000000000000e+00
2.630172700000000141e+00,1.796671586529999942e+01,-1.133838376670000159e+01,-3.991844069319999910e+00,-1.979695439340000140e+00,3.147447109219999817e+00,3.183521926400000313e-01,0.000000000000000000e+00
2.634992002000000166e+00,1.795788490860000053e+01,-1.166825168089999920e+01,-2.705184841129999906e+00,-1.531213521960000046e+00,3.578141212459999831e+00,1.870544850829999883e-01,0.000000000000000000e+00
2.639981989999999890e+00,1.779407966319999801e+01,-1.211340484740000001e+01,-1.711469279349999928e+00,-1.083546280860000044e+00,4.070556640619999555e+00,7.321230322119999523e-02,0.000000000000000000e+00
2.645162243000000135e+00,1.763340277910000253e+01,-1.261375909210000046e+01,-1.016612453240000047e+00,-7.144944071770000793e-01,4.519869327550000371e+00,1.516121905300000031e-02,0.000000000000000000e+00
2.650146508999999817e+00,1.728783343789999805e+01,-1.296334409859999859e+01,-3.316144655880000069e-01,-4.268487393860000423e-01,4.925389766690000393e+00,-3.169326484199999627e-02,0.000000000000000000e+00
2.655173840999999868e+00,1.630646327070000012e+01,-1.286270345780000035e+01,1.286709131750000124e-01,-1.884714812040000076e-01,5.197392463679999963e+00,-1.099592670799999922e-01,0.000000000000000000e+00
2.660012712999999973e+00,1.491850084609999882e+01,-1.285842358849999911e+01,1.769722219420000187e-01,1.471040304749999909e-02,5.439496040340000782e+00,-1.814083456989999954e-01,0.000000000000000000e+00
2.665176638000000153e+00,1.285091014410000021e+01,-1.240996436619999876e+01,-6.961742653800000458e-01,2.618355751040000179e-01,5.674352169040000504e+00,-2.569589018819999904e-01,0.000000000000000000e+00
2.669970159000000010e+00,1.045643375869999936e+01,-1.171272561339999996e+01,-1.140141071620000002e+00,5.218859314920000214e-01,5.958551883700000218e+00,-3.377254903320000556e-01,0.000000000000000000e+00
2.675135270999999815e+00,9.112740683880000248e+00,-1.172218902280000030e+01,-1.154703996110000075e+00,7.943221926690000601e-01,6.263815402979999725e+00,-4.080048799509999879e-01,0.000000000000000000e+00
2.679996345999999807e+00,7.875379155080000082e+00,-1.205869009140000081e+01,-1.525709537979999864e+00,1.047850251200000082e+00,6.597818374630000982e+00,-4.610480368140000285e-01,0.000000000000000000e+00
2.684975713000000042e+00,6.711121440939999516e+00,-1.217697627910000158e+01,-1.835065702269999877e+00,1.206361412999999994e+00,6.933733940119999772e+00,-5.351245403290000313e-01,0.000000000000000000e+00
2.689974755999999800e+00,5.682403831619999401e+00,-1.223269173650000141e+01,-1.850638242190000060e+00,1.275030374530000010e+00,7.186700820920000510e+00,-6.167671680449999805e-01,0.000000000000000000e+00
2.694976510000000047e+00,4.605723570909999509e+00,-1.201068915380000135e+01,-2.012136671880000005e+00,1.332774996759999997e+00,7.374255180360000494e+00,-7.764044404029999402e-01,0.000000000000000000e+00
2.699984934000000170e+00,3.241493611790000173e+00,-1.170050326069999969e+01,-2.339181345330000106e+00,1.427025675770000168e+00,7.417539596560000170e+00,-9.346457123760000263e-01,0.000000000000000000e+00
2.705134303999999990e+00,1.713714427929999840e+00,-1.160273379130000038e+01,-2.842707059679999926e+00,1.567115783689999819e+00,7.439665794369998864e+00,-1.127784729000000041e+00,0.000000000000000000e+00
2.709988983000000129e+00,-1.224440380159999980e-01,-1.189851706510000007e+01,-3.729199679580000204e+00,1.693639516830000025e+00,7.433714389800000433e+00,-1.358634591100000177e+00,0.000000000000000000e+00
2.714982576000000147e+00,-1.601777901529999992e+00,-1.139226616349999865e+01,-4.636733918459999160e+00,1.800802946090000356e+00,7.463301181789998573e+00,-1.704553365710000046e+00,0.000000000000000000e+00
2.720174466000000013e+00,-2.422917028640000137e+00,-1.120905596049999886e+01,-5.047831086090000419e+00,1.858999967579999968e+00,7.454940795900000694e+00,-2.132426261900000064e+00,0.000000000000000000e+00
2.725147140999999884e+00,-3.029182986489999951e+00,-1.159806579950000049e+01,-5.679816737740000399e+00,1.881138801570000130e+00,7.445884704590000069e+00,-2.672934770579999952e+00,0.000000000000000000e+00
2.730173036000000053e+00,-3.554581363819999673e+00,-1.191682779779999990e+01,-6.353150298819999264e+00,1.870935916899999940e+00,7.407519817349999869e+00,-3.257511854170000110e+00,0.000000000000000000e+00
2.734993838999999927e+00,-4.160038781769999972e+00,-1.208938801200000057e+01,-7.201135493419999811e+00,1.838914275170000279e+00,7.233154773710000818e+00,-3.883074998859999738e+00,0.000000000000000000e+00
2.740001883000000138e+00,-4.978482240049999952e+00,-1.190651683160000118e+01,-8.416801907749999145e+00,1.788712739940000240e+00,7.008605003360000474e+00,-4.522533416749999979e+00,0.000000000000000000e+00
2.744939995999999827e+00,-5.302082326009999846e+00,-1.116278754579999877e+01,-9.760269941619998946e+00,1.811563611029999743e+00,6.792408943180000769e+00,-5.155179023739999700e+00,0.000000000000000000e+00
2.750148427000000062e+00,-6.008493980830000858e+00,-9.948332260839999108e+00,-1.138022267450000058e+01,1.942618608470000119e+00,6.636792659759999324e+00,-5.704500198359999885e+00,0.000000000000000000e+00
2.755177556000000028e+00,-7.530495458080000759e+00,-8.718697526899999772e+00,-1.337350661579999844e+01,2.172782421109999529e+00,6.525284767150000498e+00,-6.169762611390000373e+00,0.000000000000000000e+00
2.760176475999999823e+00,-9.237150322879999820e+00,-7.611877856249999574e+00,-1.479142695630000048e+01,2.476476907729999954e+00,6.448711395260000145e+00,-6.550670146939999938e+00,0.000000000000000000e+00
2.765165827000000132e+00,-1.091977257019999925e+01,-6.965518811339999061e+00,-1.614031876880000027e+01,2.814636230470000111e+00,6.377717494959999733e+00,-6.765576362610000061e+00,0.000000000000000000e+00
2.769998844999999932e+00,-1.209978198019999951e+01,-7.370121940769999824e+00,-1.711889258329999919e+01,3.159281492229999877e+00,6.268964767459999088e+00,-6.874001026150000193e+00,0.000000000000000000e+00
2.775131415999999795e+00,-1.359308810880000173e+01,-7.508852950589998798e+00,-1.847263475839999813e+01,3.486258029940000114e+00,6.136897563929999855e+00,-6.932816982270000317e+00,0.000000000000000000e+00
2.780012222999999949e+00,-1.602791404030000066e+01,-7.377681562370000279e+00,-2.025806505369999755e+01,3.703922033309999584e+00,5.952423095700000388e+00,-6.985711097719999430e+00,0.000000000000000000e+00
2.785204602999999945e+00,-1.921653004839999923e+01,-7.390472070360000423e+00,-2.190864030390000039e+01,3.832864999769999947e+00,5.733448505399999284e+00,-6.993860721589999052e+00,0.000000000000000000e+00
2.790184750999999963e+00,-2.257418160369999782e+01,-8.075010916069999212e+00,-2.390014612959999951e+01,3.836486816409999889e+00,5.530553340909999172e+00,-7.001216888430000118e+00,0.000000000000000000e+00
2.795105740999999977e+00,-2.621847918650000153e+01,-8.970644581539998441e+00,-2.588204942960000210e+01,3.702645301819999624e+00,5.373023509980000334e+00,-6.944667816160000839e+00,0.000000000000000000e+00
2.799993290000000190e+00,-2.904520834030000387e+01,-9.841102889220000094e+00,-2.750605932889999750e+01,3.377804994579999942e+00,5.271885395049999978e+00,-6.832360744480000747e+00,0.000000000000000000e+00
2.804991396000000137e+00,-3.133559891290000010e+01,-1.066203816430000018e+01,-2.796273459090000202e+01,2.958199024200000249e+00,5.261586666110000365e+00,-6.624330043790000566e+00,0.000000000000000000e+00
2.810229740000000032e+00,-3.308408859389999890e+01,-1.056737250619999990e+01,-2.789750194800000216e+01,2.380852460859999908e+00,5.336724758149999914e+00,-6.094989299769999924e+00,0.000000000000000000e+00
2.815119461000000101e+00,-3.494152847889999691e+01,-8.313348547539998634e+00,-2.698031228429999828e+01,1.842119216920000024e+00,5.363597869869999535e+00,-5.390076160429999597e+00,0.000000000000000000e+00
2.820062669999999994e+00,-3.635076399320000462e+01,-5.755434581039999387e+00,-2.609554254269999873e+01,1.431269168849999884e+00,5.303831577300000433e+00,-4.686221599579999619e+00,0.000000000000000000e+00
2.825202814999999923e+00,-3.702024964670000173e+01,-4.416861625740000186e+00,-2.444628129770000058e+01,1.097619891170000139e+00,5.121437072750000041e+00,-3.915056943889999808e+00,0.000000000000000000e+00
2.830156773000000126e+00,-3.843297358760000293e+01,-3.592489361930000236e+00,-2.204839481159999792e+01,8.385698795320000176e-01,4.835975646969999708e+00,-3.080784320829999867e+00,0.000000000000000000e+00
2.835222359999999941e+00,-3.959705594519999750e+01,-3.750650756150000209e+00,-1.905944914290000014e+01,6.113263964649999771e-01,4.477217197419999906e+00,-2.253053665159999941e+00,0.000000000000000000e+00
2.840202898999999892e+00,-3.991416608459999793e+01,-5.124322789619999874e+00,-1.552827875760000076e+01,3.261871635909999734e-01,4.219828605650000064e+00,-1.377043604850000103e+00,0.000000000000000000e+00
2.845235229000000032e+00,-3.981320746379999775e+01,-6.739193689219999506e+00,-1.210067396060000000e+01,2.151005528870000155e-02,4.034032821660000323e+00,-4.820996522899999581e-01,0.000000000000000000e+00
2.850074881999999921e+00,-3.905576763250000027e+01,-7.295120768060001204e+00,-8.361609597360001089e+00,-2.056407928469999868e-01,3.931356430050000128e+00,4.548704326149999866e-01,0.000000000000000000e+00
2.855034238000000002e+00,-3.771768012260000091e+01,-5.589463097599999486e+00,-4.095670062230000852e+00,-2.358288764950000060e-01,3.789268732069999590e+00,1.413539290429999928e+00,0.000000000000000000e+00
2.860065039999999836e+00,-3.556400922010000443e+01,-1.575314257500000092e+00,4.083891507760000206e-01,1.281694415960000187e-02,3.494510173799999730e+00,2.328763723370000260e+00,0.000000000000000000e+00
2.865035623999999892e+00,-3.297481807180000146e+01,2.472430854999999816e+00,3.187697724190000415e+00,4.906224906440000422e-01,3.095992326740000244e+00,3.013771295550000229e+00,0.000000000000000000e+00
2.870033508000000122e+00,-3.051233022639999959e+01,5.279799767060000093e+00,4.310103671030000250e+00,1.055641055110000170e+00,2.504143476490000353e+00,3.298692226409999595e+00,0.000000000000000000e+00
2.875033703000000163e+00,-2.888741314909999858e+01,6.533747104470000622e+00,4.433313871110000193e+00,1.417998552319999828e+00,1.667453646660000066e+00,3.194183111190000091e+00,0.000000000000000000e+00
2.880071329999999818e+00,-1.120556987199999988e+01,-6.115038877319999955e+00,-4.363974669690000141e+00,5.465926527979999561e-01,1.330576062200000020e+00,2.607264041900000162e+00,0.000000000000000000e+00
2.885026706000000107e+00,-3.905276786619999996e+01,4.731022559969999541e+00,7.869894001669999639e+00,-1.101363062859999964e+00,-2.052651166920000048e+00,6.230488419530000321e-01,0.000000000000000000e+00
2.890212684000000198e+00,-3.147011376630000257e+01,-2.761541226859999920e+00,1.440129366619999907e+01,-3.086202859879999760e+00,-2.656429052350000042e+00,-2.035319507119999760e-01,0.000000000000000000e+00
2.895081999999999933e+00,-3.373721698680000003e+01,1.382263847659999934e-01,5.903187101710000384e+00,-4.793308258059999716e+00,-4.296049118040000003e+00,-1.714091897010000087e+00,0.000000000000000000e+00
2.900011294000000017e+00,-4.956694771140000455e+00,2.102894581969999843e-01,4.531113735609999971e+00,-5.132701396939999938e+00,-5.533457756039999786e+00,-2.637105226520000123e+00,0.000000000000000000e+00
2.905123746000000118e+00,3.669594813440000269e+00,1.597876860890000117e+01,-1.966665515809999931e+01,-3.804668426509999701e+00,-5.279428958889999635e+00,-2.672560453410000036e+00,0.000000000000000000e+00
2.910198869999999882e+00,2.306463755469999910e+01,2.741923444749999916e+01,-3.629019115879999902e+01,-2.149333953859999813e+00,-5.964462757109999735e+00,-3.563930511469999729e+00,0.000000000000000000e+00
2.915238932999999921e+00,-4.265676792539999873e+00,3.597683832610000110e+01,-3.259510096180000005e+01,-7.990028858179999416e-01,-7.322991371150000539e+00,-3.231911897659999866e+00,0.000000000000000000e+00
2.920201894999999936e+00,-3.074383362800000086e+01,2.172548153880000044e+01,-2.384883445999999907e+01,-2.917510271070000161e-01,-8.253956794740000547e+00,-2.973478794100000044e+00,0.000000000000000000e+00
2.925013854999999996e+00,-2.821931398150000092e+01,1.139316398920000140e+01,-1.247294426170000037e+01,2.785583734509999854e-01,-8.791136741639999030e+00,-1.303546547889999907e+00,0.000000000000000000e+00
2.929997665999999779e+00,-1.103419039200000107e+01,2.252687040190000189e+01,-2.354908929690000008e+01,3.143028914930000028e-01,-8.842428207399999351e+00,-1.986805200580000208e-01,0.000000000000000000e+00
