t,ax,ay,az,wx,wy,wz,zv
5.129212999999999655e-03,-2.463829030869999936e+00,9.085659268709998099e-03,-9.509445753539999657e+00,-5.377568304540000094e-03,-5.812359508129999464e-03,1.384949078780000004e-03,1.000000000000000000e+00
1.025595399999999942e-02,-2.423826252440000051e+00,6.376623273140000214e-02,-9.498949493959999657e+00,-9.196510538459998566e-03,-2.087565604599999833e-03,-1.376440376039999962e-02,1.000000000000000000e+00
1.531754500000000012e-02,-2.440400662879999683e+00,4.708079966199999605e-02,-9.492398172619999741e+00,-3.090528538449999803e-03,-1.112867053599999982e-02,-7.780347019430000968e-03,1.000000000000000000e+00
2.014101899999999959e-02,-2.535556588740000006e+00,3.891246244669999826e-02,-9.503396536500000380e+00,-1.255340641359999803e-03,-2.280027139929999887e-03,1.064503844829999858e-02,1.000000000000000000e+00
2.508656100000000028e-02,-2.490290336820000228e+00,5.715517142810000450e-02,-9.457015309069999986e+00,-1.732176728550000044e-02,-9.770601987839999322e-03,6.206886842850000731e-03,1.000000000000000000e+00
3.008031400000000036e-02,-2.445015317070000194e+00,4.031385367719999419e-02,-9.469478484810000651e+00,-2.354085678230000058e-03,2.450384199619999939e-02,-9.877937845889998500e-03,1.000000000000000000e+00
3.506883100000000170e-02,-2.505068511490000205e+00,8.913826386980000516e-02,-9.463819143869999451e+00,7.365652825680000376e-03,1.776500139390000061e-03,3.842313541100000288e-03,1.000000000000000000e+00
4.007614500000000052e-02,-2.457089201220000074e+00,7.477305390889998904e-02,-9.461073644549999884e+00,-1.484435796739999938e-02,-2.852480392899999981e-03,9.456862695520000875e-03,1.000000000000000000e+00
4.507186999999999999e-02,-2.464848144789999917e+00,4.728149616610000106e-02,-9.491985500169999312e+00,6.661032326520000164e-03,4.810851532970000051e-04,-1.540754456069999936e-04,1.000000000000000000e+00
5.007587100000000097e-02,-2.478770579419999898e+00,3.897891071239999866e-02,-9.487291204869999106e+00,4.129270091650000078e-03,4.248966928570000259e-03,-2.881886903199999878e-04,1.000000000000000000e+00
5.525472000000000022e-02,-2.459767772779999806e+00,1.287721815919999971e-02,-9.473230530820000439e+00,-5.158577579999999545e-03,8.138179779050000451e-03,-2.375480020420000019e-03,1.000000000000000000e+00
6.027966399999999669e-02,-2.471152213369999906e+00,4.246213145200000011e-02,-9.490191602490000378e+00,2.398061333219999713e-03,-1.583221252079999777e-03,2.171029569580000020e-03,1.000000000000000000e+00
6.525714400000000304e-02,-2.499184129630000140e+00,7.840084335139999028e-02,-9.478475445730000004e+00,-6.456403061750000394e-03,5.787023343150000249e-03,-6.392360664899999784e-04,1.000000000000000000e+00
7.014199200000000023e-02,-2.496932843569999783e+00,6.517458342569999730e-02,-9.485036703939998759e+00,-1.183457672599999956e-03,1.284573692829999976e-03,7.485869340599999623e-03,1.000000000000000000e+00
7.523759900000000223e-02,-2.465658292130000095e+00,4.861526095399999747e-02,-9.470839836289998814e+00,6.483657285569999380e-03,1.258146949109999885e-02,3.820694750169999817e-03,1.000000000000000000e+00
8.028354399999999835e-02,-2.488864103410000084e+00,4.640620203580000241e-02,-9.451703174139998609e+00,-4.215432330969999530e-03,-4.297852981840000371e-03,1.138496771449999841e-02,1.000000000000000000e+00
8.506037199999999521e-02,-2.434693975670000121e+00,5.947193307099999521e-02,-9.450820546090000107e+00,8.629430085419999633e-03,3.798924386500000371e-03,-4.901210777460000487e-03,1.000000000000000000e+00
9.004655799999999877e-02,-2.465631404119999814e+00,9.737202187100001127e-02,-9.469037755300000470e+00,1.920206658540000305e-02,-9.112454950809999177e-03,-4.518400412050000564e-03,1.000000000000000000e+00
9.525102400000000358e-02,-2.493710374399999985e+00,5.694309044680000154e-02,-9.477571774890000356e+00,1.272182725370000177e-02,7.133776322009999921e-03,-2.363184234130000054e-03,1.000000000000000000e+00
1.000572299999999970e-01,-2.465380936490000341e+00,5.653955571380000350e-02,-9.516298103649999618e+00,-9.220659267160000692e-04,-3.756134537979999907e-03,-4.950592294340000477e-03,1.000000000000000000e+00
1.052305220000000069e-01,-2.451205550010000067e+00,1.744892368859999807e-02,-9.490279280770000270e+00,-1.507616974410000074e-02,1.654505357150000064e-02,-5.899338051680000188e-03,1.000000000000000000e+00
1.100703239999999972e-01,-2.527798229700000121e+00,3.638012182430000463e-02,-9.515689616359999548e+00,1.406601537020000202e-02,2.818182110789999931e-05,1.524355355650000056e-02,1.000000000000000000e+00
1.152479389999999937e-01,-2.437315848609999502e+00,9.372488840720000214e-02,-9.484097961789998976e+00,-1.523155998439999943e-02,1.627040840689999990e-02,-6.181522272530000361e-03,1.000000000000000000e+00
1.202701709999999952e-01,-2.480904376579999848e+00,2.918548847929999801e-02,-9.514964809219998543e+00,3.989025019110000250e-03,3.801458515229999904e-03,1.430122647429999891e-04,1.000000000000000000e+00
1.252461360000000079e-01,-2.475287705740000010e+00,6.406318811769999566e-02,-9.479977082470000482e+00,-1.295518130059999939e-03,-9.559277445080000338e-03,-7.650336250660000337e-03,1.000000000000000000e+00
1.301085760000000036e-01,-2.453750704449999986e+00,4.120508059559999797e-02,-9.485126135790000745e+00,2.173243556170000078e-04,6.003077141939999577e-03,3.882261225949999728e-03,1.000000000000000000e+00
1.350404709999999953e-01,-2.432113749920000068e+00,4.380048565000000532e-02,-9.469011451819998371e+00,1.427341718230000153e-03,-1.190814655270000126e-04,-6.554079242050000684e-03,1.000000000000000000e+00
1.400636010000000098e-01,-2.478440909070000142e+00,5.175916217000000458e-02,-9.507522092000000313e+00,3.542004153130000506e-03,3.118553198869999498e-03,1.152260322120000208e-02,1.000000000000000000e+00
1.452716679999999927e-01,-2.477685706789999998e+00,7.690879642910000702e-02,-9.498596442739998480e+00,-4.085551481690000153e-03,4.752043634649999286e-03,1.601335592569999924e-02,1.000000000000000000e+00
1.501265910000000037e-01,-2.425280104509999646e+00,8.416524296389998883e-02,-9.469880051339998772e+00,-2.866669557989999766e-03,-1.398580614480000005e-02,1.218617986890000067e-02,1.000000000000000000e+00
1.551196119999999901e-01,-2.439172436259999799e+00,-4.487278648999999827e-04,-9.501721296760001323e+00,3.039247356359999798e-03,-1.385402027519999982e-02,-1.161649939599999860e-03,1.000000000000000000e+00
1.601389400000000074e-01,-2.437175124959999994e+00,3.987131580780000489e-02,-9.506272968719999383e+00,1.646855380390000118e-03,-3.392874728889999723e-03,-3.612058237199999682e-03,1.000000000000000000e+00
1.653020099999999992e-01,-2.445991614759999599e+00,6.889851301939999006e-02,-9.457135720580000182e+00,6.551071070130000222e-03,-1.892742514609999788e-02,-9.188730269669998993e-03,1.000000000000000000e+00
1.703084950000000042e-01,-2.488920802029999990e+00,3.671023741139999713e-02,-9.473063942080001354e+00,1.154600549489999926e-02,1.909025944770000038e-02,-2.312679309400000188e-03,1.000000000000000000e+00
1.752615829999999986e-01,-2.465740709709999923e+00,5.814844308199999812e-02,-9.461859241970000056e+00,2.997293369840000037e-03,-1.153975073249999955e-02,2.694158116360000077e-03,1.000000000000000000e+00
1.801534220000000075e-01,-2.476416125250000100e+00,4.386014341529999999e-02,-9.473014257719999165e+00,-3.722933353859999780e-03,3.820208366959999997e-03,1.419715816160000040e-03,1.000000000000000000e+00
1.852846979999999977e-01,-2.486908293169999951e+00,4.966826800509999834e-02,-9.497514492719998813e+00,-6.273433100429999954e-04,-9.374033659699999854e-03,-4.862684756520000220e-03,1.000000000000000000e+00
1.902918520000000113e-01,-2.435918110640000300e+00,6.523294428309998894e-02,-9.454507710169998802e+00,1.101583801209999984e-02,-8.539284579460000232e-03,1.478328602389999968e-03,1.000000000000000000e+00
1.952890150000000102e-01,-2.479678049649999938e+00,4.711414024259999445e-02,-9.513315288450000295e+00,9.230552823280000537e-04,1.634855289010000122e-03,-3.043477190659999668e-03,1.000000000000000000e+00
2.000699180000000132e-01,-2.552249657129999960e+00,7.945724793600000835e-02,-9.497323938590000125e+00,9.200918488200000162e-03,5.193923600020000295e-03,1.691640540960000216e-02,1.000000000000000000e+00
2.052448239999999924e-01,-2.427955461199999831e+00,2.918889514590000331e-02,-9.507138645639999552e+00,1.138202147560000077e-03,-3.415206214409999795e-03,5.406121723350000401e-03,1.000000000000000000e+00
2.102753430000000034e-01,-2.479405370190000291e+00,4.487413819690000416e-02,-9.497757069310001299e+00,-1.978882588450000049e-03,-3.347694873810000069e-03,1.387749798600000336e-04,1.000000000000000000e+00
2.153018959999999926e-01,-2.486150460540000218e+00,7.587192766200000216e-02,-9.487399341419999743e+00,-3.302603727209999993e-03,-8.694833144549999476e-03,1.020506955679999998e-03,1.000000000000000000e+00
2.203029559999999942e-01,-2.484580726999999989e+00,3.666326331430000418e-02,-9.483450311539998623e+00,1.262525934729999931e-02,9.082403965290001754e-03,-4.338470753279999770e-04,1.000000000000000000e+00
2.252569779999999966e-01,-2.432765784089999883e+00,1.349338985420000039e-02,-9.531084753889999206e+00,-6.754888687279999963e-03,2.227058168500000053e-03,-5.994522944089999278e-03,1.000000000000000000e+00
2.302851370000000009e-01,-2.500431499340000308e+00,4.960977928349999400e-02,-9.496845215160000464e+00,6.620915140960000403e-03,5.527152679859999480e-03,3.769831033419999804e-03,1.000000000000000000e+00
2.352858640000000112e-01,-2.475653031919999858e+00,4.245409427599999841e-02,-9.489138878569999491e+00,1.251202728599999994e-02,-6.362767424430000769e-03,1.305363234129999946e-02,1.000000000000000000e+00
2.402783880000000094e-01,-2.434798020570000165e+00,5.183830552049999846e-02,-9.510262915140000217e+00,6.049976684149999985e-03,-1.198913436379999906e-02,-5.766852293160000011e-03,1.000000000000000000e+00
2.452470399999999995e-01,-2.452091539069999993e+00,5.918072700549999871e-02,-9.473092583650000620e+00,1.768816495309999924e-03,-5.238826852290000974e-04,8.139510173350001212e-04,1.000000000000000000e+00
2.501118680000000150e-01,-2.484581311519999947e+00,4.256992550830000083e-02,-9.487143905359999962e+00,-7.485146634279998996e-03,-8.359903469679999879e-03,6.221022922549999598e-04,1.000000000000000000e+00
2.551010309999999781e-01,-2.488361999099999888e+00,7.237376964819999814e-02,-9.476811311910001479e+00,6.059510633350000640e-03,-7.779565639790000063e-03,5.667862482369999920e-03,1.000000000000000000e+00
2.600358549999999824e-01,-2.486636782750000219e+00,7.001954837200000115e-02,-9.464349889750000244e+00,1.094233803449999945e-02,-1.384886447340000042e-02,2.166862413290000094e-02,1.000000000000000000e+00
2.652651639999999977e-01,-2.422890579020000157e+00,3.427238840570000222e-02,-9.480181665130000823e+00,-1.076729316260000013e-02,-2.072894247250000026e-03,-5.522276274859999785e-03,1.000000000000000000e+00
2.702900249999999893e-01,-2.460771396870000238e+00,2.709948283540000377e-02,-9.467035183310001045e+00,1.133367326109999997e-02,-7.614505942909998923e-03,7.912863045930000269e-03,1.000000000000000000e+00
2.752853419999999884e-01,-2.435801936909999910e+00,4.260815689310000487e-02,-9.470138410020000563e+00,2.305349335069999898e-03,3.013548906889999737e-03,-1.630410086359999769e-03,1.000000000000000000e+00
2.802362760000000064e-01,-2.471010466810000139e+00,2.694821724680000058e-02,-9.494928567880000614e+00,9.462991729379999564e-03,6.008716300129999729e-03,4.174473695460000078e-03,1.000000000000000000e+00
2.852823239999999760e-01,-2.449840691399999937e+00,3.283651951690000348e-02,-9.498761277910000800e+00,-7.862372323869999680e-03,8.634731639179999601e-04,2.887943526730000349e-03,1.000000000000000000e+00
2.902913710000000203e-01,-2.462296414479999918e+00,3.565315925659999496e-02,-9.457563006090000002e+00,8.375162258740000143e-03,1.104112341999999997e-02,-3.555845003579999764e-03,1.000000000000000000e+00
2.952766410000000064e-01,-2.463914955589999956e+00,3.295114517270000126e-02,-9.484518233030000189e+00,-1.594569766889999962e-03,-6.696627475319999641e-03,3.574852133170000092e-03,1.000000000000000000e+00
3.001642829999999762e-01,-2.406674334369999890e+00,4.718783566650000538e-02,-9.474869530189998557e+00,-7.374329026790000553e-03,5.714124999939999621e-04,-1.267444109539999850e-03,1.000000000000000000e+00
3.053310370000000273e-01,-2.432170886940000276e+00,4.732084636239999864e-02,-9.469401327920000000e+00,-3.604485187680000167e-03,1.259979791939999953e-03,-5.302100442350000074e-03,1.000000000000000000e+00
3.103303020000000023e-01,-2.458921969609999980e+00,4.520354368119999799e-02,-9.449566162110000889e+00,3.455529804339999922e-04,8.541374467310000607e-03,-8.496972732250000424e-03,1.000000000000000000e+00
3.152879239999999972e-01,-2.507529640910000079e+00,3.048994040769999886e-02,-9.502956391519999713e+00,-2.754857297989999742e-03,7.204378955069998779e-03,9.844973683360000449e-03,1.000000000000000000e+00
3.202923970000000065e-01,-2.434795682479999890e+00,3.893463317930000167e-02,-9.484285008789999694e+00,1.210896577690000024e-02,1.477212645109999807e-03,-2.701590070500000176e-03,1.000000000000000000e+00
3.252672739999999951e-01,-2.465820496949999718e+00,4.491121423769998955e-02,-9.477418045630001231e+00,8.735645562409998996e-03,3.973950166260000090e-03,4.899591207499999837e-03,1.000000000000000000e+00
3.302713789999999761e-01,-2.437682928360000112e+00,3.310589734299999864e-02,-9.466627187030001167e+00,3.707089344969999940e-04,-1.645551063119999984e-03,-1.317997113800000028e-03,1.000000000000000000e+00
3.352546180000000042e-01,-2.443598874400000120e+00,1.900324502509999694e-02,-9.442941775539999583e+00,-2.567031886429999715e-03,-2.253752201800000247e-03,2.783716190609999671e-04,1.000000000000000000e+00
3.401505969999999990e-01,-2.469199618000000207e+00,4.845407447630000614e-02,-9.484323002720000062e+00,-6.473083514720000264e-03,-3.628248814490000335e-04,4.740880802270000700e-03,1.000000000000000000e+00
3.450176440000000122e-01,-2.426527766480000015e+00,4.730708269850000119e-02,-9.469505957339999114e+00,-1.374667393970000059e-03,1.215520966800000095e-02,-3.399262204770000444e-04,1.000000000000000000e+00
3.500913749999999824e-01,-2.478944474680000010e+00,5.185827059630000041e-02,-9.511225038169998314e+00,-6.177779752759999729e-03,-6.798650138080000391e-03,-6.793818902220001262e-04,1.000000000000000000e+00
3.550914869999999834e-01,-2.446117433089999960e+00,-5.344406364170000041e-03,-9.514992866269999183e+00,-9.770401753490001034e-03,-4.953388124700000301e-04,-7.251460105179999630e-03,1.000000000000000000e+00
3.601475969999999860e-01,-2.509858668380000157e+00,3.787485846059999994e-02,-9.482176053819999950e+00,-2.812883816660000091e-02,4.492749925700000035e-03,2.605621935800000229e-03,1.000000000000000000e+00
3.652906309999999768e-01,-2.461806000609999767e+00,6.144191340309999860e-02,-9.506317976900000133e+00,-8.963303407649999633e-04,3.853539004919999747e-03,-1.004627998919999966e-02,1.000000000000000000e+00
3.702949099999999771e-01,-2.471994509409999985e+00,7.235356254380000129e-02,-9.472508646279999667e+00,-7.754106540229998949e-03,1.626330800349999953e-02,-5.164529196920000439e-03,1.000000000000000000e+00
3.752587070000000247e-01,-2.453930152670000364e+00,4.226427079230000300e-02,-9.508411149789999683e+00,-5.660078022630000115e-03,-6.123467348519999812e-03,-3.691904479639999785e-03,1.000000000000000000e+00
3.801634580000000097e-01,-2.487486677579999750e+00,3.644938081830000759e-02,-9.512933595650000740e+00,-2.096319571140000011e-03,-1.213489100339999911e-02,-9.565519168969999209e-03,1.000000000000000000e+00
3.852861969999999969e-01,-2.484837039849999929e+00,5.799644455780000180e-02,-9.479729245189998821e+00,6.343713961539999488e-03,1.098394859579999858e-04,4.785181023180000784e-03,1.000000000000000000e+00
3.902664479999999880e-01,-2.481366441130000045e+00,4.871890399150000106e-02,-9.461137357440000173e+00,-6.736478768289999933e-03,-7.469437550750000071e-03,6.335967220369999667e-03,1.000000000000000000e+00
3.952474570000000242e-01,-2.443826837940000107e+00,7.339850958610001641e-02,-9.493672430339998414e+00,4.355922341350000268e-03,3.618992399420000242e-03,-8.656063117089999454e-03,1.000000000000000000e+00
4.001548739999999937e-01,-2.445772272919999768e+00,4.851593789850000560e-02,-9.468252157880000297e+00,-9.253628551960000129e-03,8.209872059520000043e-03,-5.134302191439999580e-03,1.000000000000000000e+00
4.053114449999999924e-01,-2.512308984140000145e+00,5.202907885230000085e-02,-9.495440024540000579e+00,2.961999271060000282e-03,-2.663573250170000409e-03,6.680818274619999310e-03,1.000000000000000000e+00
4.101669869999999829e-01,-2.483205639259999931e+00,4.364740941350000319e-02,-9.501375259799999640e+00,2.734117954969999750e-02,3.420745488259999915e-03,4.191097803410000384e-03,1.000000000000000000e+00
4.153011360000000152e-01,-2.442664954550000100e+00,1.389627042510000084e-02,-9.500163545930000453e+00,7.603272330020000372e-03,5.129785276949999813e-03,-1.555144041779999917e-02,1.000000000000000000e+00
4.202735759999999821e-01,-2.521871469999999782e+00,3.268984105520000155e-02,-9.526619591180001123e+00,-2.555525628849999748e-03,1.130712218579999883e-03,6.426515057680000365e-03,1.000000000000000000e+00
4.253325600000000262e-01,-2.443301060500000066e+00,3.294771795650000556e-02,-9.487887417199999618e+00,2.028768882160000234e-03,-9.961752220990000213e-05,-6.181735079739999594e-04,1.000000000000000000e+00
4.303085979999999866e-01,-2.479993399209999616e+00,7.362662382010000395e-02,-9.466309791639998750e+00,1.047420501710000056e-02,-1.962232775990000247e-02,4.090406931939999553e-03,1.000000000000000000e+00
4.353075390000000211e-01,-2.494961543500000101e+00,4.367374943119999714e-02,-9.493374908699999892e+00,-3.098001936449999976e-03,8.656731806700001045e-03,1.370695699010000129e-02,1.000000000000000000e+00
4.401683319999999955e-01,-2.484244334650000052e+00,4.998394635810000236e-02,-9.458342173760000193e+00,1.541541889309999778e-03,-6.345882080500000501e-03,9.418965317309999086e-03,1.000000000000000000e+00
4.450910129999999798e-01,-2.432717853290000232e+00,5.539305712640000406e-02,-9.503706333100000236e+00,1.068542618300000017e-02,7.742793299260000012e-03,-4.179661627859999873e-04,1.000000000000000000e+00
4.501236040000000105e-01,-2.439564796580000028e+00,5.431601161249999948e-02,-9.487242689560000386e+00,4.356314428149999848e-03,-6.388889160010000068e-03,-2.480521798130000313e-03,1.000000000000000000e+00
4.551771030000000273e-01,-2.453652797029999721e+00,3.814307637619999969e-02,-9.446707850070000134e+00,-7.590787019579999829e-03,9.865850210190001482e-03,-1.573590189220000143e-02,1.000000000000000000e+00
4.601742939999999837e-01,-2.483361414340000017e+00,3.177559630409999836e-02,-9.493318210079999986e+00,3.986119292679999801e-03,6.601505912839999470e-03,-1.152238529179999867e-02,1.000000000000000000e+00
4.653290480000000229e-01,-2.486256259000000135e+00,2.105988072740000092e-02,-9.486638293920000464e+00,-5.292963702229999332e-03,9.161084890370001579e-03,3.848505439240000169e-03,1.000000000000000000e+00
4.702698109999999820e-01,-2.436068478899999779e+00,3.408431620440000032e-02,-9.486069554120000191e+00,9.130698628719999266e-03,5.191637203100001041e-03,2.889575669539999961e-03,1.000000000000000000e+00
4.751339949999999757e-01,-2.473753043519999917e+00,5.563151465789999833e-02,-9.484064059519999645e+00,8.096922188999999132e-03,-1.629795134070000096e-02,4.243277944619999568e-03,1.000000000000000000e+00
4.801478069999999820e-01,-2.452378831579999918e+00,6.650193673910000103e-02,-9.463938386339998843e+00,1.192012568940000036e-03,-4.869805648919999820e-03,-3.963503055269999679e-03,1.000000000000000000e+00
4.852777659999999993e-01,-2.497878892250000149e+00,4.257494874329999929e-02,-9.480419565539998317e+00,9.679985814730000370e-04,-3.347230143849999704e-03,1.019892096519999999e-02,1.000000000000000000e+00
4.902939929999999835e-01,-2.453914078319999970e+00,5.698364165289999950e-02,-9.467234505269999545e+00,-6.553657585750001079e-04,4.255241248760000330e-03,-9.679485810919999812e-04,1.000000000000000000e+00
4.952833189999999997e-01,-2.469536887129999858e+00,1.048866535510000093e-02,-9.476629525599999937e+00,1.022140309210000167e-02,3.157993312929999619e-03,-9.048891952260000550e-04,1.000000000000000000e+00
5.003721399999999653e-01,-2.463909694890000335e+00,5.316222933439999909e-02,-9.492534366219999242e+00,-1.275866664949999903e-02,3.815560135990000035e-03,-2.162899589169999925e-03,1.000000000000000000e+00
5.052467430000000537e-01,-2.464634209779999807e+00,6.023072468220000419e-02,-9.496445986710000398e+00,1.649234443900000164e-03,1.687651034439999979e-03,1.881833886730000047e-03,1.000000000000000000e+00
5.103427209999999992e-01,-2.499605569909999936e+00,1.069642361429999911e-01,-9.480779631020000764e+00,5.773013457659999757e-03,1.781040802599999926e-03,-5.728274118160000226e-03,1.000000000000000000e+00
5.152978059999999694e-01,-2.467108490929999842e+00,9.250385871220000167e-02,-9.477643671080000942e+00,-2.705528168010000456e-03,3.067586105320000301e-03,4.800630267709999959e-04,1.000000000000000000e+00
5.203088879999999694e-01,-2.463368427619999856e+00,7.693446972639998716e-02,-9.493944233019998791e+00,2.923539839679999749e-03,-7.318024523560001139e-03,-2.500056289140000095e-04,1.000000000000000000e+00
5.252846340000000280e-01,-2.443755964659999780e+00,2.700780651349999825e-02,-9.485561020080000461e+00,1.168283866720000019e-03,5.252921953800000592e-03,-5.277950316670000121e-03,1.000000000000000000e+00
5.303145089999999895e-01,-2.476509941009999771e+00,2.588378918590000452e-02,-9.479482576949999739e+00,1.109107024970000174e-02,-1.172640360889999969e-02,4.562955349679999849e-03,1.000000000000000000e+00
5.351333059999999753e-01,-2.462353697619999782e+00,2.933152762020000207e-02,-9.499368596160000067e+00,7.244688924399999251e-03,-9.228013455870001658e-03,-1.341975294049999978e-04,1.000000000000000000e+00
5.401512090000000210e-01,-2.486863284980000088e+00,5.581607287800000039e-02,-9.463716852539999280e+00,5.802061408760000524e-03,2.208092249929999914e-03,6.714074872430001069e-03,1.000000000000000000e+00
5.451116799999999873e-01,-2.458262628920000026e+00,4.495366970649999905e-02,-9.484895249650000082e+00,4.127593245360000260e-03,-2.185341902079999954e-02,-4.798863548789999989e-03,1.000000000000000000e+00
5.500978130000000466e-01,-2.502358668009999842e+00,4.957700495849999556e-02,-9.504894666100000222e+00,8.026063442229999095e-03,2.544471528379999882e-03,6.895787082610000231e-04,1.000000000000000000e+00
5.551490430000000087e-01,-2.436002135659999901e+00,3.878905526269999654e-02,-9.502105912170000224e+00,9.023564867680000309e-03,4.290467593820000182e-03,-1.248764898629999877e-02,1.000000000000000000e+00
5.601528989999999819e-01,-2.502930038159999704e+00,3.199456825040000035e-02,-9.474938503780000687e+00,-3.194633405659999623e-03,3.184174653139999669e-03,-6.810557097199998987e-03,1.000000000000000000e+00
5.652754789999999696e-01,-2.464815119299999857e+00,4.149561994079999788e-02,-9.466202824139999805e+00,-7.822098210450000727e-03,1.419177651410000011e-02,-7.664551958439999590e-03,1.000000000000000000e+00
5.701388410000000073e-01,-2.463029989449999846e+00,2.935327137779999984e-02,-9.486946336960000892e+00,1.472079381349999938e-02,3.801877144719999820e-03,2.024716231970000201e-04,1.000000000000000000e+00
5.751374719999999829e-01,-2.518422206329999913e+00,5.837248849569999509e-02,-9.450127303130001266e+00,-1.502061914649999858e-02,-1.503545697779999808e-02,1.464353594929999891e-02,1.000000000000000000e+00
5.801461700000000166e-01,-2.441798108590000460e+00,3.293974471259999981e-02,-9.500205046980001455e+00,-4.703124519440000061e-03,-1.686298404819999925e-03,-7.215739227830000185e-03,1.000000000000000000e+00
5.852839899999999762e-01,-2.494336105079999921e+00,6.412435285360000570e-02,-9.462797984130000728e+00,3.572908695789999908e-03,-2.685900079090000354e-03,7.172285579140000311e-03,1.000000000000000000e+00
5.902882990000000163e-01,-2.450814504870000299e+00,5.799530748010000430e-02,-9.480852696260001267e+00,8.838593959809999331e-03,7.928879000249999462e-03,2.955601783469999789e-03,1.000000000000000000e+00
5.953137729999999905e-01,-2.434675270970000138e+00,3.054494483080000267e-02,-9.493623330500000179e+00,4.713597707449999549e-03,6.329821422699999367e-03,-1.217410992829999830e-02,1.000000000000000000e+00
6.002325920000000092e-01,-2.509566115180000168e+00,5.431279674209999603e-02,-9.497295297010001747e+00,-2.200117707249999929e-02,-5.877708084880000315e-03,9.521341882650000837e-03,1.000000000000000000e+00
6.052555699999999650e-01,-2.460840370449999703e+00,2.600090819300000106e-02,-9.469677806769999151e+00,1.474351901560000226e-02,1.989771146329999754e-03,6.789426319299999950e-03,1.000000000000000000e+00
6.102955230000000064e-01,-2.451657969959999850e+00,9.383437666360000540e-02,-9.462093635249999579e+00,-5.138027016069999370e-03,4.396948497739999739e-03,4.214769229290000335e-03,1.000000000000000000e+00
6.152812570000000258e-01,-2.474257778170000144e+00,2.682348118889999952e-02,-9.517048045230000142e+00,-1.696815714239999912e-02,3.841770347209999895e-03,2.162557793779999911e-03,1.000000000000000000e+00
6.202957559999999759e-01,-2.442178340079999899e+00,2.952769636300000070e-02,-9.470019167549999395e+00,-1.832807436590000102e-02,8.436163887380001072e-03,-4.566275514659999361e-03,1.000000000000000000e+00
6.252694819999999876e-01,-2.493404961709999590e+00,1.507090711989999936e-02,-9.503628007170000558e+00,8.286802098160000324e-03,-1.196381635959999963e-04,-5.937265232209999874e-04,1.000000000000000000e+00
6.301323330000000444e-01,-2.462372402319999765e+00,4.392496597960000165e-02,-9.463606962420000102e+00,-1.116276253009999917e-03,-6.743623875080000454e-03,-6.659143604340000099e-03,1.000000000000000000e+00
6.350808549999999997e-01,-2.483555183350000028e+00,7.014126135580001087e-02,-9.458967027659999971e+00,-6.667887791989999570e-03,2.961039077490000039e-03,-2.922161016609999776e-03,1.000000000000000000e+00
6.401650070000000081e-01,-2.462262512209999699e+00,6.398469778769999561e-02,-9.481688562560000477e+00,4.808105994020000010e-03,-3.990230616180000679e-04,-8.293966762719999844e-03,1.000000000000000000e+00
6.451439169999999557e-01,-2.527810504660000124e+00,2.956100269420000246e-02,-9.482022909079999451e+00,-5.614492576569999650e-03,-1.210301183159999969e-03,9.100582450629999751e-03,1.000000000000000000e+00
6.500867059999999586e-01,-2.417115210490000443e+00,5.086734616309999263e-02,-9.479620524110000446e+00,-7.208270486439999521e-03,2.418997697530000327e-03,-1.207431126389999811e-02,1.000000000000000000e+00
6.552780019999999706e-01,-2.509978203109999750e+00,3.085807960029999727e-02,-9.461156062140000600e+00,-3.734382335099999898e-03,3.899435047059999701e-03,6.638810969890000108e-03,1.000000000000000000e+00
6.602756610000000137e-01,-2.423564094370000088e+00,4.623256706849999953e-02,-9.461937567910000624e+00,-9.557052981110000225e-04,9.535003453489999253e-03,-6.990544497970000749e-03,1.000000000000000000e+00
6.652647809999999717e-01,-2.459545362200000085e+00,6.062522672539999435e-02,-9.451103454680000127e+00,-6.141241174189998771e-03,7.663750089699999588e-03,-5.801467224959999669e-03,1.000000000000000000e+00
6.702580599999999889e-01,-2.491132925120000063e+00,3.436767917349999729e-02,-9.464971236520000275e+00,2.993289614099999690e-03,1.463182270529999815e-02,6.988770328460000569e-03,1.000000000000000000e+00
6.750751069999999521e-01,-2.456510524550000074e+00,4.498589147570000030e-02,-9.469050030260000028e+00,-6.642364896830000448e-03,1.516394782809999883e-03,9.526984766129998478e-03,1.000000000000000000e+00
6.800793849999999807e-01,-2.449437079039999965e+00,5.767447346130000208e-02,-9.507806754160000651e+00,4.566466435790000368e-03,-8.484152145680001061e-03,1.705030910670000260e-02,1.000000000000000000e+00
6.852640239999999716e-01,-2.466722998749999896e+00,7.729006909789999658e-02,-9.468954168669998950e+00,-6.487167906020000624e-03,4.648992791770000486e-03,-1.780934515410000129e-03,1.000000000000000000e+00
6.902781860000000158e-01,-2.458538523249999663e+00,3.522915940759999837e-02,-9.496444817669999594e+00,-1.027294341470000143e-02,-7.705668453130000255e-03,2.282152185219999893e-03,1.000000000000000000e+00
6.952468769999999854e-01,-2.409629530909999762e+00,6.978238774839999603e-02,-9.480639345769999338e+00,3.649777267130000294e-03,6.051940843460000205e-03,-7.303850725289999686e-03,1.000000000000000000e+00
7.002842390000000306e-01,-2.438050592619999790e+00,5.553422372930000295e-02,-9.488146944920000436e+00,1.057734619829999931e-02,-4.951741546390000040e-03,-1.533787697549999877e-02,1.000000000000000000e+00
7.051253389999999621e-01,-2.519787064940000043e+00,5.087081219530000670e-02,-9.485166467799999168e+00,-2.651531947780000256e-03,-2.366282045840000132e-03,8.507311344150000204e-03,1.000000000000000000e+00
7.102642599999999806e-01,-2.486869130200000111e+00,7.017109023850000293e-02,-9.460968430610000368e+00,-7.537583005610001222e-04,-8.381691761310001293e-03,7.221622392540000095e-03,1.000000000000000000e+00
7.151109060000000461e-01,-2.403901654789999842e+00,4.357181429349999552e-02,-9.484121927189999468e+00,1.447691582140000002e-02,9.150493890049998108e-03,-3.674278501420000145e-03,1.000000000000000000e+00
7.201425649999999568e-01,-2.459734455039999990e+00,5.523734597479999786e-02,-9.524947274049999635e+00,9.397656656800000563e-03,2.283511217679999681e-03,-3.757445840169999860e-03,1.000000000000000000e+00
7.252602510000000224e-01,-2.456981356940000083e+00,8.800565224379999774e-02,-9.444435228959999762e+00,-1.384051050989999927e-02,1.798931509259999936e-02,1.239894190799999997e-03,1.000000000000000000e+00
7.301096750000000135e-01,-2.462859601319999925e+00,2.798413159920000101e-02,-9.509475564149999727e+00,2.997179748490000004e-03,2.370595559479999823e-02,6.822036579249999601e-03,1.000000000000000000e+00
7.350684440000000430e-01,-2.459929100820000158e+00,4.481513801860000090e-02,-9.498205397599999600e+00,1.280442113060000072e-03,-4.242072813210000584e-03,-5.308780819179999798e-04,1.000000000000000000e+00
7.400607820000000281e-01,-2.466355042220000016e+00,3.612169008380000657e-02,-9.542168457960000794e+00,-1.036576461050000078e-02,-1.329890731720000108e-02,-6.570043973619999964e-03,1.000000000000000000e+00
7.450337160000000125e-01,-2.481048168960000133e+00,5.442054056609999663e-02,-9.485333641060000431e+00,1.317542977630000063e-03,1.373696885999999874e-02,-6.141606718300000231e-06,1.000000000000000000e+00
7.500491190000000419e-01,-2.437381022799999908e+00,3.644486675670000064e-02,-9.488454403430001349e+00,-1.152191683649999958e-02,7.090688683090000735e-03,-6.092467810959999739e-04,1.000000000000000000e+00
7.552668080000000117e-01,-2.490956107250000162e+00,4.131128548299999731e-02,-9.497689849289999486e+00,5.303015466780000402e-03,-1.099026412700000168e-03,-7.112857420000000480e-04,1.000000000000000000e+00
7.602626740000000272e-01,-2.444939767619999760e+00,4.478986201349999946e-02,-9.487255549039998570e+00,-3.302452852950000118e-03,-1.579303294420000142e-02,1.390850404280000001e-03,1.000000000000000000e+00
7.651326200000000410e-01,-2.485180446459999803e+00,4.632665225990000024e-02,-9.472364269380001645e+00,-6.925419438629999876e-03,3.828833810989999784e-03,-7.069332525130000468e-03,1.000000000000000000e+00
7.700823220000000413e-01,-2.502031335759999919e+00,8.098187282060001491e-02,-9.436841120569999575e+00,-9.950730949639999962e-03,-2.216094871979999974e-03,1.414013374600000053e-02,1.000000000000000000e+00
7.752284940000000457e-01,-2.431772243010000167e+00,6.614331885999999439e-02,-9.505666234999999631e+00,3.835208714010000103e-03,-1.289092283699999966e-02,-4.963327664880000031e-03,1.000000000000000000e+00
7.800744210000000178e-01,-2.489952190909999974e+00,2.244091187319999930e-02,-9.479618186030000615e+00,1.185086183250000022e-02,-1.031339541079999943e-02,-6.317256484180001040e-03,1.000000000000000000e+00
7.849576280000000184e-01,-2.475304656870000120e+00,1.878338031289999988e-02,-9.478042315010000607e+00,4.544576629999999041e-03,-1.636261492969999856e-02,-5.255637224760000828e-04,1.000000000000000000e+00
7.900172570000000283e-01,-2.475163494840000311e+00,2.097867785050000142e-02,-9.497284191100000328e+00,1.195287564770000036e-03,-4.815095104279999705e-03,7.625164464119999624e-03,1.000000000000000000e+00
7.952415210000000068e-01,-2.419920038779999949e+00,6.626824214759999276e-02,-9.485773786050000211e+00,-4.208066966380000218e-03,-8.448786102239999249e-03,-1.078131422400000101e-02,1.000000000000000000e+00
8.002998279999999909e-01,-2.456450318799999977e+00,4.011271878159999860e-02,-9.488836680750001307e+00,4.254136583769999730e-04,-8.063807617869998964e-04,-1.627211272719999990e-02,1.000000000000000000e+00
8.050432220000000028e-01,-2.494721889529999626e+00,3.520510039530000412e-02,-9.502199435669998806e+00,-8.485332131389999519e-03,-1.392084546390000115e-02,2.571518765760000182e-03,1.000000000000000000e+00
8.102970480000000197e-01,-2.490054482240000144e+00,5.830616809410000406e-02,-9.455088724930000410e+00,5.773852579299999788e-03,-3.203227184710000230e-03,5.870465189220000837e-03,1.000000000000000000e+00
8.150791990000000320e-01,-2.512041565379999675e+00,5.690824289569999805e-02,-9.494550382219999918e+00,9.681579656900000594e-03,-5.357270129019999866e-05,1.401192275809999945e-03,1.000000000000000000e+00
8.200703419999999522e-01,-2.447807285880000183e+00,6.038909358169999853e-02,-9.477412784940000279e+00,-1.268732361499999919e-03,1.714547164740000060e-02,-2.211953513320000231e-03,1.000000000000000000e+00
8.252529979999999599e-01,-2.459716919379999922e+00,4.710785206569999273e-02,-9.502221062980000355e+00,-5.389555590230000158e-04,8.936635218560000024e-03,-2.338403370230000052e-03,1.000000000000000000e+00
8.300643429999999823e-01,-2.466965867589999917e+00,2.241562445159999556e-02,-9.468667752949999183e+00,8.956879028120000091e-04,-2.156725153329999700e-03,1.684622606260000087e-03,1.000000000000000000e+00
8.351431350000000364e-01,-2.435444794040000360e+00,5.079737706629999794e-02,-9.476810142869998899e+00,-3.973454236980000255e-03,3.295618575070000458e-03,3.279370954260000214e-03,1.000000000000000000e+00
8.402726480000000109e-01,-2.485429160520000291e+00,3.206582740530000003e-02,-9.469939672580000689e+00,5.971783306449999530e-03,4.337345715609999472e-03,-3.947298973799999965e-03,1.000000000000000000e+00
8.451462100000000088e-01,-2.433512656930000073e+00,1.997615431099999950e-02,-9.474682483189999616e+00,2.085568942129999853e-02,1.462063286449999996e-03,-1.578797027470000072e-02,1.000000000000000000e+00
8.500830029999999482e-01,-2.518038467709999839e+00,3.181246913219999695e-02,-9.490809442130000662e+00,2.005175454539999923e-03,4.379081074149999454e-03,3.950550220910000083e-03,1.000000000000000000e+00
8.552710719999999656e-01,-2.473391224469999816e+00,3.053479789609999870e-02,-9.492585804149999973e+00,9.905628394339999112e-04,-7.244669366630000253e-03,1.128349266950000145e-02,1.000000000000000000e+00
8.601559669999999658e-01,-2.470390873609999538e+00,4.605070769559999749e-02,-9.487375376019999251e+00,-9.965275414290000744e-03,9.822843596339999456e-03,7.460811175410000246e-03,1.000000000000000000e+00
8.650646189999999791e-01,-2.435621173519999960e+00,4.965085107940000325e-02,-9.478244559589999341e+00,-1.860235352069999687e-03,9.122699499129999223e-03,-7.336576469240000190e-03,1.000000000000000000e+00
8.701194439999999641e-01,-2.463603989950000184e+00,4.104937401059999963e-02,-9.514052370549999083e+00,-3.365532960739999347e-03,-4.351030103860000116e-03,-1.286861114199999885e-02,1.000000000000000000e+00
8.751522670000000392e-01,-2.479484865170000329e+00,6.881953406560001318e-02,-9.464306635130000700e+00,1.124066673220000014e-02,3.556317649780000017e-03,-7.564489729699999838e-03,1.000000000000000000e+00
8.802646659999999734e-01,-2.485189214290000059e+00,5.828268218719999394e-02,-9.447351408670000339e+00,3.480828017930000413e-04,1.540940720589999808e-04,-2.465456957000000063e-03,1.000000000000000000e+00
8.852420210000000456e-01,-2.459059916770000243e+00,4.931981989360000040e-02,-9.514535185630000669e+00,1.534462440760000004e-03,8.940299041569999688e-03,-2.926152432339999745e-03,1.000000000000000000e+00
8.902402170000000003e-01,-2.488627372040000285e+00,4.499210202069999637e-02,-9.472228075780000367e+00,-6.360838655380000005e-03,1.241342723369999977e-02,2.561963396149999957e-03,1.000000000000000000e+00
8.951129450000000487e-01,-2.506324064509999783e+00,7.435230774610000759e-02,-9.517641334949999532e+00,4.673264455050000175e-03,1.962563022970000102e-03,1.481102313850000095e-02,1.000000000000000000e+00
9.002840060000000255e-01,-2.453726739049999939e+00,3.758753855239999747e-02,-9.498748418430000839e+00,7.186840288340000209e-03,1.154218614099999929e-02,7.898012176159999176e-03,1.000000000000000000e+00
9.052536549999999904e-01,-2.465793316679999680e+00,5.296434584180000071e-02,-9.510655129330000790e+00,3.516342490910000142e-03,1.456599216909999989e-03,4.804984666410000091e-03,1.000000000000000000e+00
9.102531329999999921e-01,-2.497963940190000454e+00,5.317181914660000508e-02,-9.485676755409999217e+00,-1.204433850939999953e-02,1.072177663450000129e-03,1.937358640129999837e-02,1.000000000000000000e+00
9.152145299999999706e-01,-2.404692512900000079e+00,7.118178795120000402e-02,-9.462238012160000267e+00,1.195435039700000132e-02,-3.614382585510000478e-03,-8.553647436199999024e-03,1.000000000000000000e+00
9.203032920000000505e-01,-2.489601770029999717e+00,2.477174999050000062e-02,-9.473216502290000562e+00,-9.381936863060000645e-03,-2.596931066360000200e-03,-3.957449458540000277e-03,1.000000000000000000e+00
9.252661370000000440e-01,-2.479583064840000350e+00,7.357083394569999268e-02,-9.465520102570000205e+00,1.368883531539999887e-04,1.479906030000000114e-03,8.234295528380000759e-04,1.000000000000000000e+00
9.302496049999999794e-01,-2.499104050129999699e+00,3.305027871530000216e-02,-9.488122979519999944e+00,-8.401710540059999927e-03,1.069297362120000261e-02,-1.278773997910000052e-03,1.000000000000000000e+00
9.352310950000000123e-01,-2.451285775640000164e+00,3.276590196609999867e-02,-9.499200253850000664e+00,3.078068140889999964e-03,9.434400126339999998e-03,-9.372112108389999818e-04,1.000000000000000000e+00
9.402856859999999539e-01,-2.503434480550000174e+00,2.592883847059999913e-02,-9.480156530689999528e+00,2.844503382219999970e-03,1.723307371140000294e-02,6.772839464249999671e-03,1.000000000000000000e+00
9.452334119999999951e-01,-2.451831134570000348e+00,2.689807622840000370e-02,-9.499667871359999793e+00,-9.844074025749998888e-03,-1.278775511309999989e-03,-4.529583267869999839e-03,1.000000000000000000e+00
9.502452200000000015e-01,-2.473649290880000073e+00,6.498265474990000401e-02,-9.493083232280000061e+00,5.194388329979999358e-03,2.889670431609999909e-03,4.953730385749999807e-04,1.000000000000000000e+00
9.552566350000000206e-01,-2.481831720550000231e+00,2.443225237050000026e-02,-9.509226557829999038e+00,7.246897090230000095e-03,4.100427031519999523e-04,5.065546371040000571e-03,1.000000000000000000e+00
9.601605090000000509e-01,-2.473358198980000200e+00,6.179979149669999339e-02,-9.458925526610000745e+00,-2.654172712940000220e-03,-9.052284061910000415e-03,-2.846756251530000153e-03,1.000000000000000000e+00
9.652616670000000454e-01,-2.452267187889999978e+00,4.815739765130000460e-02,-9.503194876449999384e+00,1.240852195770000138e-02,-6.224258802829999403e-03,3.324061864989999882e-03,1.000000000000000000e+00
9.702634989999999737e-01,-2.464944883159999822e+00,3.185269839459999724e-02,-9.484833290330000111e+00,-7.179162465040000649e-03,3.378950059409999737e-04,-1.099108438940000002e-02,1.000000000000000000e+00
9.752432939999999828e-01,-2.508764735659999801e+00,2.812527765259999896e-02,-9.498275540219999868e+00,-1.188773754979999958e-02,-8.036216720939999211e-03,3.086801851170000062e-03,1.000000000000000000e+00
9.800931449999999989e-01,-2.478272274509999651e+00,4.010022919280000625e-02,-9.489947272340000239e+00,5.635009147229998877e-03,-2.613513497639999988e-03,5.076858215030000815e-04,1.000000000000000000e+00
9.851357269999999611e-01,-2.451415247239999928e+00,9.845310423910001718e-02,-9.470885428989999966e+00,1.094533596189999937e-02,2.176627516749999984e-03,-1.836579293010000020e-03,1.000000000000000000e+00
9.901090679999999811e-01,-2.498805359449999930e+00,4.725581830219999918e-02,-9.484283255230000265e+00,1.783269084990000281e-02,1.134221255779999972e-02,1.039342209699999943e-02,1.000000000000000000e+00
9.952175599999999456e-01,-2.435847237359999529e+00,3.176666407890000460e-02,-9.479916876709999940e+00,-1.983490074049999718e-03,1.942305825650000265e-03,-4.501419607549999560e-04,1.000000000000000000e+00
1.000082268000000107e+00,-2.487418580769999998e+00,4.618340329769999447e-02,-9.472241519780000729e+00,1.185502577569999896e-02,8.584611117840000583e-03,4.150683991610000338e-03,1.000000000000000000e+00
1.005155323999999961e+00,-2.458109191920000214e+00,6.616283641119999337e-02,-9.493162142730000141e+00,-1.277876179669999897e-02,6.676864810290000264e-03,2.481604227800000319e-03,1.000000000000000000e+00
1.010244547999999964e+00,-2.448178603409999710e+00,6.388500940600000400e-02,-9.483462586499999958e+00,6.211965810510000109e-03,1.361413486299999955e-02,-6.693774834279999676e-03,1.000000000000000000e+00
1.015233354999999893e+00,-2.488112115999999929e+00,6.725361818950000015e-02,-9.505063592930000027e+00,1.026610936970000047e-02,4.920069128270000529e-03,6.317830644550000152e-03,1.000000000000000000e+00
1.020302033000000108e+00,-2.457612932840000042e+00,3.900021836189999924e-02,-9.464745026539999273e+00,2.503397408870000011e-03,1.488317735490000135e-03,1.153406593949999823e-02,1.000000000000000000e+00
1.025109668000000029e+00,-2.440772272670000298e+00,4.330831821880000432e-02,-9.521683888340000124e+00,1.490726228799999983e-02,-5.477942526340000631e-03,2.017431193960000056e-03,1.000000000000000000e+00
1.030110424000000080e+00,-2.476486560129999681e+00,5.679477715049999903e-02,-9.487515076760001165e+00,3.589047584679999885e-03,1.254762802270000151e-02,-4.380095284430000034e-03,1.000000000000000000e+00
1.035065155999999931e+00,-2.441889586269999857e+00,3.129436354219999883e-02,-9.528080311380000111e+00,-4.921686369930000464e-03,-6.387650500980000898e-04,-4.284312948580000328e-03,1.000000000000000000e+00
1.040315746999999957e+00,-2.460271338390000118e+00,3.309589425549999686e-02,-9.467718489400001047e+00,1.575340051200000129e-03,1.655992865559999944e-02,-7.525051943960000059e-03,1.000000000000000000e+00
1.045228508999999972e+00,-2.494419691709999665e+00,3.168069826190000188e-02,-9.492827796210001168e+00,4.631336312739999482e-03,-4.877724684770000201e-03,7.816436700520000905e-03,1.000000000000000000e+00
1.050267202999999983e+00,-2.462145607830000138e+00,4.811385077050000375e-02,-9.510211477210001263e+00,1.827403157949999968e-02,-2.125897444780000013e-03,1.657529920339999990e-02,1.000000000000000000e+00
1.055093499000000046e+00,-2.421444910259999972e+00,4.129068565300000188e-02,-9.479920383839999687e+00,2.268693875519999827e-03,-5.065801087770000453e-03,-2.753217704590000137e-03,1.000000000000000000e+00
1.060037362000000094e+00,-2.426965427249999863e+00,2.571551994700000190e-02,-9.479550381490000177e+00,6.432750727979999299e-03,-7.686608936640000958e-03,-2.923626918350000128e-03,1.000000000000000000e+00
1.065257212999999981e+00,-2.399936988940000404e+00,4.115188453710000305e-02,-9.473175001239999560e+00,-4.791983403270000386e-03,-6.101576145740000411e-04,-5.147915333510000302e-03,1.000000000000000000e+00
1.070240588000000104e+00,-2.470601009229999701e+00,-1.098711297160000037e-02,-9.466851643430000962e+00,4.043622408060000041e-03,-5.171685013920000219e-03,8.105603978039999102e-03,1.000000000000000000e+00
1.075109732000000040e+00,-2.441669221509999765e+00,1.401002843129999995e-02,-9.473571307080000281e+00,5.954426596869998598e-04,-2.698659664019999963e-03,-4.177079536020000296e-03,1.000000000000000000e+00
1.080078746000000089e+00,-2.491931966550000155e+00,6.858282096659999716e-02,-9.488408810730000198e+00,3.076948225499999672e-03,-1.334206480529999753e-02,1.142669282849999995e-02,1.000000000000000000e+00
1.085257152000000058e+00,-2.446176323670000041e+00,3.404566926100000002e-02,-9.497407525219999869e+00,-1.275706291200000113e-02,-1.175804063679999900e-02,-1.476075150999999917e-03,1.000000000000000000e+00
1.090081230000000012e+00,-2.451612815639999887e+00,4.961959742459999545e-02,-9.476614912560000548e+00,8.867463096979999460e-03,6.362678483130000499e-03,-1.688869320789999993e-03,1.000000000000000000e+00
1.095067554999999970e+00,-2.427559739879999956e+00,2.064401851909999572e-02,-9.519788283849999644e+00,6.649863906199999369e-03,5.395033396779999949e-03,-6.534321699290000091e-03,1.000000000000000000e+00
1.100153831000000082e+00,-2.454471712200000155e+00,1.983070425860000013e-02,-9.485718840989999734e+00,4.742839955719999881e-04,6.547788158060000550e-03,-9.207843802870001662e-03,1.000000000000000000e+00
1.105103444000000046e+00,-2.496118020059999942e+00,2.825593427790000153e-02,-9.477224568889999645e+00,3.112765494729999999e-03,1.435540989039999979e-02,5.774993449450000621e-03,1.000000000000000000e+00
1.110255932000000056e+00,-2.454557636920000174e+00,3.038360537279999676e-02,-9.504780684330000895e+00,4.464047495279999805e-03,-2.924275817350000233e-03,1.374534098430000000e-03,1.000000000000000000e+00
1.115073291999999938e+00,-2.443928544749999876e+00,2.934399209279999875e-03,-9.507514493210001305e+00,2.229422796520000132e-03,4.013090860099999442e-03,1.085918629539999944e-03,1.000000000000000000e+00
1.120263644000000003e+00,-2.468305591770000085e+00,6.850717561419999990e-02,-9.500127305569998626e+00,5.632414482529999114e-03,-1.386097073550000142e-02,9.651544969530000953e-04,1.000000000000000000e+00
1.125092691000000089e+00,-2.444347793069999941e+00,3.992820622730000601e-02,-9.493484798819999071e+00,4.913273733109999042e-03,1.684248913080000016e-03,1.214387593789999957e-03,1.000000000000000000e+00
1.130245927999999900e+00,-2.462173957140000091e+00,2.226674489970000004e-02,-9.483073294920000507e+00,7.654234301299999918e-03,4.525783937419999500e-03,-2.388848457489999716e-03,1.000000000000000000e+00
1.135151376000000045e+00,-2.489722766059999870e+00,6.321611543480000484e-02,-9.432693937769998982e+00,2.004792215299999649e-03,1.677393447609999960e-03,-1.908913953230000071e-03,1.000000000000000000e+00
1.140302012999999892e+00,-2.488100717820000085e+00,3.670754313080000497e-02,-9.469643319979999418e+00,4.441064316779999577e-03,-5.483506247399999763e-03,5.237159784880000531e-04,1.000000000000000000e+00
1.145215263999999955e+00,-2.470404902129999858e+00,2.110259877439999918e-02,-9.480642852899999085e+00,7.419601548460000133e-03,-5.507580935960000243e-03,5.003963597119999440e-04,1.000000000000000000e+00
1.150286689999999945e+00,-2.499163671369999840e+00,2.711017319269999962e-02,-9.483569553999998902e+00,4.826861550100000273e-04,-4.529966041449999536e-03,2.984643215310000229e-03,1.000000000000000000e+00
1.155084994000000087e+00,-2.483245386740000171e+00,2.005542552579999901e-02,-9.470638176239999595e+00,-6.545629352330000102e-03,4.357269499450000007e-03,1.583254197610000063e-03,1.000000000000000000e+00
1.160090850000000007e+00,-2.471941025660000069e+00,2.241345989399999919e-02,-9.464128940469999307e+00,1.738621667029999901e-02,-4.030706826599999605e-03,5.427732132380000407e-03,1.000000000000000000e+00
1.165104724999999952e+00,-2.454376727390000124e+00,1.257536511879999916e-02,-9.499942596649999516e+00,-3.569350577889999956e-03,-6.050511263310000276e-03,2.015517326069999650e-03,1.000000000000000000e+00
1.170259160999999937e+00,-2.475380352459999767e+00,2.357304400860000052e-02,-9.475506659049999669e+00,4.795745946470000159e-03,-2.281456626950000011e-02,-2.152387984099999804e-03,1.000000000000000000e+00
1.175096426999999943e+00,-2.423638620909999819e+00,4.002105387619999538e-02,-9.482750054310001175e+00,1.171552855519999992e-02,7.578625343739999430e-03,-1.244461722670000062e-02,1.000000000000000000e+00
1.180062740999999971e+00,-2.517989660130000029e+00,1.141924703639999976e-02,-9.498566632119999298e+00,4.937592428180000333e-03,1.687642186880000238e-03,1.352033857260000020e-02,1.000000000000000000e+00
1.185240770000000055e+00,-2.457590136479999909e+00,2.958402509349999931e-02,-9.470606027529999693e+00,8.555492386220000037e-03,1.619389094410000202e-02,-2.710702130570000288e-03,1.000000000000000000e+00
1.190236389000000061e+00,-2.435558775809999688e+00,2.312594184520000082e-02,-9.516792609169998585e+00,-2.072195522489999817e-03,-1.211192924529999951e-02,-1.443335693329999940e-02,1.000000000000000000e+00
1.195037820000000028e+00,-2.473600775560000020e+00,4.862396028369999484e-02,-9.451731815710001428e+00,-1.419775001699999893e-02,2.036320045589999975e-03,-3.592316061259999806e-04,1.000000000000000000e+00
1.200186948000000031e+00,-2.477349314440000061e+00,6.636576597159998814e-02,-9.477132798950000492e+00,3.653708379719999670e-03,5.875993520019999998e-05,-1.344701857310000130e-03,1.000000000000000000e+00
1.205123061999999967e+00,-2.467007660909999789e+00,5.338255755419999554e-02,-9.459559732860000736e+00,6.065084133300000478e-03,5.809548310939999976e-04,-3.643454983830000395e-04,1.000000000000000000e+00
1.210108436000000065e+00,-2.448233840729999944e+00,5.546318605340000429e-02,-9.484131279539999682e+00,1.750006712969999836e-02,1.490426994860000014e-02,3.230456961320000205e-03,1.000000000000000000e+00
1.215055146999999947e+00,-2.439662265599999991e+00,1.986051030840000134e-02,-9.483263849049999195e+00,5.698885070160000148e-05,9.252099320290000858e-03,-8.210034109649998885e-03,1.000000000000000000e+00
1.220147824000000103e+00,-2.467788289890000097e+00,1.766978505629999974e-02,-9.459529922239999777e+00,1.538092549889999959e-02,-4.157922230659999441e-03,-2.855634782460000128e-03,1.000000000000000000e+00
1.225085823999999990e+00,-2.471991879059999953e+00,6.752527930430000935e-02,-9.470683184419998568e+00,3.398955101150000213e-03,7.014320231970000603e-03,5.647790618239999748e-03,1.000000000000000000e+00
1.230253728999999963e+00,-2.452678106780000089e+00,2.796704803369999895e-02,-9.506164247650000121e+00,-1.215567905460000070e-02,-1.010352512820000175e-03,3.927296027540000053e-03,1.000000000000000000e+00
1.235066154999999943e+00,-2.444257922829999874e+00,1.621105131509999880e-02,-9.491655829819999113e+00,-5.953263957050000318e-03,5.133948288860000096e-04,-3.992736339570000792e-03,1.000000000000000000e+00
1.240088218999999992e+00,-2.466515785739999966e+00,1.251232351970000232e-02,-9.508222349219998648e+00,1.078239642079999996e-03,-8.523304015399999628e-03,-2.448213752360000120e-03,1.000000000000000000e+00
1.245212741000000012e+00,-2.504580143459999686e+00,2.836372605090000179e-02,-9.474175702710001090e+00,3.814537543800000045e-03,-9.819094091649998787e-03,5.261657759549999598e-03,1.000000000000000000e+00
1.250067671000000047e+00,-2.439898558579999932e+00,3.048676435320000003e-02,-9.492853515169999312e+00,-8.116658427749998952e-04,-3.899645293130000502e-03,-6.595294922589999866e-03,1.000000000000000000e+00
1.255052593999999910e+00,-2.472477324489999795e+00,2.001295635720000063e-02,-9.463161556739999369e+00,-1.309707015749999974e-02,4.112944006919999618e-03,1.774124568330000002e-03,1.000000000000000000e+00
1.260063544999999952e+00,-2.418796441580000067e+00,1.625570787420000177e-02,-9.474601819169999217e+00,3.851898480209999670e-03,-1.380316168070000113e-02,-4.461868200450000259e-03,1.000000000000000000e+00
1.265210273000000107e+00,-2.436303895090000005e+00,2.567313297679999981e-02,-9.489901679629999975e+00,-5.563216283919999658e-03,9.526703506709999561e-03,-6.595865823329999898e-03,1.000000000000000000e+00
1.270262226000000050e+00,-2.482309567200000178e+00,4.975829350930000700e-02,-9.461074229079999398e+00,-1.339380163699999994e-02,-1.194860227410000052e-02,8.256013505160000182e-03,1.000000000000000000e+00
1.275262471000000009e+00,-2.493771749190000442e+00,2.830754116759999495e-02,-9.475717671459999991e+00,1.738285645839999756e-03,-2.631044480950000229e-04,1.655453071000000109e-02,1.000000000000000000e+00
1.280057640999999968e+00,-2.443022389690000296e+00,2.229080619529999821e-02,-9.477318092390000004e+00,-2.235319651660000115e-02,3.289038315419999785e-03,6.854771636430000668e-03,1.000000000000000000e+00
1.285247915000000019e+00,-2.451340282309999896e+00,3.289642844399999488e-02,-9.489293192339999905e+00,1.592591032390000202e-02,-2.276680199429999968e-03,8.563986048100000106e-04,1.000000000000000000e+00
1.290065460000000108e+00,-2.451861821959999688e+00,6.629118919840000512e-02,-9.469899925089999115e+00,-1.776314456949999976e-05,-4.728820640590000648e-04,6.407296285030000295e-03,1.000000000000000000e+00
1.295058582000000014e+00,-2.431317338850000009e+00,4.251902187149999429e-02,-9.477403432590000065e+00,-2.690030960370000043e-03,9.969826787710001168e-04,-1.031386479739999917e-02,1.000000000000000000e+00
1.300291985000000095e+00,-2.446982817749999928e+00,-5.426653845609999589e-03,-9.506606730719999732e+00,-1.126514375210000037e-02,2.297959290440000288e-02,-3.010934684429999921e-03,1.000000000000000000e+00
1.305065289000000073e+00,-2.399989595909999718e+00,1.376810486760000028e-02,-9.487668221489998999e+00,-1.962238550189999986e-02,-4.228623583909999601e-04,-1.948388852180000033e-02,1.000000000000000000e+00
1.310254642999999941e+00,-2.473583824429999911e+00,3.848090262900000225e-02,-9.514379702810000339e+00,6.852433551099999624e-03,1.054902002220000148e-02,6.612290628250000468e-03,1.000000000000000000e+00
1.315015199999999940e+00,-2.429704642949999993e+00,7.220708044489999866e-02,-9.486894314510001536e+00,6.134632043540000704e-03,1.896444894370000189e-02,-1.557692233470000034e-02,1.000000000000000000e+00
1.320297529999999941e+00,-2.482876845689999890e+00,3.788077446150000388e-02,-9.454175117210001034e+00,-1.981801353390000037e-03,-5.179131403570000347e-03,5.575561895970000161e-03,1.000000000000000000e+00
1.325035613999999917e+00,-2.424282033379999923e+00,2.807019559759999644e-02,-9.489780099080000753e+00,-9.856729768219999605e-03,4.385090433060000203e-04,-5.108688957989999946e-03,1.000000000000000000e+00
1.330241470000000037e+00,-2.419222850300000172e+00,7.779957125630000692e-02,-9.508577738530000545e+00,5.260666366670000565e-03,1.426906697450000018e-02,-8.836879394950000396e-03,1.000000000000000000e+00
1.335149327000000108e+00,-2.437170741050000089e+00,2.523974082000000115e-03,-9.544064646969999899e+00,8.846094715409999996e-04,9.214217774570000394e-03,7.952530868350000167e-04,1.000000000000000000e+00
1.340066535000000059e+00,-2.408778467040000315e+00,2.884226909879999620e-02,-9.533076804489999390e+00,-2.136830473319999667e-03,3.087753430010000229e-05,-1.174750830979999841e-02,1.000000000000000000e+00
1.345208436999999924e+00,-2.443385816170000169e+00,1.029571924589999937e-01,-9.500705982239999514e+00,3.195703960959999767e-03,9.575702715669998262e-04,-1.879961043600000131e-02,1.000000000000000000e+00
1.350097674999999997e+00,-2.497520872589999996e+00,8.685761471989998650e-02,-9.441784422190000470e+00,-7.454539183529999835e-03,-3.057305002590000008e-03,-4.401537589729999714e-03,1.000000000000000000e+00
1.355089581999999959e+00,-2.471431907090000379e+00,3.545394232349999980e-02,-9.465666233039998545e+00,9.414736996399999773e-04,-7.866984233260000334e-03,3.558707656340000074e-03,1.000000000000000000e+00
1.360093162999999938e+00,-2.423301059520000411e+00,4.150502709000000040e-02,-9.452660620999999708e+00,1.247966662049999897e-02,6.253493018449999934e-03,-1.173152960840000147e-02,1.000000000000000000e+00
1.365077687999999956e+00,-2.506846334820000077e+00,5.197890130130000674e-02,-9.495722933130000598e+00,-9.692724794149999018e-03,1.321041490879999963e-04,-4.532952327279999791e-03,1.000000000000000000e+00
1.370254469000000030e+00,-2.417804800190000325e+00,-1.127253432539999933e-02,-9.501336681359999758e+00,1.868551480580000091e-04,5.776272155339999374e-03,-2.007783949379999752e-02,1.000000000000000000e+00
1.375268879999999916e+00,-2.523639940969999884e+00,2.353059082299999855e-02,-9.472486434450001269e+00,2.299913321620000002e-04,8.364513050760001523e-04,1.012373063710000042e-02,1.000000000000000000e+00
1.380058454000000046e+00,-2.460440557480000123e+00,2.256021827079999695e-02,-9.454097960319998606e+00,-1.001175865529999910e-02,1.438947953280000046e-02,-4.201894626019999582e-04,1.000000000000000000e+00
1.385246398999999906e+00,-2.444682139590000247e+00,2.796588127319999881e-02,-9.502830719310001228e+00,-8.596096187830000804e-03,-1.048071496189999924e-02,-1.941905589770000044e-03,1.000000000000000000e+00
1.390088690000000016e+00,-2.506938104759999675e+00,5.461095770480000472e-02,-9.470414304349999313e+00,-1.431369502099999989e-02,1.136953569949999965e-02,4.807489458469999238e-04,1.000000000000000000e+00
1.395075832000000071e+00,-2.466741703449999878e+00,6.048435238339999742e-02,-9.475475679389999684e+00,-5.160188302399999587e-03,-6.076814141120000061e-03,-1.327905151989999984e-02,1.000000000000000000e+00
1.400268357000000075e+00,-2.481093177149999995e+00,7.562609054160000788e-02,-9.499199084809999860e+00,6.135618896219999707e-04,-8.638324216010000861e-03,-3.160004969690000283e-03,1.000000000000000000e+00
1.405248518999999918e+00,-2.455358431909999695e+00,6.484852067599999881e-02,-9.504131280510002000e+00,-2.933285897599999855e-03,-9.371761232609999992e-03,-1.987186027690000193e-03,1.000000000000000000e+00
1.410259906999999924e+00,-2.450225745200000027e+00,9.945903901180000450e-02,-9.490118537249999875e+00,-1.469513215120000008e-02,8.593889884649999478e-03,-2.517175627869999884e-03,1.000000000000000000e+00
1.415056322999999949e+00,-2.458625617009999598e+00,9.288917736850001161e-02,-9.421128587660000164e+00,-7.800078019499999925e-04,1.004751771690000003e-03,5.549944937229999570e-03,1.000000000000000000e+00
1.420141533000000011e+00,-2.455617082839999910e+00,4.626365632650000087e-02,-9.464945517549999465e+00,-1.545825693759999946e-02,-8.353244047610000264e-04,-8.494213223459999226e-03,1.000000000000000000e+00
1.425094901000000025e+00,-2.436476182909999899e+00,4.126310352629999900e-02,-9.466758704450001005e+00,-9.699315764010001117e-03,1.825574785470000100e-02,-7.829163223510000695e-06,1.000000000000000000e+00
1.430105643999999954e+00,-2.454657297899999868e+00,6.206287201280000915e-02,-9.550665652670000227e+00,-9.245293214920000113e-03,-2.244487404819999930e-04,1.328605925660000103e-03,1.000000000000000000e+00
1.435082710999999955e+00,-2.385723024020000249e+00,5.614811784389999588e-02,-9.528090832769999352e+00,2.380421617999999885e-03,-1.362524554129999899e-02,-9.316320531069999938e-03,1.000000000000000000e+00
1.440071311000000076e+00,-2.466707508920000347e+00,4.670780619769999975e-02,-9.526336098060001589e+00,1.668558456000000106e-02,1.187069341540000073e-03,1.271446794270000152e-02,1.000000000000000000e+00
1.445126801000000016e+00,-2.428636429200000002e+00,8.167492398549999755e-02,-9.492897354319998371e+00,6.855552550409999696e-03,1.388829015200000044e-02,-1.056146062910000120e-02,1.000000000000000000e+00
1.450089747999999901e+00,-2.563121472009999735e+00,5.114609460580000350e-02,-9.467373621480000168e+00,4.100231453780000743e-03,9.758179076019999829e-03,9.503595530990000331e-03,1.000000000000000000e+00
1.455255793000000075e+00,-2.517062900670000047e+00,5.753359911929999820e-03,-9.477441426509999545e+00,3.654067404570000323e-03,9.791685268280000271e-03,2.095057815309999891e-02,1.000000000000000000e+00
1.460051446999999891e+00,-2.439016222790000299e+00,5.817669192890000812e-02,-9.463774720210000879e+00,-1.038263738159999998e-02,3.672932274639999824e-03,-2.678197575729999915e-03,1.000000000000000000e+00
1.465239798000000038e+00,-2.451507601699999928e+00,-4.212044187480000132e-03,-9.513108952219999637e+00,-1.623940095309999929e-02,1.213547866789999909e-02,-4.660109058020000215e-03,1.000000000000000000e+00
1.470078073999999901e+00,-2.463417235200000110e+00,2.571098990230000214e-02,-9.492956391030000773e+00,-9.025952778760001211e-03,6.519589573139999983e-03,-2.125093014910000092e-03,1.000000000000000000e+00
1.475097031000000003e+00,-2.458728785119999927e+00,3.653554299809999573e-02,-9.477636656819999672e+00,-2.059028483929999792e-02,8.554560132319999691e-03,-4.027038812640000305e-05,1.000000000000000000e+00
1.480266172999999963e+00,-2.450049073449999781e+00,2.942807876329999947e-02,-9.476250170900000214e+00,-1.998746208849999997e-02,-3.807205473999999978e-03,-4.876992199569999548e-03,1.000000000000000000e+00
1.485252916999999950e+00,-2.456720367909999592e+00,4.057934991269999958e-02,-9.430589074439998498e+00,-1.708420738580000015e-02,-6.695126648989999790e-03,-1.347578875720000131e-02,1.000000000000000000e+00
1.490105967000000087e+00,-2.455366907479999750e+00,4.104190309019999788e-02,-9.500755082080001301e+00,-1.509249676020000056e-02,-1.368894008919999995e-03,-5.779802799219999759e-03,1.000000000000000000e+00
1.495093562999999959e+00,-2.469750822139999968e+00,2.536025393559999605e-02,-9.537966330099999723e+00,-4.954407457260000779e-03,5.597039125859999773e-04,-5.572455935179999875e-03,1.000000000000000000e+00
1.500266536000000039e+00,-2.455606561450000225e+00,-3.104052577840000007e-02,-9.564748538559999957e+00,-2.353117801250000085e-02,2.234491985289999670e-03,2.474718913440000431e-02,1.000000000000000000e+00
1.505255573999999985e+00,-2.325855415289999950e+00,-3.589886622950000383e-02,-9.565479190919999652e+00,-6.682138890030000014e-03,5.762618966399999688e-03,2.288889372719999944e-03,1.000000000000000000e+00
1.510021832000000064e+00,-2.382344195229999961e+00,1.382697946499999910e-03,-9.523632099800000361e+00,-1.951546408240000322e-02,-1.169860642400000032e-02,2.288440475239999789e-03,1.000000000000000000e+00
1.515054128999999916e+00,-2.436623774690000133e+00,9.990720290439998597e-02,-9.429881802960000670e+00,-2.133520552890000137e-03,-2.863670233639999726e-03,5.283331498500000445e-03,1.000000000000000000e+00
1.520263028000000016e+00,-2.450556000059999739e+00,1.807937712579999745e-01,-9.447137473659999785e+00,-1.300458237529999832e-02,-6.555342115460000528e-04,-5.938917864109999854e-03,1.000000000000000000e+00
1.525064600999999964e+00,-2.466265025850000292e+00,6.052668455459999514e-02,-9.451753443019999423e+00,-2.244311012329999744e-02,4.998688586060000272e-03,3.272637957709999962e-03,1.000000000000000000e+00
1.530238471000000100e+00,-2.412027385830000092e+00,6.025728389559999870e-02,-9.479431139019999009e+00,2.959784818809999864e-03,4.283963702620000383e-03,-1.093931496139999987e-02,1.000000000000000000e+00
1.535103565000000003e+00,-2.433282647570000012e+00,2.533835263109999666e-02,-9.514733338550000141e+00,-5.335886497049999871e-03,3.591716289519999994e-03,2.429296495389999914e-03,1.000000000000000000e+00
1.540138580999999895e+00,-2.432260026520000284e+00,7.457654038949999842e-02,-9.469154659680000918e+00,-1.628010906279999878e-02,1.756595820189999976e-02,4.765991121529999409e-03,1.000000000000000000e+00
1.545077346000000018e+00,-2.435380935019999971e+00,9.705508314260000158e-02,-9.483606963399999756e+00,-1.383776590230000048e-02,-8.347500115630001119e-03,8.248717524109999352e-03,1.000000000000000000e+00
1.550043717000000099e+00,-2.450089405459999536e+00,5.667092244190000128e-02,-9.488457326039998918e+00,-4.228185396640000114e-03,2.350472379480000092e-03,4.859727807339999858e-03,1.000000000000000000e+00
1.555042148999999929e+00,-2.470532327899999991e+00,1.964273937190000319e-02,-9.513891627030000464e+00,-1.830562017859999752e-02,-1.195354969240000143e-03,2.402261132369999663e-03,1.000000000000000000e+00
1.560040075999999942e+00,-2.437670068870000151e+00,7.241335273990000265e-02,-9.449669622489999199e+00,-1.550862099979999874e-02,1.718283630910000161e-03,7.957117632029999830e-04,1.000000000000000000e+00
1.565238585999999987e+00,-2.487790336699999827e+00,1.115956679370000010e-01,-9.474989357180000127e+00,-1.499761361629999880e-02,-6.879204884170000110e-03,3.679412184280000074e-03,1.000000000000000000e+00
1.570231503999999889e+00,-2.530101245940000076e+00,1.698741899720000170e-01,-9.497721997989998499e+00,-2.828836068509999607e-02,2.369756810370000216e-02,1.130489865320000046e-03,1.000000000000000000e+00
1.575101818000000042e+00,-2.483090196180000042e+00,2.317721902789999788e-01,-9.474404835289998772e+00,-2.438084967429999736e-02,1.401436515150000089e-02,-2.883961191400000439e-03,1.000000000000000000e+00
1.580053541000000061e+00,-2.504754038720000242e+00,3.081132880889999592e-01,-9.444326507889998723e+00,-1.670804806050000049e-02,1.951925270259999984e-02,1.092015393079999799e-02,1.000000000000000000e+00
1.585225313000000025e+00,-2.479053195749999716e+00,2.660112540879999710e-01,-9.498873506120000698e+00,-6.158582400529999043e-03,-7.212093565609999958e-03,1.119666919110000151e-02,1.000000000000000000e+00
1.590063181999999964e+00,-2.403347966430000149e+00,1.550079716860000012e-01,-9.526643556569998950e+00,-4.086351487789999584e-03,1.544323191050000002e-02,-7.336743175979999407e-03,1.000000000000000000e+00
1.595036652999999971e+00,-2.387488864640000319e+00,1.572261409259999854e-01,-9.532340306910001004e+00,-5.400915630159999758e-03,2.417731843890000287e-02,-1.808216981590000244e-02,1.000000000000000000e+00
1.600259461999999910e+00,-2.512683078149999805e+00,1.757028047940000226e-01,-9.488637358780000142e+00,9.464447386560000119e-03,3.022870514540000110e-04,-1.388867734930000113e-03,1.000000000000000000e+00
1.605083118000000031e+00,-2.502309275910000075e+00,1.940612491099999726e-01,-9.431348368380000124e+00,2.193251624699999944e-02,1.646345667540000113e-02,7.201449014250000877e-03,1.000000000000000000e+00
1.610245063999999893e+00,-2.460419222430000108e+00,1.556511466950000200e-01,-9.476066631030001020e+00,1.515894290060000073e-02,-2.126203849910000138e-03,-1.143985241649999977e-02,1.000000000000000000e+00
1.615241833000000016e+00,-2.455826341679999913e+00,5.719478191920000093e-02,-9.429873619649999483e+00,1.552253728730000138e-03,1.794786378740000077e-02,-1.425409410149999952e-02,1.000000000000000000e+00
1.620261817000000049e+00,-2.411399609330000082e+00,1.830537155459999871e-02,-9.498293660399999894e+00,6.522712763399999419e-03,2.310521528119999918e-02,-6.582851987329999682e-03,1.000000000000000000e+00
1.625095814000000027e+00,-2.380609626520000077e+00,1.084602468549999976e-01,-9.525297987180000092e+00,1.302181556820000002e-02,-1.301654707639999901e-02,-1.269031316039999878e-02,1.000000000000000000e+00
1.630075257999999971e+00,-2.397224076720000152e+00,1.583478201659999918e-01,-9.531749939800000959e+00,5.413583945479999437e-03,2.720766235139999815e-03,-8.095120079820000356e-03,1.000000000000000000e+00
1.635093082999999892e+00,-2.399920330059999607e+00,2.170687796059999897e-01,-9.495403199660000126e+00,8.403927087780000554e-03,4.530894570049999980e-03,-1.928022317590000201e-02,1.000000000000000000e+00
1.640061616000000111e+00,-2.475007427490000023e+00,1.401664951160000172e-01,-9.458294242970000099e+00,3.616547957059999818e-02,-9.267110377550000222e-03,-5.575811490420000578e-03,1.000000000000000000e+00
1.645203073000000016e+00,-2.458533847070000000e+00,4.998409248859999460e-02,-9.431499759550000306e+00,1.013598870489999977e-02,-9.554037824269999944e-04,1.466502202669999876e-03,1.000000000000000000e+00
1.650063000999999918e+00,-2.484276191100000197e+00,3.080774678569999855e-02,-9.459211942339999624e+00,1.744832098479999830e-02,-9.016164578499999763e-03,8.015937171880000572e-03,1.000000000000000000e+00
1.655231085999999907e+00,-2.470417177090000305e+00,-7.256643810950000328e-02,-9.449859007580000636e+00,1.509337220340000070e-02,5.365947727109999415e-04,3.001797245819999831e-03,1.000000000000000000e+00
1.660050604999999901e+00,-2.499718090380000035e+00,-1.045574672629999979e-01,-9.450916407679999409e+00,7.406247314069999525e-03,5.242074839770000279e-03,-6.248942110689999219e-03,1.000000000000000000e+00
1.665253177000000084e+00,-2.486366149109999757e+00,-7.514175593220000574e-03,-9.479859593569999632e+00,7.460464257750000147e-03,1.177715975790000029e-02,1.261483319099999945e-02,1.000000000000000000e+00
1.670247478999999924e+00,-2.458131988279999902e+00,1.353368830030000081e-01,-9.471063708169999984e+00,-5.080683156850000770e-03,-5.651963874700000013e-05,1.216909661889999800e-02,1.000000000000000000e+00
1.675077829999999990e+00,-2.441977849070000151e+00,1.639410187969999877e-01,-9.461915356080000450e+00,1.948246033859999922e-03,1.346564479170000127e-02,6.786460056900000572e-03,1.000000000000000000e+00
1.680086989999999947e+00,-2.451827919689999913e+00,1.711092299260000005e-01,-9.461726555510001191e+00,1.974826445800000052e-03,1.132194418460000067e-02,2.214128384369999907e-03,1.000000000000000000e+00
1.685223479000000024e+00,-2.288003823539999981e+00,-1.188196826400000072e-01,-9.627068508880000763e+00,1.558169815690000140e-02,6.209148094060000511e-03,4.831688478589999877e-03,1.000000000000000000e+00
1.690055547000000047e+00,-1.563329512929999776e+00,-7.763795826039999737e-01,-1.008300844230000060e+01,5.030066519980000428e-02,-8.819418027999998896e-03,5.834684893489999746e-02,1.000000000000000000e+00
1.695087395999999913e+00,-5.801007853089999999e-01,-1.178602977289999965e+00,-1.005083051230000102e+01,1.322237253190000073e-01,-1.300736218689999835e-01,1.827092021700000013e-01,1.000000000000000000e+00
1.700298687999999947e+00,-1.343915631500000041e+00,-9.041510992529999680e-01,-9.319699426749998850e+00,1.853873431679999850e-01,-3.003031015400000059e-01,2.896682023999999633e-01,1.000000000000000000e+00
1.705074583000000032e+00,-2.308429502590000126e+00,-4.473165915959999572e-01,-9.442337379899999661e+00,2.288398295640000080e-01,-4.274754524229999464e-01,3.898976743220000096e-01,0.000000000000000000e+00
1.710059653999999929e+00,-2.802240609260000070e+00,6.583625672489999969e-01,-9.364467958280000559e+00,2.210257798429999809e-01,-5.634094476700000076e-01,4.101039767270000524e-01,0.000000000000000000e+00
1.715230797000000029e+00,-2.997674626290000255e+00,1.296147479760000110e+00,-9.215326613610001161e+00,2.145190238949999939e-01,-6.045374274250000513e-01,3.450459539890000094e-01,0.000000000000000000e+00
1.720247064000000048e+00,-2.915597816110000018e+00,8.632078981640000093e-01,-9.339282079100000189e+00,2.078667134050000143e-01,-5.540423989299999574e-01,2.485359013080000179e-01,0.000000000000000000e+00
1.725244978000000096e+00,-3.172526750799999906e+00,2.728455022879999747e-01,-9.478515777739998427e+00,1.893163919449999955e-01,-3.592684566969999715e-01,1.630649864670000171e-01,0.000000000000000000e+00
1.730230232000000035e+00,-3.180324272809999631e+00,1.551255336519999917e-01,-9.433955336000000358e+00,1.627258807420000064e-01,-2.045844793320000243e-01,1.303801834579999819e-01,1.000000000000000000e+00
1.735047495000000106e+00,-2.899213959800000406e+00,3.258207576830000063e-01,-9.493246898410001577e+00,1.412059664729999886e-01,-1.085649728779999879e-01,1.349901109930000120e-01,1.000000000000000000e+00
1.740078282000000032e+00,-2.800865521509999567e+00,4.266417966300000142e-01,-9.481622511589998581e+00,1.084055379030000044e-01,-8.748214691880000504e-02,1.446184813979999872e-01,1.000000000000000000e+00
1.745215446000000004e+00,-2.636103121590000153e+00,5.987175152339999640e-01,-9.476928800810000553e+00,1.007816717029999948e-01,-1.080536395310000009e-01,1.332742869849999900e-01,1.000000000000000000e+00
1.750052938000000058e+00,-2.555325703569999884e+00,6.057160323520000000e-01,-9.469115496709999746e+00,1.114661842579999923e-01,-1.335361897949999821e-01,1.100768893960000078e-01,1.000000000000000000e+00
1.755269937000000002e+00,-2.561992760240000333e+00,5.368458732109999687e-01,-9.483331069069999231e+00,1.283426582809999994e-01,-1.487502902750000022e-01,5.548319593069999528e-02,1.000000000000000000e+00
1.760058968999999918e+00,-2.557273038249999964e+00,4.523747152359999801e-01,-9.604485505669998702e+00,1.374152004720000098e-01,-1.421467065810000097e-01,2.077276259659999874e-02,1.000000000000000000e+00
1.765199610000000030e+00,-2.368196573549999684e+00,-2.445922485909999763e-02,-9.622508653609999740e+00,1.362217366700000099e-01,-1.227845624090000004e-01,1.441678125410000150e-02,1.000000000000000000e+00
1.770039853000000107e+00,-2.350322478679999882e+00,-2.507370943219999759e-01,-9.652029931650000449e+00,9.836234897380000120e-02,-9.208176285029999464e-02,1.318411203099999944e-03,1.000000000000000000e+00
1.774861224999999987e+00,-2.428876375440000235e+00,-3.268959902659999972e-02,-9.605007483710000571e+00,9.579966962339998837e-02,-8.585042506460000000e-02,3.379781544209999739e-02,1.000000000000000000e+00
1.780032953000000084e+00,-2.410902619590000295e+00,2.224423441369999810e-01,-9.553293078570000318e+00,7.787674665450000644e-02,-1.050186380739999981e-01,3.856386989360000017e-02,1.000000000000000000e+00
1.784939792999999941e+00,-2.545070559280000033e+00,4.417947959679999759e-01,-9.693855395469999081e+00,6.172551587220000135e-02,-1.557239890099999802e-01,3.897530958059999828e-02,1.000000000000000000e+00
1.789988923999999981e+00,-1.936708652059999647e+00,-1.709827540019999703e-01,-9.609926235419999685e+00,1.029879674320000049e-01,-1.709696054459999837e-01,2.806560136379999959e-02,1.000000000000000000e+00
1.795037164000000018e+00,-1.857617871949999833e+00,-1.459348621710000016e+00,-9.282194164219999877e+00,1.273653060200000131e-01,-2.068824917079999937e-01,6.128699704999999998e-02,1.000000000000000000e+00
1.800040536000000024e+00,-2.088503141589999945e+00,-3.000990034450000010e+00,-8.659719852760000336e+00,1.311021596189999860e-01,-1.907563954589999722e-01,1.394720375540000057e-01,1.000000000000000000e+00
1.805040768000000018e+00,-2.094035641280000082e+00,-3.694117552540000293e+00,-8.615594879830000608e+00,4.392071068289999519e-02,-2.001021057369999911e-01,2.248527705669999821e-01,0.000000000000000000e+00
1.810268189999999944e+00,-2.413138854209999629e+00,-2.159286988869999924e+00,-8.841638262400000059e+00,-8.437120914460001508e-02,-2.223797887559999797e-01,3.111865222449999857e-01,0.000000000000000000e+00
1.815223650999999938e+00,-2.949897560590000190e+00,1.425817304319999812e-01,-8.950331861349999585e+00,-2.328751087189999958e-01,-2.582473754879999750e-01,3.426506221289999932e-01,0.000000000000000000e+00
1.820178435999999955e+00,-3.064250500479999584e+00,7.689007711560000846e-01,-8.987557722420000061e+00,-3.051636219020000262e-01,-2.385790944099999977e-01,2.952421605589999887e-01,0.000000000000000000e+00
1.825085112000000009e+00,-3.303688786679999989e+00,5.603121985919999881e-01,-8.863197767779999126e+00,-2.488939166069999986e-01,-1.833961158989999840e-01,2.447568476199999954e-01,0.000000000000000000e+00
1.830243381999999919e+00,-3.424553300409999945e+00,5.707746654940000219e-01,-8.908575955639998156e+00,-1.596557646990000023e-01,-9.389387816189999347e-02,2.342671304940000254e-01,1.000000000000000000e+00
1.835114944000000081e+00,-3.225399678340000076e+00,6.570950315319999957e-01,-8.866264169609999968e+00,-1.176864579319999993e-01,-5.366580188269999552e-02,2.474166452880000033e-01,1.000000000000000000e+00
1.840281905999999967e+00,-2.486174425929999821e+00,1.434351871890000019e-01,-8.964179769439999390e+00,-9.502869844439999769e-02,-3.022536262870000046e-02,2.416243106129999929e-01,1.000000000000000000e+00
1.845180307999999991e+00,-1.866835051500000064e+00,-4.926392498789999852e-01,-9.229989345210000806e+00,-1.303431242699999992e-01,-2.698600851000000286e-02,2.255311608309999716e-01,1.000000000000000000e+00
1.850240882000000031e+00,-2.213009518959999866e+00,-6.120438106019999713e-01,-9.250331291489999330e+00,-1.624820232389999897e-01,-3.916428983209999798e-02,2.563004195690000153e-01,1.000000000000000000e+00
1.855239013999999909e+00,-2.813338634109999958e+00,-2.193903726880000182e-01,-9.239541017410001444e+00,-2.013981640340000157e-01,-7.966550439599999478e-02,2.511735558509999855e-01,1.000000000000000000e+00
1.860040817000000013e+00,-3.188768276029999793e+00,3.814118946649999731e-01,-9.500339487019999751e+00,-2.025291472669999981e-01,-7.542672753330000035e-02,2.706613242629999916e-01,1.000000000000000000e+00
1.865220364000000020e+00,-2.858465185299999600e+00,9.544275805509999655e-01,-9.720891870950000069e+00,-1.910978257660000124e-01,-5.930447578430000921e-02,2.346106469629999913e-01,1.000000000000000000e+00
1.870184024000000056e+00,-2.822377972880000030e+00,8.114666050109999862e-01,-9.752808519700000289e+00,-1.182132437829999938e-01,-3.941451758150000401e-02,1.720582097769999819e-01,1.000000000000000000e+00
1.875237156000000072e+00,-2.829620491350000044e+00,2.602577503280000260e-01,-9.635528294180000231e+00,-8.925354480739999818e-02,-1.478694379329999718e-03,1.551340669390000038e-01,1.000000000000000000e+00
1.880307565000000070e+00,-2.812278019150000308e+00,-7.036742109469999729e-02,-9.458442711529999158e+00,-9.113795310259999172e-02,1.644979976119999993e-02,1.616737544540000071e-01,1.000000000000000000e+00
1.885193424999999978e+00,-2.824545964569999956e+00,2.180395882670000188e-02,-9.532791557810000427e+00,-1.056779474019999970e-01,2.175667695699999918e-02,1.696417629720000098e-01,1.000000000000000000e+00
1.890225371999999959e+00,-2.733717108129999573e+00,1.483716206779999991e-01,-9.586185878869999399e+00,-1.311097294090000087e-01,1.112262718379999904e-02,1.664243936539999968e-01,1.000000000000000000e+00
1.895239204999999982e+00,-2.731083837009999904e+00,8.123799387300000008e-02,-9.374365667439999328e+00,-1.298171281809999966e-01,7.795045152310000128e-03,1.585500091310000081e-01,1.000000000000000000e+00
1.900237152000000096e+00,-3.111836427520000559e+00,-4.278451354040000570e-02,-9.309898163699999785e+00,-1.175939664239999960e-01,-7.906467653809999985e-04,1.303256452079999961e-01,1.000000000000000000e+00
1.904995742000000103e+00,-3.412035471889999894e+00,9.383403873689999397e-02,-9.276346607239998932e+00,-1.275334358219999964e-01,5.167349427939999656e-02,1.520275473590000093e-01,1.000000000000000000e+00
1.910231033999999939e+00,-3.234900497129999941e+00,4.466938565879999823e-01,-9.148077370199999336e+00,-1.671932190660000150e-01,8.205112814899999385e-02,1.322099715470000103e-01,1.000000000000000000e+00
1.915064032000000083e+00,-2.869094715870000201e+00,2.161794843499999785e-01,-9.376825335549998641e+00,-1.713231801990000025e-01,1.059270203109999864e-01,1.164168342950000073e-01,1.000000000000000000e+00
1.920268869999999906e+00,-2.724546836459999621e+00,-1.998528015909999955e-01,-9.541465278130001337e+00,-1.685062348840000168e-01,1.329412758349999835e-01,1.208922117950000097e-01,1.000000000000000000e+00
1.925228206000000108e+00,-2.916248388970000160e+00,-2.660017921389999929e-01,-9.437068499589999604e+00,-2.007828950880000130e-01,1.447400897739999914e-01,1.165420264010000040e-01,1.000000000000000000e+00
1.930231848000000028e+00,-3.095553693500000314e+00,-1.480170168209999915e-01,-9.485184587979999193e+00,-2.004402130840000074e-01,1.483479440210000166e-01,1.123962998389999995e-01,1.000000000000000000e+00
1.935008134000000046e+00,-2.762175725370000112e+00,2.984670329419999990e-01,-9.582208791930000302e+00,-2.443806529049999954e-01,1.241490319370000123e-01,9.731885045769998743e-02,1.000000000000000000e+00
1.940267720000000029e+00,-2.972505698239999994e+00,6.270151697620000020e-01,-9.792175484450000411e+00,-2.194698303940000039e-01,1.152994930739999896e-01,6.498596072199999685e-02,1.000000000000000000e+00
1.945211334999999986e+00,-3.076763360569999772e+00,4.929759710199999589e-01,-9.779507141530000780e+00,-2.098197042940000145e-01,8.313317596910001217e-02,4.811872541899999550e-02,1.000000000000000000e+00
1.950087718000000025e+00,-2.955760315150000039e+00,3.220820095459999699e-01,-9.820068284500001354e+00,-1.917279064659999921e-01,1.016570925709999879e-01,3.275876492259999911e-02,1.000000000000000000e+00
1.955110858000000063e+00,-2.937695666140000217e+00,4.463031767700000318e-01,-9.749027832110000347e+00,-1.666765362020000141e-01,8.366787433619998771e-02,2.273983880880000100e-02,1.000000000000000000e+00
1.960085730000000082e+00,-2.866944552099999655e+00,2.896780704770000048e-01,-9.806438987599999990e+00,-1.544086039069999805e-01,7.013065367939999573e-02,1.981472037730000121e-02,1.000000000000000000e+00
1.965232585999999948e+00,-2.611640003729999826e+00,3.662251391879999818e-01,-9.934417132740000156e+00,-1.532598584890000060e-01,5.367065221069999836e-02,7.957902736959999307e-03,1.000000000000000000e+00
1.970216482999999963e+00,-2.576426067009999876e+00,4.294580596270000106e-01,-9.906658188189998882e+00,-1.371860653159999999e-01,3.258914500469999725e-02,-1.457344088699999950e-02,1.000000000000000000e+00
1.975275601000000103e+00,-2.420969986220000258e+00,1.861114591490000136e-01,-1.004411669389999950e+01,-1.033573299650000082e-01,9.547386318450000464e-03,-1.850269176070000118e-02,1.000000000000000000e+00
1.980280569000000046e+00,-2.257337613249999819e+00,2.013441726590000092e-01,-1.014528691159999951e+01,-7.059691846369998969e-02,-3.227853029970000065e-02,-2.838144451380000127e-02,1.000000000000000000e+00
1.985105630999999926e+00,-2.463292439780000009e+00,1.929152026130000197e-01,-1.009795583610000058e+01,-7.477829698469999793e-03,-5.777388066049999465e-02,-2.963870204990000021e-02,1.000000000000000000e+00
1.990224020999999954e+00,-2.705474763979999864e+00,2.382858464900000084e-01,-1.004557332239999923e+01,-3.081636736169999970e-03,-1.021927371620000025e-01,-3.626278042790000156e-02,1.000000000000000000e+00
1.995230132999999961e+00,-2.724082726079999794e+00,3.480257578909999872e-01,-1.016780853999999934e+01,4.623907618220000383e-03,-1.472727954389999871e-01,-5.823108926419999498e-02,1.000000000000000000e+00
2.000023697000000045e+00,-2.695165843679999895e+00,4.267678341619999816e-01,-1.025137646549999992e+01,4.844247177239999896e-02,-1.734089255329999968e-01,-6.207556650039999790e-02,1.000000000000000000e+00
2.005260997999999795e+00,-2.487726916069999739e+00,3.836716197580000154e-01,-1.033020041139999989e+01,9.877983480689998819e-02,-2.226893156769999826e-01,-6.048515811560000593e-02,0.000000000000000000e+00
2.010344062000000154e+00,-2.521274673149999757e+00,2.770930767299999986e-01,-1.055233626509999922e+01,1.155159622430000088e-01,-2.641244530680000313e-01,-4.476165771480000721e-02,0.000000000000000000e+00
2.015054314999999985e+00,-2.088478445540000283e+00,2.583845220690000333e-01,-1.077302834980000057e+01,1.436834484339999940e-01,-2.876102030279999999e-01,-5.981841310859999788e-02,0.000000000000000000e+00
2.019977014999999820e+00,-1.938979811859999902e+00,3.072941171940000160e-01,-1.110811370640000106e+01,1.429901123050000000e-01,-3.671152889729999980e-01,-7.592184096569999652e-02,0.000000000000000000e+00
2.025016574999999985e+00,-2.113425985920000194e+00,2.036108937489999882e-01,-1.120585394959999981e+01,1.396794319150000130e-01,-4.601368308070000190e-01,-9.524092823270000063e-02,0.000000000000000000e+00
2.030037715999999826e+00,-2.055069804680000001e+00,-1.131510806849999884e-01,-1.133247775749999953e+01,1.292203813789999933e-01,-5.501472353940000115e-01,-8.019975572819999787e-02,0.000000000000000000e+00
2.035034828000000129e+00,-1.731663779979999873e+00,5.300523040809999864e-02,-1.182951776310000014e+01,1.182431578639999981e-01,-6.600023508069999822e-01,-1.116014420989999978e-01,0.000000000000000000e+00
2.040270308000000199e+00,-8.388136077500000232e-01,7.755063068999999976e-01,-1.259087038390000046e+01,1.451016664510000054e-01,-7.823606133460000445e-01,-7.964449375870000236e-02,0.000000000000000000e+00
2.045163989999999821e+00,3.849338582460000158e-01,1.092544038670000051e+00,-1.352463942650000028e+01,2.264148443939999755e-01,-9.255632162090000614e-01,-4.920407012099999727e-02,0.000000000000000000e+00
2.050194214999999875e+00,-4.864676485719999777e-01,1.325193833769999996e+00,-1.353955876319999874e+01,4.115855693819999717e-01,-1.140738248829999968e+00,-2.980697341259999633e-02,0.000000000000000000e+00
2.055217514000000190e+00,-6.461038280479999285e-01,1.538595615299999997e+00,-1.412623987680000148e+01,5.578585863109999377e-01,-1.382501006130000043e+00,-4.184842482210000131e-02,0.000000000000000000e+00
2.060257111999999946e+00,-1.046751296920000046e-01,1.548907750479999734e+00,-1.463032220210000034e+01,5.540223121639999970e-01,-1.755927443499999852e+00,-4.388959333300000015e-02,0.000000000000000000e+00
2.065215810999999846e+00,6.194150700220000250e-01,2.016045808149999896e+00,-1.453253636609999866e+01,4.841240346429999675e-01,-2.189040660859999932e+00,-6.933262199160000749e-02,0.000000000000000000e+00
2.070176216000000124e+00,2.461082654769999767e+00,1.035860685999999919e+00,-1.557881301299999954e+01,4.924685955049999952e-01,-2.606719493870000015e+00,-1.083522289990000026e-01,0.000000000000000000e+00
2.075219099999999983e+00,3.438634725000000003e+00,-9.212978296909999365e-01,-1.580138258200000045e+01,6.025016903880000552e-01,-3.089107751849999861e+00,-1.730900956319999812e-03,0.000000000000000000e+00
2.080033180000000037e+00,1.575112012920000026e+00,1.039986387629999953e+00,-1.540703488910000019e+01,6.545421481130000441e-01,-3.566904544830000301e+00,5.978098139169999575e-02,0.000000000000000000e+00
2.085033074000000042e+00,-1.331898299839999966e+00,2.748991249629999967e+00,-1.136831245650000177e+01,6.297433972360000354e-01,-4.000236034390000306e+00,3.792758658530000215e-02,0.000000000000000000e+00
2.090213009000000177e+00,-3.539160507330000538e+00,3.870746623600000103e+00,-1.313448392459999958e+01,5.065310001370000315e-01,-4.297652244569999169e+00,-1.827443987129999947e-01,0.000000000000000000e+00
2.095192750999999909e+00,-2.513135205829999830e+00,4.334266929170000004e+00,-1.400300161960000089e+01,3.803075253959999902e-01,-4.426877975460000059e+00,-5.782328248020000006e-01,0.000000000000000000e+00
2.100235952999999878e+00,-1.679804413409999864e+00,1.006207525210000009e+00,-1.408353821460000077e+01,3.566746413710000230e-01,-4.343894481660000473e+00,-8.451976776119999313e-01,0.000000000000000000e+00
2.105201037000000053e+00,-1.223809827169999975e+00,-2.569291977340000255e+00,-1.575645272240000061e+01,3.566674292090000198e-01,-4.125744342800000020e+00,-8.955943584440000382e-01,0.000000000000000000e+00
2.110222346000000027e+00,-7.482688289499999090e-01,-4.652768522940000651e+00,-1.584593016420000033e+01,2.636640071870000046e-01,-4.077685832980000313e+00,-6.985022425650000422e-01,0.000000000000000000e+00
2.115219392000000198e+00,-1.161641759489999925e+00,-6.661163524069999120e+00,-1.525733298789999992e+01,7.642147829760000469e-05,-4.186188220980000096e+00,-3.301006257530000321e-01,0.000000000000000000e+00
2.120257860999999799e+00,-1.348158529770000058e+00,-6.455292576440000651e+00,-1.549888548980000103e+01,-4.847427904609999949e-01,-4.459401130679999881e+00,1.468239072710000002e-02,0.000000000000000000e+00
2.125077933000000030e+00,-4.332252958999999848e+00,-7.959823278919999190e+00,-1.651983947940000164e+01,-1.328651905060000082e+00,-4.849748611449999913e+00,1.272576749319999923e-01,0.000000000000000000e+00
2.130227527999999815e+00,-8.806573378760001347e+00,-9.400662138210000407e+00,-1.775775396589999744e+01,-2.390541791920000048e+00,-5.206839084630000336e+00,7.740754634139999923e-02,0.000000000000000000e+00
2.135043605999999983e+00,-1.395525670259999984e+01,-9.093206546850000294e+00,-2.205654304669999988e+01,-3.633834600450000174e+00,-5.484463214869999881e+00,-1.346822828049999976e-01,0.000000000000000000e+00
2.140263972000000070e+00,-2.049349176619999824e+01,-5.783548330369999491e+00,-2.571439686119999735e+01,-4.640347480770000033e+00,-5.470185756679999400e+00,-3.760036528109999554e-01,0.000000000000000000e+00
2.144998848000000180e+00,-2.326880169840000079e+01,-3.478573352159999743e+00,-2.259221059679999755e+01,-5.090388774870000077e+00,-5.320509910580000223e+00,-3.930332660679999868e-01,0.000000000000000000e+00
2.150235616999999877e+00,-2.483247023400000231e+01,2.417467384930000129e+00,-2.211615025090000231e+01,-5.072803497309999798e+00,-4.779811382290000132e+00,-3.768553733829999586e-01,0.000000000000000000e+00
2.155220868999999873e+00,-3.136122902869999862e+01,5.923017591340000720e+00,-2.340918515159999913e+01,-4.799304962159999910e+00,-4.070672035219999430e+00,-2.178582549099999932e-01,0.000000000000000000e+00
2.160256495000000054e+00,-3.004505173739999790e+01,5.643880916490000565e+00,-2.609519416760000254e+01,-4.428598403929999705e+00,-3.250593900680000203e+00,-2.584396600719999770e-01,0.000000000000000000e+00
2.165086751000000032e+00,-2.081817964740000093e+01,3.158006642539999964e-01,-2.126923648500000041e+01,-4.016139984130000506e+00,-2.531709194179999844e+00,-2.386707961560000091e-01,0.000000000000000000e+00
2.170068377000000215e+00,-1.356022628819999909e+01,4.255871912769999127e-02,-1.875709350500000028e+01,-3.734354734419999655e+00,-1.930195212359999690e+00,-2.226746082309999930e-01,0.000000000000000000e+00
2.175073461999999846e+00,-1.982919900519999956e+01,1.161869576890000033e+00,-1.864376990819999946e+01,-3.965465545649999868e+00,-2.317025423050000033e+00,-2.374507188799999946e-01,0.000000000000000000e+00
2.180084013000000098e+00,-2.200089890090000111e+01,-1.884559654890000324e+00,-2.718305954699999916e+01,-4.181323528290000091e+00,-2.287399768829999847e+00,-1.717414706949999814e-01,0.000000000000000000e+00
2.185016226000000117e+00,-1.479939282059999961e+01,-3.477978308869999591e+00,-2.589203773969999745e+01,-3.948323249820000047e+00,-2.024918317790000089e+00,-2.410071045159999925e-01,0.000000000000000000e+00
2.190217625999999917e+00,-7.921631203169998692e+00,-2.409978928869999759e+00,-2.175510744630000204e+01,-3.688804864880000256e+00,-1.761042118070000218e+00,-3.980782330039999706e-01,0.000000000000000000e+00
2.195217094000000202e+00,-7.106369297530000573e+00,-1.713863919400000047e+00,-2.175951941750000174e+01,-3.783853530880000537e+00,-1.370051503179999797e+00,-3.483891487120000519e-01,0.000000000000000000e+00
2.200253822000000081e+00,-5.359350273630000494e+00,-5.547719466849999392e+00,-2.036886000890000048e+01,-4.034143447880000899e+00,-1.120097994800000052e+00,-1.461747139690000030e-01,0.000000000000000000e+00
2.205204248999999894e+00,-3.644311319110000280e+00,-6.764367877959999831e+00,-1.897776220880000153e+01,-4.094465732569999794e+00,-9.793357849120000180e-01,1.557298842820000091e-02,0.000000000000000000e+00
2.210064560999999816e+00,-2.375605680759999672e+00,-6.162029176549999931e+00,-1.774638735319999938e+01,-4.132664203640000089e+00,-1.121702551839999895e+00,1.421590745450000137e-01,0.000000000000000000e+00
2.215223384999999823e+00,-6.453191804769999873e-01,-5.620860690900000733e+00,-1.668699754229999854e+01,-4.227376461030000421e+00,-1.157668232920000095e+00,1.940442919729999938e-01,0.000000000000000000e+00
2.220029523000000005e+00,-4.277607907219999755e-02,-5.724383024700000711e+00,-1.578330098180000007e+01,-4.326914787290000675e+00,-1.026623129839999926e+00,2.075606733560000083e-01,0.000000000000000000e+00
2.225015924000000034e+00,8.061858150630000219e-01,-5.494451987039999707e+00,-1.463245453789999928e+01,-4.330706596369999772e+00,-7.070042490960000148e-01,1.302831023930000054e-01,0.000000000000000000e+00
2.230167353000000130e+00,1.602364469250000090e+00,-5.208391065880000781e+00,-1.335437638339999999e+01,-4.268028736109999777e+00,-3.398042321209999717e-01,1.140205860139999888e-01,0.000000000000000000e+00
2.234966684000000203e+00,2.379089577350000262e+00,-6.156601306290000686e+00,-1.186845393519999980e+01,-4.174613475800000195e+00,3.510364890099999802e-02,1.957847028970000069e-01,0.000000000000000000e+00
2.240257056999999996e+00,2.991056961720000018e+00,-7.195270400770000130e+00,-1.060534304819999996e+01,-4.039260864260000083e+00,2.847749590870000125e-01,3.664213716979999869e-01,0.000000000000000000e+00
2.245187550999999893e+00,3.445160619639999755e+00,-7.304774147069999835e+00,-9.495435348360000916e+00,-3.890436172490000288e+00,4.934717118739999631e-01,4.958942830560000292e-01,0.000000000000000000e+00
2.250216167000000045e+00,3.935082317650000050e+00,-7.397418528489999368e+00,-8.224591821200000652e+00,-3.732932090759999877e+00,6.345973014829999759e-01,5.670998692509999772e-01,0.000000000000000000e+00
2.255217295000000011e+00,4.404914290580000724e+00,-7.999737356160000701e+00,-7.159809211289999809e+00,-3.595971822739999713e+00,8.266562223430000689e-01,5.859699249270000632e-01,0.000000000000000000e+00
2.260058717999999800e+00,4.581562358600000273e+00,-8.773716818820000540e+00,-6.107704881170000100e+00,-3.473693370819999515e+00,1.089896082879999950e+00,5.698783993720000218e-01,0.000000000000000000e+00
2.265046315999999837e+00,4.479529971099999841e+00,-9.325689022549999763e+00,-4.985567229880000006e+00,-3.358223199840000284e+00,1.350310206410000102e+00,6.405479311939999976e-01,0.000000000000000000e+00
2.270063069999999961e+00,5.527106302409999117e+00,-9.262726078160001819e+00,-3.761164551380000276e+00,-3.256153583529999729e+00,1.616957426069999926e+00,6.826158761980000156e-01,0.000000000000000000e+00
2.275053540000000041e+00,6.333198813160000107e+00,-9.024915685429999002e+00,-2.487717563719999969e+00,-3.141458511349999760e+00,1.864939570429999804e+00,7.124912142749999511e-01,0.000000000000000000e+00
2.280027603999999819e+00,6.757535401590000212e+00,-9.100522422819999235e+00,-1.466171599599999986e+00,-2.985667228700000120e+00,2.090561866759999887e+00,6.976585388179999958e-01,0.000000000000000000e+00
2.285018505000000033e+00,6.813245013849999587e+00,-9.908998613839999692e+00,-5.811242831380000196e-01,-2.768590450290000504e+00,2.232232570649999914e+00,6.778814792630000197e-01,0.000000000000000000e+00
2.290022744999999915e+00,6.949805693900000136e+00,-1.041720649470000026e+01,4.038631247189999884e-01,-2.578066349029999760e+00,2.369788646700000001e+00,6.623131036760000478e-01,0.000000000000000000e+00
2.294991722999999872e+00,6.903496947189999844e+00,-1.049365026739999962e+01,1.360127053849999879e+00,-2.367497682569999817e+00,2.484859228129999931e+00,7.131841778759999695e-01,0.000000000000000000e+00
2.299949637000000102e+00,7.068445517330000705e+00,-1.029779568690000069e+01,2.145419060900000119e+00,-2.164677381520000221e+00,2.616499662400000314e+00,6.952636837960000094e-01,0.000000000000000000e+00
2.305048290999999860e+00,6.862444221310000536e+00,-1.013928153370000018e+01,2.744682154259999951e+00,-1.902577757840000050e+00,2.772307634350000161e+00,6.359424591060000020e-01,0.000000000000000000e+00
2.309991892000000213e+00,6.329092546890000115e+00,-1.039436221020000062e+01,3.025977468450000263e+00,-1.607580304149999861e+00,2.910202741620000033e+00,5.997604131700000618e-01,0.000000000000000000e+00
2.314847670999999885e+00,5.639851222579999934e+00,-1.066980529119999943e+01,3.065502254110000102e+00,-1.269749522209999926e+00,3.075829982759999748e+00,5.596268773079999814e-01,0.000000000000000000e+00
2.319778132000000159e+00,4.801455986369999707e+00,-1.061785298559999902e+01,3.488725036069999952e+00,-9.461289048190000273e-01,3.232310771939999938e+00,5.164809823040000802e-01,0.000000000000000000e+00
2.324749408000000184e+00,4.346729812639999579e+00,-1.095337322650000011e+01,4.076206360089999592e+00,-6.111636757849999713e-01,3.378120660780000062e+00,4.344759881499999921e-01,0.000000000000000000e+00
2.329758737000000135e+00,4.023996280380000456e+00,-1.160985443700000097e+01,4.604878936780000487e+00,-3.257825970650000125e-01,3.531373977659999941e+00,3.137593269350000269e-01,0.000000000000000000e+00
2.334702534999999912e+00,3.618628596319999779e+00,-1.234705578230000000e+01,5.010396550709999453e+00,-1.040828675029999983e-01,3.625451564790000525e+00,1.882446557280000043e-01,0.000000000000000000e+00
2.339681178999999833e+00,3.346373497670000141e+00,-1.295512688990000072e+01,5.527093442930000045e+00,8.756116032600000376e-02,3.694812297819999536e+00,3.110738284890000177e-02,0.000000000000000000e+00
2.344813435999999918e+00,2.784187066169999891e+00,-1.345943484070000018e+01,5.962723578780000366e+00,2.388969659809999924e-01,3.734545230869999344e+00,-1.502340435979999944e-01,0.000000000000000000e+00
2.349950468999999931e+00,2.211787283690000105e+00,-1.375184191599999828e+01,6.256561563689999161e+00,3.940674066539999743e-01,3.722293615340000361e+00,-3.815396428110000016e-01,0.000000000000000000e+00
2.354955782999999858e+00,1.443435890049999948e+00,-1.380636962500000031e+01,6.347946884959998926e+00,5.566933751110000328e-01,3.698128223419999472e+00,-6.401840448380000659e-01,0.000000000000000000e+00
2.359934008999999833e+00,8.397964813079998869e-01,-1.345684540869999957e+01,6.285380830930000329e+00,7.293696403499999592e-01,3.666754961010000091e+00,-9.752939343449998910e-01,0.000000000000000000e+00
2.364936376999999812e+00,4.011612818819999537e-01,-1.307816991670000029e+01,6.347540642250000253e+00,9.462535977359999295e-01,3.592570543289999918e+00,-1.401502966879999867e+00,0.000000000000000000e+00
2.370105044000000216e+00,3.607888298849999675e-02,-1.270019000579999968e+01,6.263887376529999607e+00,1.171114206309999961e+00,3.534000158309999584e+00,-1.864889621729999725e+00,0.000000000000000000e+00
2.374990345000000058e+00,-9.938260364160000915e-02,-1.216748831970000033e+01,6.276780760369999435e+00,1.423707485200000011e+00,3.459186792369999708e+00,-2.372686147690000080e+00,0.000000000000000000e+00
2.380010963999999785e+00,-3.265644887220000014e-01,-1.167681141939999989e+01,6.219014800100000073e+00,1.657767534260000009e+00,3.337565660479999696e+00,-2.908700466159999998e+00,0.000000000000000000e+00
2.384958211999999911e+00,-8.433588499640000125e-01,-1.125912493660000102e+01,6.036994099130000180e+00,1.917812585830000138e+00,3.224910020829999890e+00,-3.414451360699999771e+00,0.000000000000000000e+00
2.389989781000000146e+00,-1.556808732860000211e+00,-1.072634492450000110e+01,5.728322702230000729e+00,2.143200874330000172e+00,3.081913232799999847e+00,-3.904826402659999918e+00,0.000000000000000000e+00
2.395174826999999951e+00,-2.029851776790000173e+00,-9.917629664059999683e+00,5.511164636910000247e+00,2.363944768909999716e+00,2.921859741210000028e+00,-4.384274482730000422e+00,0.000000000000000000e+00
2.400154969999999999e+00,-2.685653042179999783e+00,-8.851089396830001732e+00,5.075934314019999505e+00,2.550508499149999775e+00,2.732860326770000015e+00,-4.818594455719999559e+00,0.000000000000000000e+00
2.405053474999999885e+00,-3.466861287049999962e+00,-8.020131909410000759e+00,4.546006476569999677e+00,2.736342668529999855e+00,2.522216320040000070e+00,-5.251123905180000051e+00,0.000000000000000000e+00
2.410111752000000163e+00,-4.216299013650000482e+00,-7.512739436629999545e+00,3.946629255319999530e+00,2.946496248249999894e+00,2.298113584520000252e+00,-5.613415718080000616e+00,0.000000000000000000e+00
2.415094324000000015e+00,-4.566530501429999944e+00,-6.715174515720000237e+00,3.372513608839999844e+00,3.170104265209999550e+00,2.094749689099999923e+00,-5.901340007780000008e+00,0.000000000000000000e+00
2.420031144999999828e+00,-5.047256501069999679e+00,-4.610821186309999931e+00,1.821299627249999942e+00,3.431089162829999761e+00,1.867670059199999955e+00,-6.170414447779999811e+00,0.000000000000000000e+00
2.425035542999999905e+00,-6.314453780680000961e+00,-3.332957551259999818e+00,2.497010110060000065e-01,3.738159656519999707e+00,1.628178954120000022e+00,-6.414847850800000195e+00,0.000000000000000000e+00
2.430085824999999922e+00,-8.164455624669999523e+00,-2.967648905859999520e+00,-1.061604783589999990e+00,4.067377090449999955e+00,1.474701166150000020e+00,-6.660632610319999536e+00,0.000000000000000000e+00
2.435027518000000057e+00,-9.707332716679999862e+00,-3.001695844629999943e+00,-2.205121688320000217e+00,4.267575740809999907e+00,1.372889876369999929e+00,-6.901740550989999612e+00,0.000000000000000000e+00
2.440193827999999954e+00,-1.040509753919999980e+01,-3.542752102080000132e+00,-3.165885120830000066e+00,4.317841053010000429e+00,1.316680550579999887e+00,-7.133890628810000578e+00,0.000000000000000000e+00
2.445108076999999991e+00,-1.057705803390000021e+01,-3.982658015559999765e+00,-3.740203596409999776e+00,4.181950569150000518e+00,1.263173699380000015e+00,-7.327624320980000938e+00,0.000000000000000000e+00
2.450039183999999981e+00,-1.099655185849999839e+01,-3.833599965249999908e+00,-4.980827341880000425e+00,3.919571876530000498e+00,1.203849673270000142e+00,-7.523922443390000048e+00,0.000000000000000000e+00
2.455061229000000012e+00,-1.259747197410000119e+01,-4.321665221750000008e+00,-6.433115231419999525e+00,3.585809469219999990e+00,1.051673293110000129e+00,-7.624474048610000665e+00,0.000000000000000000e+00
2.460056605000000118e+00,-1.448020412130000167e+01,-5.414425679639999878e+00,-7.782917144480000715e+00,3.209020376209999803e+00,8.771274685860001030e-01,-7.643044471739998791e+00,0.000000000000000000e+00
2.465022924999999976e+00,-1.546693786140000171e+01,-6.057430737959999867e+00,-8.956793166319998889e+00,2.749832630159999791e+00,7.252084612850000500e-01,-7.509143352510000646e+00,0.000000000000000000e+00
2.470075206999999828e+00,-1.504006035630000149e+01,-5.727738180349999375e+00,-9.625925768580000152e+00,2.236286401750000152e+00,6.305672526359999974e-01,-7.281491279599999977e+00,0.000000000000000000e+00
2.475055301999999902e+00,-1.424681972839999844e+01,-4.813280571940000030e+00,-1.050007767009999959e+01,1.750946760180000172e+00,5.613242983820000420e-01,-6.996606349950000414e+00,0.000000000000000000e+00
2.480229921999999920e+00,-1.519682912710000089e+01,-4.844073185090000067e+00,-1.263244859499999961e+01,1.395407080650000076e+00,4.740825593469999988e-01,-6.537637233729999942e+00,0.000000000000000000e+00
2.485045380999999942e+00,-1.885295860209999930e+01,-3.108297732000000035e+00,-1.436500304019999952e+01,1.357976436610000226e+00,3.753517568110000258e-01,-5.923429012300000629e+00,0.000000000000000000e+00
2.490030877000000142e+00,-2.309540912510000155e+01,5.681879004029999347e-01,-1.448699977279999906e+01,1.638652801509999923e+00,2.367796003819999939e-01,-5.325527191159999951e+00,0.000000000000000000e+00
2.495026033999999893e+00,-2.745401583800000367e+01,2.969930879319999661e+00,-1.444998200160000046e+01,2.145991325379999815e+00,1.706298291679999857e-01,-4.873340129849999869e+00,0.000000000000000000e+00
2.499980364999999871e+00,-3.066823624290000083e+01,1.272205609289999817e+00,-1.490567760480000103e+01,2.622095108029999899e+00,1.392875760789999973e-01,-4.502962112430000552e+00,0.000000000000000000e+00
2.505005586999999867e+00,-3.337093920409999726e+01,-4.102262300099999592e+00,-1.536249432109999979e+01,2.827388048170000445e+00,2.781370282169999819e-01,-4.134900569920000102e+00,0.000000000000000000e+00
2.510205995999999828e+00,-3.515769402610000327e+01,-8.768208869049999521e+00,-1.500228855180000131e+01,2.647099018100000034e+00,4.101870656009999894e-01,-3.679436683650000095e+00,0.000000000000000000e+00
2.515182421000000001e+00,-3.554659982009999908e+01,-1.111462528020000029e+01,-1.358741357029999897e+01,2.050055503849999905e+00,5.582296848300000169e-01,-3.225412607190000447e+00,0.000000000000000000e+00
2.520016941000000177e+00,-3.392931192249999839e+01,-1.108675060030000026e+01,-1.095421493799999979e+01,1.213582277300000012e+00,6.988411545749999565e-01,-2.807299375529999530e+00,0.000000000000000000e+00
2.525021436999999924e+00,-3.140555916879999998e+01,-9.646480480830000204e+00,-8.373290098289999150e+00,3.718797862529999998e-01,7.428611516949998883e-01,-2.340832948680000136e+00,0.000000000000000000e+00
2.530233729999999959e+00,-2.860066775280000329e+01,-7.095282670850000528e+00,-5.875146417619999895e+00,-2.940037250520000089e-01,6.175980567930000609e-01,-1.890733361240000132e+00,0.000000000000000000e+00
2.535015526000000019e+00,-2.595261992639999704e+01,-4.566735376349999598e+00,-3.573488016600000261e+00,-6.631506085399999639e-01,2.733905315399999814e-01,-1.439160585400000025e+00,0.000000000000000000e+00
2.540006394000000167e+00,-2.367773788860000295e+01,-2.361980183250000032e+00,-2.266182013959999964e+00,-7.777723073960000066e-01,-1.646384149790000029e-01,-1.133290886880000015e+00,0.000000000000000000e+00
2.545141844999999847e+00,-2.290646125519999998e+01,-3.968804262250000270e-01,-1.962618461599999975e+00,-5.924723744389999158e-01,-6.510707139970000057e-01,-8.522021770479999425e-01,0.000000000000000000e+00
2.550049904999999839e+00,-2.320455572850000081e+01,1.844517421229999954e+00,-2.411911504369999903e+00,-1.222517788409999973e-01,-1.040769338610000094e+00,-6.873020529750000218e-01,0.000000000000000000e+00
2.555068438999999803e+00,-2.367880405650000242e+01,3.969954601329999999e+00,-2.549066058650000244e+00,5.691289305690000466e-01,-1.274554967879999889e+00,-5.924456715579999866e-01,0.000000000000000000e+00
2.560062410000000011e+00,-2.326360412980000092e+01,5.662375189069999593e+00,-2.064229847210000024e+00,1.308396220209999905e+00,-1.294324874879999809e+00,-5.815730690959999283e-01,0.000000000000000000e+00
2.565023533999999827e+00,-2.099976955569999859e+01,6.112287532790000810e+00,-8.703270825190000393e-01,1.911044359209999710e+00,-1.146277308459999977e+00,-6.357937455179999420e-01,0.000000000000000000e+00
2.570026987999999957e+00,-1.696700340119999950e+01,6.209156838430000214e+00,-1.064648169879999981e-02,2.234549045560000113e+00,-1.023865342139999912e+00,-7.454817295069999794e-01,0.000000000000000000e+00
2.575046534999999803e+00,-1.296881639259999908e+01,5.562801300640000335e+00,1.913395873269999959e-03,2.284520864490000136e+00,-1.028167486190000091e+00,-7.815155386920000780e-01,0.000000000000000000e+00
2.580002818000000087e+00,-2.485634210800000332e+01,-2.424870588469999788e+01,-1.729970040130000086e+01,1.467878341669999864e+00,-9.961854815480000180e-01,-4.724611341950000210e-01,0.000000000000000000e+00
2.584935597999999946e+00,-1.493436827730000083e+01,-4.039895918749999737e+01,-5.567504363769999465e+00,-1.092941761020000069e+00,-1.839266180990000166e+00,1.204196453090000007e+00,0.000000000000000000e+00
2.590008779999999788e+00,1.152610180249999949e+01,-1.844877106770000097e+01,-1.592702790030000060e+01,-5.531805992130000682e+00,-3.505796492099999551e-01,1.790168046949999869e+00,0.000000000000000000e+00
2.595029975000000100e+00,-3.330053704960000260e+01,5.203931514579999629e+01,-4.491221168779999573e+01,-9.606310844419999384e+00,3.715779185299999954e-01,1.590538859370000058e+00,0.000000000000000000e+00
2.600005142000000102e+00,-7.429821499450000921e+00,3.368720061770000029e+01,-2.262444814810000082e+01,-9.599900245669999777e+00,4.104676097630000076e-02,2.220862388609999627e+00,0.000000000000000000e+00
2.605005241999999832e+00,-1.022209542599999965e+00,3.672489307389999880e+01,-5.833701477550000014e+00,-9.625621795649999868e+00,4.491198062900000565e+00,3.734396770600000026e-02,0.000000000000000000e+00
2.610205807999999905e+00,-2.105892784710000143e+01,2.640319511790000107e+01,-2.806856111000000098e+01,-5.034087657930000681e+00,7.247417449950000368e+00,-1.248897761109999949e-01,0.000000000000000000e+00
2.615204176999999852e+00,-8.834521123869999215e+00,7.329891052669999851e+00,-1.920115595369999895e+01,-1.118640661239999945e+00,6.331655979159999781e+00,1.575173854829999831e+00,0.000000000000000000e+00
2.620244572999999910e+00,1.124324932200000049e+01,7.425438754319999113e+00,-7.014824986299999843e+00,3.164674937730000415e-01,5.482828617100000024e+00,2.082145452499999827e+00,0.000000000000000000e+00
2.625256262000000174e+00,9.712443191560000244e+00,3.605057751600000415e+00,-7.320242349829999995e+00,-6.774355173109999351e-01,3.420265197749999597e+00,1.816699743270000278e+00,0.000000000000000000e+00
2.630202211999999928e+00,1.081347887199999969e+00,-6.705904583080000592e+00,-1.613466527299999953e+01,-2.349777221679999695e+00,1.172651529310000162e+00,8.261085152629999984e-01,0.000000000000000000e+00
2.635207465000000138e+00,-7.245088909169999924e-01,-4.163400951680000794e+00,-1.314521925369999877e+01,-3.901754617689999982e+00,-4.556799530979999679e-01,-3.618882894520000226e-01,0.000000000000000000e+00
2.640167765999999805e+00,-5.055913854780000882e+00,4.128907438180000611e+00,-2.411032851070000049e+01,-4.810528755190000005e+00,-9.260185956950000019e-01,-3.519366681580000100e-01,0.000000000000000000e+00
2.645051415999999822e+00,6.228297592230000568e+00,9.034478463550000171e+00,-1.496686184910000073e+01,-4.569638729100000241e+00,-2.468195855620000101e-01,-1.031055226920000040e-01,0.000000000000000000e+00
2.650044086999999937e+00,-3.225715904679999912e+00,1.121624324170000087e+01,-1.545537835650000069e+01,-2.829059362409999778e+00,8.912798166280000434e-01,-8.369265496730000919e-02,0.000000000000000000e+00
2.655040276999999893e+00,-6.784229931769999666e+00,7.012117480900000643e+00,-2.054782190679999943e+01,-1.287876248360000142e+00,1.946079850200000072e+00,4.591750204559999493e-01,0.000000000000000000e+00
2.660056270000000112e+00,2.409360358579999861e+00,1.151986553850000039e+00,-1.481589621160000014e+01,-1.779509335759999963e-02,1.815931916240000055e+00,7.738296985629999902e-01,0.000000000000000000e+00
2.665020640999999912e+00,9.241289322380000115e+00,-2.599914640750000117e-01,-1.416905493619999845e+01,6.377682089810000621e-01,1.549147129060000072e+00,7.789174914359999757e-01,0.000000000000000000e+00
2.669975512000000162e+00,7.977696204739999963e+00,3.543249676340000098e-01,-1.349595459930000096e+01,3.999778628350000309e-01,5.597338676449999939e-01,6.430354714389999726e-01,0.000000000000000000e+00
2.675008699000000156e+00,-5.236976378240000563e-02,1.288618983949999963e+00,-1.055793130860000062e+01,-2.252161651850000113e-01,-5.101501941680000041e-01,5.262081623080000492e-01,0.000000000000000000e+00
2.680000353000000057e+00,-5.607759801790000331e+00,1.328777975860000016e+00,-9.208279617700000586e+00,-6.566265225410000683e-01,-1.069099783900000045e+00,3.811126351359999664e-01,0.000000000000000000e+00
2.685006336999999910e+00,-5.280006687809999377e+00,2.692756736709999821e+00,-9.026195788369999917e+00,-6.447843909260000395e-01,-1.437031388279999877e+00,1.400232780720000146e-02,0.000000000000000000e+00
2.690214486999999988e+00,-6.033954585300000062e+00,3.062089230789999839e+00,-7.920923347160000461e+00,-3.118075132370000113e-01,-1.166098475460000117e+00,-2.197009325030000182e-01,0.000000000000000000e+00
2.695188093000000062e+00,-6.919696971360000504e+00,1.166873303470000067e+00,-7.333807933850000182e+00,6.918906420469998764e-02,-6.238388419150000530e-01,-2.527300119399999989e-01,0.000000000000000000e+00
2.700041327000000102e+00,-7.030911028700000287e+00,6.387193986189999666e-03,-7.370622291510000146e+00,3.432103991509999896e-01,1.923263445499999794e-02,-4.555113147939999184e-03,0.000000000000000000e+00
2.705047405999999821e+00,-5.914331596059999363e+00,-5.402800489110000104e-01,-8.157742390770000185e+00,2.274761945010000119e-01,4.038607180120000195e-01,1.575132757430000030e-01,0.000000000000000000e+00
2.710185222999999866e+00,-3.630137247799999578e+00,-4.940894121549999629e-01,-8.738183148619999230e+00,-3.860418125989999866e-02,4.221296310419999642e-01,1.606293171640000017e-01,0.000000000000000000e+00
2.715182261999999902e+00,-3.013182576540000657e+00,-1.104320547309999956e+00,-9.206243143440000054e+00,-3.358000516889999565e-01,2.895022332669999754e-01,1.201283782719999860e-01,0.000000000000000000e+00
2.720236301999999995e+00,-3.067736296769999704e+00,-2.095599967979999700e+00,-9.085654524029999735e+00,-3.858279585840000414e-01,2.353979647159999966e-01,1.469622999430000021e-01,0.000000000000000000e+00
2.725123520999999993e+00,-2.588083187050000067e+00,-1.441000625729999873e+00,-9.713182611749999751e+00,-3.223938643929999959e-01,1.118786260490000073e-01,1.186017394070000008e-01,0.000000000000000000e+00
2.730192623000000207e+00,-3.250089006169999628e+00,-2.622560206070000469e-02,-9.899746801370000071e+00,-1.919405013319999964e-01,1.014515832069999846e-01,1.330005228520000082e-01,1.000000000000000000e+00
2.735024133000000024e+00,-3.907922508049999966e+00,1.262523296449999943e+00,-1.025673653119999962e+01,-1.307266801599999972e-01,8.670102059839999986e-02,1.385037600990000062e-01,1.000000000000000000e+00
2.740001062999999792e+00,-3.465568616890000175e+00,1.856573331329999910e+00,-1.018027522279999886e+01,-1.227719187739999968e-01,7.557458430530000770e-02,1.125458925960000078e-01,1.000000000000000000e+00
2.745009763000000103e+00,-3.312498116069999998e+00,8.582860046570000012e-01,-9.996258379620000412e+00,-1.523552685979999988e-01,1.074902042750000009e-01,1.079449355599999966e-01,1.000000000000000000e+00
2.749991973000000200e+00,-2.650084008409999914e+00,-2.948711090749999708e-01,-1.005965913090000008e+01,-1.167321726679999977e-01,1.517331898210000085e-01,1.013557985419999974e-01,1.000000000000000000e+00
2.754999109999999973e+00,-2.312883559379999898e+00,-2.939137535520000011e-01,-1.022774190740000044e+01,-5.193916335699999554e-02,8.012732118369998713e-02,8.729332685469999575e-02,1.000000000000000000e+00
2.760010589000000181e+00,-2.034704915909999912e+00,-1.403282615489999940e-01,-1.078221586479999949e+01,-1.878670789300000005e-02,-4.282937198879999824e-02,7.461716234680000615e-02,1.000000000000000000e+00
2.765059089999999831e+00,-1.977674430309999787e+00,2.035229871359999637e-02,-1.090638000470000080e+01,1.668883673849999930e-02,-1.570675969119999793e-01,3.530152887110000332e-02,1.000000000000000000e+00
2.770053390999999809e+00,-2.288601789429999922e+00,-1.584290504429999857e-01,-1.076831944140000097e+01,7.312671095130000853e-02,-2.246413081879999885e-01,3.678009659050000130e-02,1.000000000000000000e+00
2.775037041000000038e+00,-2.397289543169999870e+00,-3.785629989059999950e-02,-1.088966150959999979e+01,1.247176080939999959e-01,-2.699187994000000201e-01,5.182423070069999693e-02,1.000000000000000000e+00
2.780036985999999821e+00,-2.433885728029999918e+00,1.556907297859999872e-01,-1.108870874869999845e+01,1.672924607990000090e-01,-3.092110157009999583e-01,5.819339677690000406e-02,0.000000000000000000e+00
2.784986062999999845e+00,-2.348710367309999825e+00,2.243294913239999855e-01,-1.114533839839999985e+01,2.296696603300000250e-01,-3.553813993930000081e-01,1.473657088350000021e-03,0.000000000000000000e+00
2.789946668999999879e+00,-2.146028278840000247e+00,3.539312556079999839e-01,-1.158732579429999987e+01,3.082675933840000049e-01,-4.561292231080000259e-01,-1.833106204870000103e-02,0.000000000000000000e+00
2.794975403000000025e+00,-1.744369240040000157e+00,1.495135755210000028e-01,-1.207002163269999961e+01,3.795079588889999633e-01,-5.774635076519999410e-01,-1.629263162610000010e-02,0.000000000000000000e+00
2.799997628999999932e+00,-9.146460436519999737e-01,3.871063799789999926e-01,-1.285286010910000165e+01,4.284915029999999958e-01,-7.145810127259999422e-01,-3.481548279520000136e-03,0.000000000000000000e+00
2.805033566000000089e+00,-3.500764068110000515e-01,5.170472765570000018e-01,-1.395834064009999942e+01,5.206488966939999408e-01,-9.288748502729999856e-01,1.223531644789999963e-02,0.000000000000000000e+00
2.810191919000000205e+00,-7.936990757930000029e-02,5.900028053160000230e-01,-1.492302738359999914e+01,5.867088437080000274e-01,-1.193525671960000034e+00,6.918639410289999757e-04,0.000000000000000000e+00
2.815209524000000130e+00,4.673955030290000145e-01,1.114427807570000040e+00,-1.551574076300000016e+01,6.643933057790000207e-01,-1.511302471160000049e+00,1.920561678709999803e-02,0.000000000000000000e+00
2.820215919999999876e+00,6.749099435550000026e-01,1.107103967480000062e+00,-1.558522521809999972e+01,7.355945110320000202e-01,-1.854475617409999888e+00,4.615003615619999583e-02,0.000000000000000000e+00
2.825198281000000033e+00,1.373275143109999874e+00,1.149460031050000053e+00,-1.660098046999999966e+01,8.256863951680000202e-01,-2.285848617550000128e+00,6.143328920009999417e-02,0.000000000000000000e+00
2.830038511000000145e+00,1.381003837660000011e+00,1.433459562700000189e+00,-1.767023934859999912e+01,8.116050362590000455e-01,-2.713905811309999638e+00,-9.422931820149998972e-03,0.000000000000000000e+00
2.835198135000000175e+00,1.125886044040000034e+00,2.659631296699999758e+00,-1.674627975230000132e+01,7.343266606330000057e-01,-3.223269224170000058e+00,-1.221097633240000035e-01,0.000000000000000000e+00
2.840242234999999837e+00,1.694258616830000008e+00,2.123906609540000101e+00,-1.634577470589999848e+01,6.042165756230000184e-01,-3.707675218580000376e+00,-2.880254089829999975e-01,0.000000000000000000e+00
2.845162461000000143e+00,1.436740776319999968e+00,1.294558895400000020e+00,-1.560927478680000036e+01,5.842537283899998934e-01,-4.143625736239999746e+00,-3.766039311889999852e-01,0.000000000000000000e+00
2.850010333999999812e+00,1.078451800429999885e+00,1.946835822590000098e-01,-1.436045078369999928e+01,5.859302282330000056e-01,-4.457457542420000252e+00,-4.823926091190000043e-01,0.000000000000000000e+00
2.854997336999999913e+00,8.787710126719999737e-01,-6.115973454759999761e-01,-1.435237152220000034e+01,6.302658915519999683e-01,-4.750806808469999254e+00,-4.935576319690000435e-01,0.000000000000000000e+00
2.859991915000000162e+00,9.329685398710000355e-01,-7.505855083949999340e-01,-1.387493170459999980e+01,5.602498054500000269e-01,-5.045415401459999671e+00,-4.628097414969999934e-01,0.000000000000000000e+00
2.865000597999999954e+00,1.829786738950000213e+00,-1.279348905179999996e+00,-1.354629479349999954e+01,4.195173084740000391e-01,-5.296288967130000636e+00,-3.797673881050000477e-01,0.000000000000000000e+00
2.869969198999999804e+00,2.804167485659999848e+00,-2.563298874410000039e+00,-1.422991652440000010e+01,2.356033772230000101e-01,-5.570134162899999630e+00,-1.950342804190000057e-01,0.000000000000000000e+00
2.875017349999999805e+00,1.840504678450000098e+00,-3.041672465709999607e+00,-1.346027421410000002e+01,5.164131522180000211e-02,-5.918542385100000303e+00,-4.172858223320000115e-02,0.000000000000000000e+00
2.879968213999999804e+00,2.707887158889999979e-01,-3.880064194790000531e+00,-1.244195758730000101e+01,-1.727398931980000107e-01,-6.204653739930000356e+00,2.997252345090000158e-01,0.000000000000000000e+00
2.884997084000000100e+00,6.528864739259999939e-02,-2.181088340180000085e+00,-1.425855342079999843e+01,-3.837976157669999999e-01,-6.532378196719998975e+00,5.154315233230000182e-01,0.000000000000000000e+00
2.890198294999999806e+00,-1.885443305849999973e+00,-3.508369428550000002e-01,-1.352561090190000037e+01,-5.288937091830000492e-01,-6.880790710449999459e+00,6.835460066799999845e-01,0.000000000000000000e+00
2.895179487000000051e+00,-4.861110244599999852e+00,-7.963155053689999763e-01,-1.457867384789999932e+01,-5.327084064479999936e-01,-7.060892105099999760e+00,6.618653535840000046e-01,0.000000000000000000e+00
2.900009574999999895e+00,-1.034179381850000112e+01,-2.057842630390000149e+00,-1.660607165569999921e+01,-3.830251693729999629e-01,-7.085487365720000597e+00,5.162108540529999345e-01,0.000000000000000000e+00
2.905202231000000079e+00,-1.799183510900000016e+01,-3.111646750170000253e+00,-1.963006876400000067e+01,-3.143571615219999948e-01,-7.016165256499999892e+00,3.523595035079999938e-01,0.000000000000000000e+00
2.910187086000000090e+00,-2.277311076940000234e+01,-3.731140292250000101e+00,-1.853456835969999972e+01,-3.813508749009999477e-01,-6.764212131499999892e+00,2.020488530400000038e-01,0.000000000000000000e+00
2.915193740999999950e+00,-2.574709267760000131e+01,-4.008815662379999978e+00,-1.755955662160000230e+01,-6.500037312509999721e-01,-6.146828174589999527e+00,2.717637121679999934e-01,0.000000000000000000e+00
2.920168396000000222e+00,-2.357878067080000051e+01,-4.755829961229999903e+00,-1.666203611950000152e+01,-1.035207986829999927e+00,-5.344841957089999873e+00,3.048948049549999872e-01,0.000000000000000000e+00
2.925197956999999960e+00,-2.155905880449999756e+01,-6.100774205119999571e+00,-1.651065313339999818e+01,-1.424408435820000207e+00,-4.331195831299999632e+00,5.808537006380000145e-01,0.000000000000000000e+00
2.930044978999999827e+00,-1.915283586710000208e+01,-5.807401499650000076e+00,-1.770252833780000046e+01,-1.897005677220000130e+00,-3.591826438899999641e+00,7.373197078700000073e-01,0.000000000000000000e+00
