t,ax,ay,az,wx,wy,wz,zv
5.173979999999999899e-03,-2.698340674319999799e+00,1.845941864539999977e-01,-9.397091878510000384e+00,-5.000280216340000560e-04,1.689058914779999893e-02,5.508095491679999844e-03,1.000000000000000000e+00
1.016882600000000060e-02,-2.702511530259999795e+00,2.072028538259999830e-01,-9.399407169710000787e+00,-4.251832142469999867e-03,1.488352939489999936e-02,1.026376523079999999e-02,1.000000000000000000e+00
1.518382499999999975e-02,-2.617622293010000156e+00,2.365048448250000046e-01,-9.416285823799999122e+00,-3.590254113079999979e-03,1.478314213449999880e-02,1.282838732000000058e-02,1.000000000000000000e+00
1.996550100000000008e-02,-2.681728854479999757e+00,3.806024414450000504e-01,-9.423751337380000592e+00,1.088651712049999850e-03,2.664065547289999961e-02,1.448467187579999954e-02,1.000000000000000000e+00
2.498752900000000138e-02,-2.687092427340000089e+00,4.213124183010000245e-01,-9.397471817739999622e+00,7.611860055479999741e-03,2.649338915940000275e-02,1.314835436639999987e-02,1.000000000000000000e+00
2.998073799999999983e-02,-2.701162453740000302e+00,3.594674450890000261e-01,-9.396997185960000110e+00,6.101132370530000341e-03,1.782618276770000024e-02,1.847576722499999838e-02,1.000000000000000000e+00
3.520313500000000345e-02,-2.684524622670000138e+00,3.085007165040000165e-01,-9.377450189450000195e+00,-3.717924002560000010e-03,1.029793731870000048e-02,1.370503939689999943e-02,1.000000000000000000e+00
4.009083100000000038e-02,-2.642679869640000234e+00,2.200537867669999925e-01,-9.403498238419999211e+00,1.397690386510000047e-03,1.675284700470000120e-03,1.611677370970000106e-02,1.000000000000000000e+00
4.522034899999999996e-02,-2.623152454610000017e+00,2.677873055830000126e-01,-9.380355847760000643e+00,1.083313603890000100e-03,8.479126729069998841e-03,1.509864814579999978e-02,1.000000000000000000e+00
5.014263299999999896e-02,-2.646438345390000002e+00,2.450468285249999822e-01,-9.400216148010001049e+00,-9.476394392550000281e-03,1.093143690379999762e-02,2.146851271390000371e-02,1.000000000000000000e+00
5.519556300000000304e-02,-2.659111364479999740e+00,1.534767983299999972e-01,-9.405023256030000667e+00,8.518226444720000679e-03,1.597076095639999790e-02,2.561239153150000197e-02,1.000000000000000000e+00
5.998242899999999683e-02,-2.613686414859999640e+00,1.369912626139999923e-01,-9.376896062700000201e+00,-1.389308832589999931e-02,1.787149719890000071e-02,1.747702248390000171e-02,1.000000000000000000e+00
6.501329999999999609e-02,-2.673758606249999836e+00,1.760751452379999971e-01,-9.408530971889998540e+00,-2.160331420599999677e-02,1.090552471579999891e-02,2.499620616440000054e-02,1.000000000000000000e+00
7.018202199999999669e-02,-2.634783855689999843e+00,3.424637763830000181e-01,-9.412927161020000710e+00,-1.426276005799999996e-02,3.297066083179999753e-03,2.681840024890000049e-02,1.000000000000000000e+00
7.521455600000000186e-02,-2.693196589430000287e+00,3.808661704150000382e-01,-9.397230994719999231e+00,-1.987306959929999867e-02,-1.258155517279999948e-02,2.948146127159999644e-02,1.000000000000000000e+00
8.001891199999999760e-02,-2.676765971370000052e+00,2.561440679320000080e-01,-9.385048974020000045e+00,-1.294717472050000047e-02,7.618732750420000033e-03,1.421222276989999971e-02,1.000000000000000000e+00
8.500594999999999679e-02,-2.651123288329999994e+00,2.405050569090000090e-01,-9.380710652550000361e+00,-2.749542705710000205e-03,1.739549078049999753e-02,1.625086367129999904e-02,1.000000000000000000e+00
9.016338799999999709e-02,-2.647214298190000203e+00,2.638547336410000388e-01,-9.420988302399999625e+00,-8.705077692870001257e-03,-1.094001624730000025e-02,2.924457378690000289e-02,1.000000000000000000e+00
9.518710399999999461e-02,-2.622147369220000357e+00,1.922693972569999854e-01,-9.441101116110001357e+00,-1.047906372699999866e-02,-1.114789396520000225e-02,3.555298969149999627e-02,1.000000000000000000e+00
9.994628299999999688e-02,-2.576300687059999817e+00,2.434092173849999874e-01,-9.438159801960001261e+00,-2.301002293829999823e-02,-1.979767344890000138e-03,2.317651547490000297e-02,1.000000000000000000e+00
1.051880500000000052e-01,-2.651742004749999992e+00,1.996426477050000092e-01,-9.422636654130000622e+00,-2.840369194749999687e-02,-8.203253149990000215e-03,3.367957472800000435e-02,1.000000000000000000e+00
1.101388930000000016e-01,-2.678700154299999969e+00,1.201367565880000071e-01,-9.420664477280000781e+00,-1.888097450139999967e-02,-1.489089056850000092e-02,3.348516672850000014e-02,1.000000000000000000e+00
1.152095459999999960e-01,-2.673888370109999801e+00,1.249708439470000043e-01,-9.407859356239999471e+00,-2.312643080949999819e-02,-2.989451866600000268e-03,3.577464446430000250e-02,1.000000000000000000e+00
1.200881470000000062e-01,-2.655467747279999902e+00,1.721162515439999818e-01,-9.457163193110000421e+00,-4.502158612010000172e-02,1.654365099969999989e-02,2.959605120119999933e-02,1.000000000000000000e+00
1.250756889999999899e-01,-2.648397078239999924e+00,1.919954208870000012e-01,-9.473272031869999665e+00,-6.048648431900000011e-02,1.170832430939999953e-03,4.863426089290000254e-02,1.000000000000000000e+00
1.300589950000000106e-01,-2.620931271420000375e+00,1.949002389510000044e-01,-9.416915353880000339e+00,-6.795353442430000779e-02,-7.967956364150000081e-03,4.828491806980000217e-02,1.000000000000000000e+00
1.350798990000000033e-01,-2.589380533389999961e+00,8.080521934569999398e-02,-9.404285589410001478e+00,-5.429910495880000548e-02,1.099272351710000109e-02,3.396759182209999756e-02,1.000000000000000000e+00
1.400531519999999863e-01,-2.624336988220000055e+00,1.358311419260000152e-01,-9.501609068560000537e+00,-6.645787507299999453e-02,-1.468951813880000067e-05,4.267388209699999463e-02,1.000000000000000000e+00
1.450196639999999926e-01,-2.650181039050000020e+00,2.657932639550000253e-01,-9.486755782819999538e+00,-6.417621672150000678e-02,-2.916401484980000059e-03,3.880509734149999862e-02,1.000000000000000000e+00
1.499815039999999877e-01,-2.730930107759999448e+00,4.196072218180000313e-01,-9.457101818310000851e+00,-6.780207902189999691e-02,-7.933036424220000354e-03,5.973592028020000000e-02,1.000000000000000000e+00
1.550028390000000034e-01,-2.705748027969999914e+00,4.570116543219999716e-01,-9.400939786110001251e+00,-7.742562144989999229e-02,1.153345452619999921e-03,6.150201335549999870e-02,1.000000000000000000e+00
1.599820309999999968e-01,-2.595954651080000009e+00,4.500774346120000047e-01,-9.359235902849999178e+00,-7.942035049199999697e-02,2.141817472879999767e-02,2.984190918509999763e-02,1.000000000000000000e+00
1.650103920000000057e-01,-2.737130715959999350e+00,5.269308475920000401e-01,-9.433474274489999090e+00,-5.924034863710000293e-02,7.361313328149999766e-03,4.446719214319999613e-02,1.000000000000000000e+00
1.699792999999999998e-01,-2.701287541430000161e+00,4.662465887219999772e-01,-9.429884141040000500e+00,-5.480077117680000331e-02,2.302732691170000096e-02,4.825452342629999586e-02,1.000000000000000000e+00
1.749967759999999928e-01,-2.628830792500000069e+00,4.783678922140000012e-01,-9.389239995969999697e+00,-6.209911778570000040e-02,-1.308858022089999865e-02,3.294819593429999804e-02,1.000000000000000000e+00
1.799475409999999886e-01,-2.604172152059999856e+00,4.804598960570000132e-01,-9.411495666919998726e+00,-4.547135904430000403e-02,4.988439381120000037e-03,1.846679486329999911e-02,1.000000000000000000e+00
1.850081000000000087e-01,-2.680701557249999922e+00,5.838853818810000318e-01,-9.421553535070000152e+00,-4.851859807969999272e-02,-2.324123866860000002e-03,3.896884992719999719e-02,1.000000000000000000e+00
1.899771329999999925e-01,-2.614362122170000191e+00,4.992862136129999628e-01,-9.436585684510001570e+00,-3.731803223490000321e-02,1.150094065820000087e-02,2.797465212640000073e-02,1.000000000000000000e+00
1.951902199999999976e-01,-2.647688637709999959e+00,4.302904918630000020e-01,-9.446198731510000002e+00,-4.222343862060000397e-02,6.531391292810000311e-03,2.301901392640000321e-02,1.000000000000000000e+00
1.999839639999999863e-01,-2.613269066229999993e+00,3.532502510739999879e-01,-9.412381217580000126e+00,-3.917676955459999805e-02,2.313055796550000064e-03,2.975779585540000178e-03,1.000000000000000000e+00
2.049831279999999867e-01,-2.660928935290000297e+00,3.695992917959999846e-01,-9.435974274610000379e+00,-4.482505097989999965e-02,-1.354544982310000069e-02,2.137096971269999979e-02,1.000000000000000000e+00
2.101875840000000106e-01,-2.630707692290000121e+00,3.683423140050000044e-01,-9.444279746139999432e+00,-5.978789180519999968e-02,6.931902840729999710e-03,2.372081018979999706e-02,1.000000000000000000e+00
2.151953980000000100e-01,-2.668715351379999934e+00,3.748393113409999589e-01,-9.408938968169998418e+00,-4.821258783340000298e-02,-4.404340870680000316e-05,1.077938079829999889e-02,1.000000000000000000e+00
2.201886249999999989e-01,-2.672692146059999718e+00,3.345305722309999674e-01,-9.376451826060000272e+00,-6.805644184350000125e-02,3.355992259460000276e-03,2.093190141019999825e-02,1.000000000000000000e+00
2.250366279999999886e-01,-2.617790343050000246e+00,3.864137580729999910e-01,-9.418141096279999402e+00,-6.324050575489999215e-02,2.219126373530000071e-02,1.626739650960000103e-02,1.000000000000000000e+00
2.300867319999999883e-01,-2.620285667000000096e+00,3.554706670699999682e-01,-9.415832234810000756e+00,-5.947572737930000714e-02,1.533053070310000029e-02,1.811559870840000197e-02,1.000000000000000000e+00
2.350301469999999948e-01,-2.642233002649999829e+00,3.089884269559999841e-01,-9.440740466099999395e+00,-7.197109609839999478e-02,7.957179099320000129e-03,1.365432143210000039e-02,1.000000000000000000e+00
2.401748119999999875e-01,-2.694640943020000012e+00,4.749054037349999535e-01,-9.379496016060000940e+00,-9.376130998130001448e-02,1.436976529659999939e-02,2.882534824309999910e-02,1.000000000000000000e+00
2.449853770000000042e-01,-2.673061856159999916e+00,6.021712724169999698e-01,-9.385983039999999278e+00,-7.045283168549999753e-02,2.477111527699999739e-03,2.610560320320000002e-02,1.000000000000000000e+00
2.499798840000000133e-01,-2.700117913129999714e+00,5.691269713519999662e-01,-9.370402024500000593e+00,-8.480530232190000572e-02,-1.199373975400000111e-02,1.924379728729999975e-02,1.000000000000000000e+00
2.550066220000000161e-01,-2.731551162270000166e+00,5.443277899319999280e-01,-9.357724329239999861e+00,-7.751618325710001034e-02,-5.832714494319999124e-03,1.845843903720000012e-02,1.000000000000000000e+00
2.602262149999999830e-01,-2.703883695400000065e+00,4.667120508100000009e-01,-9.388456736629999355e+00,-5.570559576149999859e-02,1.435355842110000099e-02,8.368792012329999766e-03,1.000000000000000000e+00
2.651991830000000050e-01,-2.638586170580000001e+00,4.601783016589999775e-01,-9.410705977839999292e+00,-6.224418431519999906e-02,3.303372999650000096e-03,2.102898061280000092e-02,1.000000000000000000e+00
2.701582670000000075e-01,-2.629295195140000097e+00,4.237563043209999769e-01,-9.369135365569999152e+00,-6.283129751680001374e-02,-3.275731811300000313e-03,1.590096950530000067e-02,1.000000000000000000e+00
2.750305029999999817e-01,-2.610143627690000301e+00,3.614482436420000111e-01,-9.407841820580001624e+00,-5.844318494199999409e-02,6.252574734390000527e-03,1.813025213780000006e-02,1.000000000000000000e+00
2.799830919999999890e-01,-2.596501763570000065e+00,3.158193324219999987e-01,-9.449801139910000813e+00,-5.878381431100000026e-02,-2.545177005230000056e-03,2.273323200640000111e-02,1.000000000000000000e+00
2.850093590000000177e-01,-2.620961082040000445e+00,4.029531702669999493e-01,-9.433600531219999752e+00,-6.013919413089999916e-02,-9.663431905209999076e-03,1.675635389980000001e-02,1.000000000000000000e+00
2.899830930000000251e-01,-2.737712607499999784e+00,5.054209169750000230e-01,-9.435200952149999765e+00,-6.391154974700000158e-02,-1.791198924179999985e-02,4.370774328709999684e-02,1.000000000000000000e+00
2.952340529999999963e-01,-2.631928466259999766e+00,6.756756672300000544e-01,-9.419528166719999263e+00,-6.649766862389999700e-02,-1.970594562590000098e-02,1.325865648690000009e-02,1.000000000000000000e+00
3.000222799999999745e-01,-2.689926189459999950e+00,6.176509098939999554e-01,-9.381504433279999944e+00,-6.012862548229999660e-02,-3.374844556670000134e-03,2.232209965590000247e-02,1.000000000000000000e+00
3.052086459999999724e-01,-2.683331613500000046e+00,6.527998185560000000e-01,-9.442645422939998312e+00,-4.790616035459999839e-02,-1.478551886980000035e-02,2.884145267309999941e-02,1.000000000000000000e+00
3.100219909999999968e-01,-2.653715642909999950e+00,6.955983651880000007e-01,-9.450905886280001056e+00,-3.786370158199999642e-02,1.513542374599999990e-03,1.327292807400000038e-02,1.000000000000000000e+00
3.152348580000000067e-01,-2.683447641090000335e+00,6.481480472270000348e-01,-9.437349654620000194e+00,-3.301874548199999759e-02,-1.472104433920000052e-02,1.127508468930000021e-02,1.000000000000000000e+00
3.200205879999999947e-01,-2.685626738699999905e+00,4.217268443199999606e-01,-9.488063358290000693e+00,-2.309678308670000055e-02,1.252437476070000083e-02,7.839787751439999605e-03,1.000000000000000000e+00
3.252579219999999771e-01,-2.658034967420000338e+00,3.696291389450000464e-01,-9.446890220900000301e+00,-2.745457366109999714e-02,-1.665393821900000137e-03,7.047563325610000512e-03,1.000000000000000000e+00
3.300150620000000257e-01,-2.685740135940000606e+00,3.664646835650000045e-01,-9.403678855680000837e+00,-1.783396676179999779e-02,-8.247226476670000209e-03,1.614783145490000099e-02,1.000000000000000000e+00
3.352043140000000032e-01,-2.649554723840000126e+00,3.076947704160000185e-01,-9.453781733979999657e+00,-4.142965376379999926e-02,-5.978764966130000781e-03,1.417465135460000032e-02,1.000000000000000000e+00
3.402556299999999756e-01,-2.675977451340000091e+00,4.268600790229999942e-01,-9.436209836930000705e+00,-4.062222316859999405e-02,-2.746492391450000136e-03,1.630750484760000105e-02,1.000000000000000000e+00
3.450422870000000031e-01,-2.645763807129999812e+00,4.613241106930000557e-01,-9.417732515479999122e+00,-6.215555220840000838e-02,1.543477410450000073e-03,3.018985874950000023e-02,1.000000000000000000e+00
3.500047510000000028e-01,-2.593451728350000263e+00,4.767659003769999515e-01,-9.428028284039999818e+00,-4.204714298250000065e-02,-1.006756164130000013e-02,7.750294636930000515e-03,1.000000000000000000e+00
3.551884390000000224e-01,-2.582209326580000130e+00,4.442996549279999985e-01,-9.431590944959999945e+00,-4.590456187730000692e-02,-1.146491034890000094e-03,2.506093867119999971e-02,1.000000000000000000e+00
3.601954809999999840e-01,-2.571214177579999927e+00,4.084164771750000145e-01,-9.325749812830000707e+00,-3.260644897820000332e-02,-2.152416156599999773e-03,2.624958008529999776e-02,1.000000000000000000e+00
3.652309240000000123e-01,-2.549104929359999883e+00,4.213351415889999840e-01,-9.343811539219998963e+00,-4.089590162040000060e-02,-1.156941242520000135e-02,1.746669225390000413e-02,1.000000000000000000e+00
3.701796769999999848e-01,-2.576825295459999943e+00,4.196425123269999502e-01,-9.391088254179999595e+00,-5.189089104530000135e-02,-1.847199723120000053e-02,3.616596758369999137e-02,1.000000000000000000e+00
3.751991279999999929e-01,-2.476592650859999800e+00,5.384523585600000661e-01,-9.387363680700000046e+00,-5.688655376430000465e-02,-2.836768329139999906e-02,2.792785316709999952e-02,1.000000000000000000e+00
3.800079169999999729e-01,-2.580223997979999684e+00,6.004591347369999665e-01,-9.407779861259999876e+00,-6.381393223999999587e-02,-3.455380350349999963e-02,2.542892843479999804e-02,1.000000000000000000e+00
3.850432289999999869e-01,-2.612506849689999910e+00,5.913892547050000337e-01,-9.377579368790000203e+00,-6.234979629520000233e-02,-3.744249045849999680e-02,1.312465220689999941e-02,1.000000000000000000e+00
3.899978350000000149e-01,-2.737849677890000333e+00,5.822703113680000042e-01,-9.355553999460001435e+00,-6.218700110910000550e-02,-1.835171319540000040e-02,3.539690375329999916e-02,1.000000000000000000e+00
3.950242070000000161e-01,-2.686710442279999889e+00,6.057375500639999855e-01,-9.265535874890000301e+00,-5.608801171180000794e-02,-4.762474820019999694e-02,1.911646500229999962e-02,1.000000000000000000e+00
4.000180529999999846e-01,-2.623441792940000461e+00,3.425737395629999682e-01,-9.380890100769999407e+00,-4.156440496440000354e-02,-4.240220785140000337e-02,3.901408985259999934e-02,1.000000000000000000e+00
4.052122009999999941e-01,-2.544062843539999896e+00,3.481007228239999529e-01,-9.408642615569998924e+00,-5.051438137889999874e-02,-3.517029806969999839e-02,4.406736046080000913e-02,1.000000000000000000e+00
4.102247509999999986e-01,-2.556847798569999775e+00,4.528519773590000130e-01,-9.414328259989998671e+00,-6.571875512600000580e-02,-2.359244413670000262e-02,3.757456690069999744e-02,1.000000000000000000e+00
4.152337070000000074e-01,-2.683064779249999976e+00,4.937638699949999932e-01,-9.408798682919998768e+00,-5.402361974119999216e-02,-4.029930755499999684e-02,3.539226576690000098e-02,1.000000000000000000e+00
4.202159959999999805e-01,-2.819247565899999586e+00,4.618677160509999657e-01,-9.424740348410001189e+00,-6.987144798040000049e-02,-6.837760657069999470e-02,5.176005884999999862e-02,1.000000000000000000e+00
4.252579470000000250e-01,-2.717574074840000353e+00,6.760552411329999734e-01,-9.404384373610000125e+00,-8.443375676869999125e-02,-5.165589973330000223e-02,2.964931912719999743e-02,1.000000000000000000e+00
4.301783350000000228e-01,-2.706634163149999939e+00,6.740357910690000232e-01,-9.477546640449999060e+00,-6.133434548970000122e-02,-4.969445243480000857e-02,2.989562414590000300e-02,1.000000000000000000e+00
4.350435630000000220e-01,-2.696794029399999904e+00,6.967110026049999627e-01,-9.463755430980000938e+00,-5.889703705910000198e-02,-3.997878730300000183e-02,3.142453730110000149e-02,1.000000000000000000e+00
4.400006510000000204e-01,-2.741960620340000432e+00,6.639166211800000550e-01,-9.435130809520000383e+00,-5.506793782109999785e-02,-4.588766023519999515e-02,1.853957772249999886e-02,1.000000000000000000e+00
4.450245529999999894e-01,-2.799509722990000338e+00,7.187596797409999683e-01,-9.424501278960001116e+00,-5.238904058930000246e-02,-5.105733126400000682e-02,2.997888065870000021e-02,1.000000000000000000e+00
4.500121349999999798e-01,-2.720345293120000285e+00,7.107485149819999792e-01,-9.361876188220000117e+00,-5.200308561329999857e-02,-5.550082027909999938e-02,3.341476991770000321e-02,1.000000000000000000e+00
4.552068200000000120e-01,-2.750524450540000387e+00,6.733291771699999595e-01,-9.432637239139999963e+00,-5.085382238030000668e-02,-4.172733798619999296e-02,4.267288371919999990e-02,1.000000000000000000e+00
4.601931309999999775e-01,-2.703800985550000036e+00,5.672074014660000163e-01,-9.448377829110000903e+00,-4.587776213880000870e-02,-5.252173170450000206e-02,4.552195221190000196e-02,1.000000000000000000e+00
4.651065039999999762e-01,-2.666708395479999716e+00,5.899788033860000613e-01,-9.420482690969999240e+00,-4.287827387450000166e-02,-2.987688034770000223e-02,3.942957893009999687e-02,1.000000000000000000e+00
4.702151580000000219e-01,-2.571907128279999899e+00,5.898124338429999725e-01,-9.400575628969999542e+00,-5.674304813149999571e-02,-2.494912780820000148e-02,3.321904316540000290e-02,1.000000000000000000e+00
4.752011139999999800e-01,-2.590868433859999875e+00,7.872857381519999809e-01,-9.528919684810000845e+00,-4.005859419700000257e-02,-2.822648547590000251e-02,4.483468458059999828e-02,1.000000000000000000e+00
4.802345960000000136e-01,-2.611467277510000073e+00,8.249379348720000671e-01,-9.466416174629999958e+00,-4.559592902660000030e-02,-4.576347768310000397e-02,3.319422900679999677e-02,1.000000000000000000e+00
4.852040699999999873e-01,-2.727887963579999742e+00,7.418223562240000568e-01,-9.356505016579999889e+00,-3.443830460310000341e-02,-3.580476716159999850e-02,2.607929520310000096e-02,1.000000000000000000e+00
4.900262519999999955e-01,-2.774506506889999891e+00,6.386169063590000361e-01,-9.335858534389998908e+00,-3.095061518250000199e-02,-3.850574418899999768e-02,2.849355898799999995e-02,1.000000000000000000e+00
4.952099810000000213e-01,-2.736994522359999849e+00,5.911830646090000529e-01,-9.441549444400001434e+00,-2.583833970129999907e-02,-3.026108257470000104e-02,3.014969266949999935e-02,1.000000000000000000e+00
5.000205629999999735e-01,-2.657082781259999749e+00,5.228149001730000300e-01,-9.484417110739999046e+00,-2.062839455900000035e-02,-3.812749311330000668e-02,1.911066845059999908e-02,1.000000000000000000e+00
5.051835399999999865e-01,-2.682906373819999857e+00,4.650779468020000418e-01,-9.431946918789998691e+00,-2.985857240859999748e-02,-3.996740654110000207e-02,8.026726543899999344e-03,1.000000000000000000e+00
5.101847980000000504e-01,-2.695897957340000151e+00,5.019377510350000460e-01,-9.418927862739998602e+00,-2.874266915020000021e-02,-2.821514382960000136e-02,2.157651446759999841e-02,1.000000000000000000e+00
5.152013309999999846e-01,-2.685499605189999972e+00,5.465314009230000103e-01,-9.477330951869999964e+00,-4.023835435509999503e-02,-3.999982401730000497e-02,4.415528848769999931e-02,1.000000000000000000e+00
5.202137249999999602e-01,-2.663349732699999972e+00,6.132849697689999324e-01,-9.472233920989999945e+00,-2.928244322540000250e-02,-3.854715451599999981e-02,4.135232046250000154e-02,1.000000000000000000e+00
5.251972310000000421e-01,-2.753609264820000124e+00,7.137605562790000358e-01,-9.438562537539999298e+00,-3.688367828729999937e-02,-2.987575344740000041e-02,4.640027135610000353e-02,1.000000000000000000e+00
5.300584760000000006e-01,-2.764389894290000260e+00,6.424846877030000458e-01,-9.440721176880000343e+00,-3.123244084420000177e-02,-4.643246158959999509e-02,4.110904037950000034e-02,1.000000000000000000e+00
5.350415339999999853e-01,-2.839350442729999813e+00,5.741103857870000216e-01,-9.412177219439998410e+00,-9.694428183139999419e-03,-5.181883275509999859e-02,2.165254577990000096e-02,1.000000000000000000e+00
5.401970289999999952e-01,-2.802246454470000092e+00,5.762791446610000534e-01,-9.403763026839998318e+00,-2.422227151690000205e-02,-3.205399215219999903e-02,2.356508187950000222e-02,1.000000000000000000e+00
5.450369699999999540e-01,-2.849371486000000342e+00,5.840742920499999435e-01,-9.355345325149999169e+00,-1.414404716340000000e-02,-2.781481109559999845e-02,1.546997204420000153e-02,1.000000000000000000e+00
5.502035790000000537e-01,-2.786965883230000163e+00,7.425370803650001017e-01,-9.424753792420000664e+00,-1.234999950979999948e-02,-3.583464398980000520e-02,2.190998569129999629e-02,1.000000000000000000e+00
5.550970450000000112e-01,-2.777520301760000088e+00,7.888553986210000701e-01,-9.431178272510001293e+00,-1.134025864299999936e-02,-2.345274761320000068e-02,2.573306299749999679e-02,1.000000000000000000e+00
5.601844110000000487e-01,-2.708708339079999750e+00,7.034680756500000243e-01,-9.391891971779999793e+00,-2.434328384699999820e-02,-1.318269968029999947e-02,6.630811374630000109e-03,1.000000000000000000e+00
5.652255189999999541e-01,-2.763316419840000204e+00,7.761889554019999471e-01,-9.366626013099999426e+00,-1.586940698329999955e-02,-2.318940125409999983e-02,2.333000674839999858e-02,1.000000000000000000e+00
5.702012929999999979e-01,-2.678889831659999832e+00,7.712985530120000099e-01,-9.367600995610001036e+00,-2.056607045229999833e-02,-2.155524492259999758e-02,1.463142968709999978e-02,1.000000000000000000e+00
5.751680230000000282e-01,-2.653524211990000214e+00,7.537056131770000222e-01,-9.457100649270000048e+00,-1.727634295820000207e-02,-4.698887839909999392e-02,1.653052493930000019e-02,1.000000000000000000e+00
5.801793939999999594e-01,-2.719685075640000171e+00,7.114207882199999888e-01,-9.436019282800000241e+00,4.560281988229999799e-03,-3.181449696420000223e-02,1.809048000720000181e-03,1.000000000000000000e+00
5.850153719999999780e-01,-2.809602370199999921e+00,6.958301281170000685e-01,-9.464743272979999844e+00,7.681912975389999397e-04,-1.744066551330000076e-02,1.568162441249999761e-02,1.000000000000000000e+00
5.899982569999999704e-01,-2.842303739570000154e+00,7.777096621639999485e-01,-9.367457787750000264e+00,1.574346795680000091e-02,-2.880001440640000271e-02,2.446922846140000066e-02,1.000000000000000000e+00
5.951412520000000095e-01,-2.828398548340000040e+00,7.583950131020000818e-01,-9.406254259129999795e+00,1.201252732429999859e-02,-2.813525684179999861e-02,1.863188669090000069e-02,1.000000000000000000e+00
5.999877380000000482e-01,-2.789460330400000299e+00,7.175601677580000226e-01,-9.434599479130000077e+00,2.620518393809999694e-02,-1.657089591030000073e-02,1.391343027350000136e-02,1.000000000000000000e+00
6.050305639999999929e-01,-2.744104354370000554e+00,6.104336354589999791e-01,-9.425526530360000876e+00,2.841219119729999909e-02,-2.875662595029999935e-02,7.772480603310000062e-03,1.000000000000000000e+00
6.101790110000000489e-01,-2.869059644549999621e+00,6.356354063300000412e-01,-9.431799619279999547e+00,3.307158872490000012e-02,-1.948855258520000230e-02,2.588931098579999937e-02,1.000000000000000000e+00
6.150561509999999954e-01,-2.738418417689999718e+00,6.748292064690000203e-01,-9.409110817610001121e+00,7.437912281600000779e-03,-7.780765183270000988e-03,1.374333351849999982e-02,1.000000000000000000e+00
6.202039719999999923e-01,-2.785219916349999991e+00,6.753699622820000803e-01,-9.370914065680000959e+00,3.160510957240000168e-02,-2.490811422470000022e-02,4.164241254329999718e-03,1.000000000000000000e+00
6.252289009999999481e-01,-2.778015391799999900e+00,6.323398719160000514e-01,-9.393387763290000692e+00,1.715593039989999832e-02,-2.339622378349999823e-02,-7.032574154439999621e-03,1.000000000000000000e+00
6.300225860000000511e-01,-2.798813849680000132e+00,4.917251307089999801e-01,-9.400734618930000508e+00,4.426187649369999616e-02,-6.592983845619998680e-04,1.988205313679999864e-02,1.000000000000000000e+00
6.350311960000000200e-01,-2.810873997570000338e+00,5.016961608309999932e-01,-9.386193467880000085e+00,3.496525436640000178e-02,2.493972191590000491e-03,6.073476281020000200e-03,1.000000000000000000e+00
6.401966390000000118e-01,-2.823501131690000499e+00,4.299565472010000167e-01,-9.270278100980000602e+00,3.471148759130000122e-02,-6.373717449609999502e-03,2.511993981900000061e-02,1.000000000000000000e+00
6.450295889999999588e-01,-2.815219041029999758e+00,3.313469372260000045e-01,-9.278755421939999692e+00,2.159065566960000071e-02,5.963934585449999840e-03,1.288761012260000033e-02,1.000000000000000000e+00
6.500031170000000191e-01,-2.832788599990000211e+00,3.739225252899999741e-01,-9.292058555630001493e+00,1.543222833420000023e-02,2.594964811579999770e-03,2.824902720749999929e-02,1.000000000000000000e+00
6.551739600000000552e-01,-2.675803848340000179e+00,4.572859046859999999e-01,-9.373343338650000689e+00,-1.536297798160000082e-02,1.368092931809999913e-02,1.843243278559999684e-02,1.000000000000000000e+00
6.600484610000000307e-01,-2.751868266370000260e+00,4.802461802409999647e-01,-9.483424008049999188e+00,-3.103003837170000218e-04,2.252198196949999759e-02,2.974618412550000118e-02,1.000000000000000000e+00
6.652314129999999937e-01,-2.699028072059999506e+00,4.874422292249999678e-01,-9.595707155930000454e+00,4.633179632950000103e-04,2.702054567640000196e-02,3.659504652020000026e-02,1.000000000000000000e+00
6.701425090000000528e-01,-2.607939687900000081e+00,8.123051016610000064e-01,-9.550055996339999353e+00,1.424326910640000103e-03,1.371798850599999925e-02,3.389784693720000047e-02,1.000000000000000000e+00
6.752279289999999490e-01,-2.752550403409999458e+00,9.293179814740000211e-01,-9.560832826420000430e+00,-5.283679813149999918e-03,6.199543364350000758e-03,2.840064838529999733e-02,1.000000000000000000e+00
6.804217590000000149e-01,-2.754375573009999911e+00,7.704834372369999684e-01,-9.507622045239999764e+00,1.182431913910000042e-02,2.376571064809999880e-03,1.039766706529999911e-02,1.000000000000000000e+00
6.849935539999999490e-01,-2.776915613859999965e+00,7.523012262710000453e-01,-9.390715913739999365e+00,3.967459127309999611e-02,-6.775013171140001345e-03,2.708631195129999891e-02,1.000000000000000000e+00
6.899921629999999917e-01,-2.610212016750000252e+00,7.272776249779999702e-01,-9.483516362510000519e+00,6.108624115590000764e-02,-8.725632913409999206e-03,2.005423046649999763e-02,1.000000000000000000e+00
6.952264820000000345e-01,-2.654595348359999996e+00,8.167121775139999373e-01,-9.476841707050001062e+00,6.728629022839999196e-02,-6.762474775310000318e-03,1.199388504029999872e-02,1.000000000000000000e+00
7.000064790000000148e-01,-2.709449512830000018e+00,7.479319251459999318e-01,-9.471443647399999222e+00,6.153029575939999996e-02,-1.423081941900000008e-02,8.769538253549999038e-03,1.000000000000000000e+00
7.051928010000000357e-01,-2.760482073199999942e+00,6.630513095869999818e-01,-9.403786407710001072e+00,6.069796532390000360e-02,-4.091664776209999466e-02,6.557984743270001311e-03,1.000000000000000000e+00
7.101602670000000117e-01,-2.689413856019999827e+00,8.865553829379999584e-01,-9.386126247860000049e+00,8.443096280099998685e-02,-1.059155818070000102e-02,6.579857785249999293e-03,1.000000000000000000e+00
7.152651589999999837e-01,-2.712335005139999922e+00,1.122023815649999978e+00,-9.405901792430000796e+00,7.962870597839999398e-02,-3.409644588829999906e-02,6.717555224899999502e-04,1.000000000000000000e+00
7.201419510000000024e-01,-2.725720264150000016e+00,6.917062531199998920e-01,-9.384217199369999207e+00,9.141770750279999691e-02,-2.300463430579999941e-02,-1.046221144500000116e-02,1.000000000000000000e+00
7.252073369999999519e-01,-2.673878140979999873e+00,5.684500584709999416e-01,-9.712456051040000204e+00,9.665464609860001388e-02,-2.542970515790000247e-02,-8.634855970739999109e-03,1.000000000000000000e+00
7.300350610000000406e-01,-2.762170756930000248e+00,7.242199179079999993e-01,-9.207433230010000358e+00,1.018716394899999850e-01,-3.996621072289999882e-02,-9.212505072360000977e-03,0.000000000000000000e+00
7.350332659999999629e-01,-2.738918183899999637e+00,9.010738106999999220e-01,-9.381017526539999096e+00,8.389210700989999103e-02,-4.216220974919999975e-02,-1.250145398079999942e-02,0.000000000000000000e+00
7.399959950000000175e-01,-2.696538301069999921e+00,5.121252369200000043e-01,-9.497697448069999382e+00,8.858464658260001290e-02,-7.643997669219999846e-02,-1.330866478380000016e-02,0.000000000000000000e+00
7.449468150000000399e-01,-2.363469837279999819e+00,8.243522439380001066e-01,-9.592575872160001182e+00,1.208079084750000032e-01,-8.221425861119999179e-02,-4.546128585930000326e-02,0.000000000000000000e+00
7.500514409999999854e-01,-2.518155079820000086e+00,8.796557596179999106e-01,-9.690016840220000205e+00,1.148418560620000084e-01,-1.015951484439999997e-01,-3.319738060240000344e-02,0.000000000000000000e+00
7.550121770000000065e-01,-2.445580403609999731e+00,7.087623095999999734e-01,-9.769605925239998712e+00,1.431796997789999970e-01,-1.205062270160000004e-01,-4.237771034239999624e-02,0.000000000000000000e+00
7.601553180000000243e-01,-2.456477499070000015e+00,7.393948368170000229e-01,-9.804364519410000867e+00,1.601579934359999846e-01,-1.476865261790000217e-01,-4.701337590810000105e-02,0.000000000000000000e+00
7.650656390000000195e-01,-2.364308187799999850e+00,8.580934777600001118e-01,-9.802598094260000394e+00,1.914914101359999898e-01,-1.775345802309999943e-01,-6.105709820989999731e-02,0.000000000000000000e+00
7.699638559999999465e-01,-2.289489385920000064e+00,8.793585302369999468e-01,-9.913193142919999090e+00,2.050590366129999842e-01,-1.965629160400000353e-01,-5.954273417589999590e-02,0.000000000000000000e+00
7.750174100000000177e-01,-2.242257533020000082e+00,1.411809602549999876e-01,-9.954806425289998373e+00,2.341440767049999816e-01,-2.381688952450000119e-01,-3.333865478629999962e-02,0.000000000000000000e+00
7.799979460000000531e-01,-2.104600874429999990e+00,-3.291916223559999688e-01,-1.024567971519999965e+01,2.553639113900000313e-01,-2.936047315599999985e-01,-2.177047915759999785e-02,0.000000000000000000e+00
7.850242130000000262e-01,-1.793852379000000052e+00,-7.888485487559999954e-02,-1.046448496320000032e+01,2.525035738949999997e-01,-3.211495280270000308e-01,-3.956800792369999376e-03,0.000000000000000000e+00
7.899794519999999709e-01,-1.872660396649999948e+00,6.031851256350000412e-01,-1.086015133739999960e+01,1.991014629600000030e-01,-3.835984170440000507e-01,3.208756446840000005e-03,0.000000000000000000e+00
7.949435790000000113e-01,-1.827611733000000127e+00,7.344054310309999778e-01,-1.080021212479999981e+01,1.205400675539999994e-01,-5.190365910530000404e-01,8.156737312669999976e-03,0.000000000000000000e+00
8.000079049999999636e-01,-1.832997079300000109e+00,8.317164890960000445e-01,-1.095873212319999901e+01,1.045610010620000030e-01,-5.994477868080000382e-01,2.236650884149999838e-02,0.000000000000000000e+00
8.049840929999999561e-01,-1.160649825839999982e+00,4.191215571930000383e-01,-1.138116141670000125e+01,8.398269116879999996e-02,-6.746502518649999391e-01,-1.643042080099999924e-03,0.000000000000000000e+00
8.101043700000000181e-01,-6.489815023759999413e-01,4.395678771659999873e-01,-1.233693186319999846e+01,1.301539242270000063e-01,-7.731297016140000755e-01,2.756389044230000279e-02,0.000000000000000000e+00
8.150372780000000317e-01,-2.585476219420000388e-01,8.995499621330000917e-01,-1.292057229390000117e+01,1.798897087569999997e-01,-9.226624965670000567e-01,3.485696390269999584e-02,0.000000000000000000e+00
8.202127839999999726e-01,-6.495034073590000290e-01,9.151311237549999422e-01,-1.308915425210000016e+01,2.244654893879999835e-01,-1.159663438800000002e+00,1.886057853699999939e-02,0.000000000000000000e+00
8.252122579999999763e-01,-7.368488055959999672e-01,7.874680359160000087e-01,-1.356638013470000104e+01,2.738829553129999983e-01,-1.432214975360000198e+00,2.535726875070000094e-02,0.000000000000000000e+00
8.301434119999999695e-01,-2.952652229589999844e-01,5.371491304739999251e-01,-1.482596050949999977e+01,2.897299528119999801e-01,-1.692117929460000170e+00,2.604669518769999956e-02,0.000000000000000000e+00
8.352120750000000537e-01,-6.048702657100000213e-01,1.993950880719999930e+00,-1.582621657900000045e+01,2.949687838549999719e-01,-2.036739349369999896e+00,1.679227128620000217e-02,0.000000000000000000e+00
8.402133889999999772e-01,5.973705210719999492e-01,1.566638345220000117e+00,-1.500722659270000037e+01,3.150657117369999871e-01,-2.330330371859999694e+00,-5.666971951719999151e-02,0.000000000000000000e+00
8.450268189999999846e-01,5.805770245180000844e-01,4.966587146529999885e-01,-1.522456936700000085e+01,3.642165064810000130e-01,-2.602913618090000103e+00,-1.231472119690000117e-01,0.000000000000000000e+00
8.502244660000000120e-01,1.789189720949999896e-01,1.982646556159999851e-01,-1.518997151630000175e+01,3.713287413119999991e-01,-2.914599895479999869e+00,-1.269510835410000149e-01,0.000000000000000000e+00
8.551527060000000402e-01,2.952377321640000107e-01,4.508712884030000034e-01,-1.521967808780000020e+01,2.823012173180000084e-01,-3.210734367369999731e+00,-1.097815409300000045e-01,0.000000000000000000e+00
8.600529350000000184e-01,1.567791899169999947e+00,9.207352273720000868e-01,-1.560015858339999895e+01,1.876303404570000000e-01,-3.586912870409999954e+00,-1.835629642009999896e-01,0.000000000000000000e+00
8.649895589999999634e-01,2.060505419859999687e+00,1.130595025450000124e+00,-1.567484060710000016e+01,9.123465418819999562e-02,-3.912294387819999386e+00,-3.207942247389999890e-01,0.000000000000000000e+00
8.700306719999999494e-01,1.626466352579999830e+00,1.242075496910000076e-01,-1.625531643630000289e+01,9.759388864040001790e-03,-4.232886791230000334e+00,-4.163094758990000255e-01,0.000000000000000000e+00
8.750210689999999847e-01,1.635891329659999949e+00,-6.964103391580001023e-01,-1.591541929549999956e+01,-1.175123974680000044e-01,-4.636194229130000899e+00,-4.324897825720000477e-01,0.000000000000000000e+00
8.800002930000000445e-01,1.422810450649999892e+00,-6.398602574839999946e-01,-1.597329397690000086e+01,-2.341562360530000109e-01,-4.987699985499999933e+00,-4.828909933569999757e-01,0.000000000000000000e+00
8.850213139999999479e-01,6.053624696739999811e-01,-1.344963825379999811e+00,-1.630869965140000133e+01,-3.298085927959999997e-01,-5.375130176540000804e+00,-5.428959131239999847e-01,0.000000000000000000e+00
8.898980800000000357e-01,-5.188259401349999411e-01,-3.258724148050000213e+00,-1.616408309070000016e+01,-5.143591165540000176e-01,-5.758507251740000221e+00,-5.165393352510000424e-01,0.000000000000000000e+00
8.950246499999999772e-01,-1.980694070390000006e+00,-4.596821887049999944e+00,-1.623316071860000065e+01,-7.616791725159999249e-01,-6.075616836550000066e+00,-4.891175627709999918e-01,0.000000000000000000e+00
9.000322130000000254e-01,-5.287372248140000508e+00,-5.532377520809999893e+00,-1.770589401480000191e+01,-1.163934946060000142e+00,-6.307811737059999757e+00,-4.737257063390000189e-01,0.000000000000000000e+00
9.051952089999999451e-01,-8.117512087190000614e+00,-5.998133330339999958e+00,-1.804354542249999938e+01,-1.767196774479999899e+00,-6.414096832280000271e+00,-3.258785605430000176e-01,0.000000000000000000e+00
9.102106189999999986e-01,-1.042587144710000047e+01,-7.067096440800000323e+00,-1.804699176349999945e+01,-2.343291997909999758e+00,-6.338265419009999846e+00,-2.315258234739999976e-01,0.000000000000000000e+00
9.152273279999999511e-01,-1.259020052179999993e+01,-6.450571977660000123e+00,-1.909156862069999860e+01,-2.836118936540000579e+00,-5.993588924410000018e+00,-4.680297896269999119e-02,0.000000000000000000e+00
9.201996709999999968e-01,-1.361380590269999935e+01,-4.653902787669999874e+00,-1.760102961870000016e+01,-3.225844383240000113e+00,-5.531623363489999612e+00,1.939221620560000192e-01,0.000000000000000000e+00
9.250391019999999465e-01,-1.392724758269999974e+01,-2.653548177390000262e+00,-1.686729331909999985e+01,-3.530900478359999539e+00,-4.934713840480000613e+00,3.294845223429999637e-01,0.000000000000000000e+00
9.300914829999999967e-01,-1.300259240539999972e+01,-3.073000354779999999e-01,-1.741100155239999836e+01,-3.748950481409999647e+00,-4.304796218869999969e+00,3.874007463459999689e-01,0.000000000000000000e+00
9.350171090000000129e-01,-1.247054304579999950e+01,2.341739541919999890e-01,-1.625834659779999924e+01,-3.855570554730000321e+00,-3.884612321850000161e+00,3.491541743279999999e-01,0.000000000000000000e+00
9.400253589999999493e-01,-1.586446769150000158e+01,3.093663641970000100e+00,-1.986884127969999980e+01,-3.872684955600000034e+00,-3.463655471800000107e+00,-6.143905967469999452e-02,0.000000000000000000e+00
9.450214460000000427e-01,-1.560754577099999985e+01,2.189142321159999849e+00,-1.736490732520000080e+01,-3.710201025009999931e+00,-2.897722244260000135e+00,-3.515233397479999855e-01,0.000000000000000000e+00
9.500225610000000431e-01,-9.700357032450000361e+00,1.377594613739999918e+00,-1.078227080989999997e+01,-3.250925540919999968e+00,-2.281689882279999804e+00,-4.352187812330000072e-01,0.000000000000000000e+00
9.552051759999999891e-01,1.539851314449999897e+00,3.022771073619999971e+00,-6.961321944169998943e+00,-2.492865800859999759e+00,-1.011635065079999896e+00,-2.502535581590000224e-01,0.000000000000000000e+00
9.601585719999999879e-01,1.439400467829999997e+01,1.288201781459999973e+00,-4.250405281389999956e+00,-1.826071619990000228e+00,3.943273425100000118e-01,1.328219026330000052e-01,0.000000000000000000e+00
9.650698269999999912e-01,-1.057979359640000006e+01,8.634782979900000655e+00,-4.684489064590000140e+00,-1.619904637339999898e+00,3.645567968490000255e-02,3.025890290739999822e-01,0.000000000000000000e+00
9.700226170000000314e-01,-1.543236572970000076e+01,4.737812366240000017e+00,-1.754273992690000128e+01,-1.421464562420000188e+00,-3.863029479980000236e-01,5.125629901889999784e-01,0.000000000000000000e+00
9.750076680000000495e-01,-1.531440570520000044e+01,2.172054481309999840e-01,-2.029212163709999928e+01,-1.099553227420000168e+00,-1.084296256299999983e-01,7.437839508059999050e-01,0.000000000000000000e+00
9.802302400000000304e-01,-7.456085821519999435e+00,1.759962676620000055e+00,-1.531948169329999843e+01,-4.422794580459999958e-01,2.098667919640000157e-01,7.254201173780000511e-01,0.000000000000000000e+00
9.850394030000000356e-01,-7.131870234009999976e+00,5.428295799569999858e+00,-1.203830898210000022e+01,2.741049528119999801e-01,9.041637778280000592e-01,8.694409728049999897e-01,0.000000000000000000e+00
9.899991399999999997e-01,-8.221934000170000090e+00,1.369201610060000185e+00,-1.180456919979999952e+01,3.383958339689999706e-01,2.348404884340000276e+00,1.468804359439999985e+00,0.000000000000000000e+00
9.949223080000000330e-01,-3.667359601740000308e+00,-1.107105282660000078e+00,-1.037385718230000009e+01,4.744353294370000085e-01,3.229288816449999988e+00,1.857264399529999777e+00,0.000000000000000000e+00
9.999507829999999542e-01,-2.415866379479999715e+00,-1.198047463280000002e+00,-1.022164768220000042e+01,5.460328459740000362e-01,3.610749721530000400e+00,2.234023571009999820e+00,0.000000000000000000e+00
1.005188170000000047e+00,1.849297568169999961e-01,-1.390678405589999889e+00,-1.149911910309999996e+01,5.388793349270000199e-01,3.481594324110000027e+00,2.408937215809999532e+00,0.000000000000000000e+00
1.010178841999999966e+00,2.816157783190000319e-01,-1.929935212399999989e+00,-1.006319081220000022e+01,5.468301177019999626e-01,3.164808034900000067e+00,2.667140007020000425e+00,0.000000000000000000e+00
1.015223811000000032e+00,2.445623512100000008e-01,-2.982331218949999752e+00,-9.856389305680000490e+00,5.088549256319999659e-01,3.003705501559999380e+00,2.817490339279999922e+00,0.000000000000000000e+00
1.020222556000000003e+00,7.841189446840000077e-01,-2.563811792359999675e+00,-9.070906452230000028e+00,4.371851086619999993e-01,2.854149580000000075e+00,2.834117412570000383e+00,0.000000000000000000e+00
1.025036921000000101e+00,2.871578130180000299e-01,-3.399886768930000081e+00,-8.670403743859999679e+00,3.589593172070000282e-01,2.902279138569999972e+00,2.904987812039999895e+00,0.000000000000000000e+00
1.029992290999999893e+00,-2.294412813800000006e-01,-4.668095563669999670e+00,-9.028130555820000680e+00,1.804947257039999919e-01,3.096926212310000093e+00,3.006587505340000188e+00,0.000000000000000000e+00
1.034994916000000043e+00,-8.706669819979999669e-01,-5.356958994580000244e+00,-8.945160011669999633e+00,1.929493062200000192e-02,3.400494813920000414e+00,3.061009407039999797e+00,0.000000000000000000e+00
1.040000446000000078e+00,-9.967113095290001112e-01,-5.605691178819999898e+00,-8.899770133369999670e+00,-1.657565683130000078e-01,3.625056028369999517e+00,3.090454101559999778e+00,0.000000000000000000e+00
1.045023263999999896e+00,-5.137797261280000471e-01,-5.564494076039999904e+00,-8.825351728979999422e+00,-3.468636274340000103e-01,3.800504684449999893e+00,3.028262853619999806e+00,0.000000000000000000e+00
1.049924504000000036e+00,-3.201092481679999602e-01,-5.280082091130000599e+00,-8.621118611680000043e+00,-5.134524106979999614e-01,3.866649627689999758e+00,2.927775144579999989e+00,0.000000000000000000e+00
1.055023446999999948e+00,-2.055186635990000066e-01,-4.797314356519999379e+00,-8.357866903699999739e+00,-5.795986652369999881e-01,3.892603397369999829e+00,2.772706031799999860e+00,0.000000000000000000e+00
1.059895228000000023e+00,-3.037609746309999914e-01,-4.217913463109999483e+00,-8.119829131960001334e+00,-6.059268116949999561e-01,3.937254905700000140e+00,2.600989103320000329e+00,0.000000000000000000e+00
1.065018985000000029e+00,-4.242261137900000256e-01,-3.907523279599999899e+00,-8.073225786220000089e+00,-5.749058723450000130e-01,3.971649646759999985e+00,2.384239912029999964e+00,0.000000000000000000e+00
1.069986003999999991e+00,-6.308310017229999955e-01,-3.779748255819999514e+00,-8.080297332040000668e+00,-5.208086967470000328e-01,4.060819625849999781e+00,2.192775964740000028e+00,0.000000000000000000e+00
1.075016033999999898e+00,-9.042069941590000770e-01,-3.641380234090000556e+00,-8.034671306889999087e+00,-4.506072700020000155e-01,4.156336307530000163e+00,1.972858548159999836e+00,0.000000000000000000e+00
1.079994558000000104e+00,-9.616891690509999924e-01,-3.540715627809999599e+00,-7.971703101799999303e+00,-3.842749893669999972e-01,4.238017559049999328e+00,1.753840565679999797e+00,0.000000000000000000e+00
1.085024847999999986e+00,-1.033436454529999882e+00,-3.548881983130000251e+00,-7.867773356249999850e+00,-2.954750061039999598e-01,4.279908657070000011e+00,1.507004022599999882e+00,0.000000000000000000e+00
1.089959553999999997e+00,-1.175786312440000092e+00,-3.487208201769999683e+00,-7.771350040810000692e+00,-2.354220896960000087e-01,4.299947261809999866e+00,1.307071685789999993e+00,0.000000000000000000e+00
1.095209247999999969e+00,-1.281173782520000026e+00,-3.079100863609999905e+00,-7.652716647120000104e+00,-1.373222768310000119e-01,4.302938461300000128e+00,1.121058702470000057e+00,0.000000000000000000e+00
1.099971374999999973e+00,-1.593476083260000120e+00,-2.697954305350000137e+00,-7.540909884580000444e+00,-3.736206144089999903e-02,4.288468837739999984e+00,9.897357225419999294e-01,0.000000000000000000e+00
1.105190821999999962e+00,-1.857593029770000070e+00,-2.488262045859999994e+00,-7.336610131789998768e+00,1.042867526409999995e-01,4.257867336269999470e+00,8.577110767359999999e-01,0.000000000000000000e+00
1.110011780000000003e+00,-2.061395500570000205e+00,-2.475680796709999854e+00,-7.060407756819999214e+00,2.289058715109999753e-01,4.241044998169999580e+00,7.346409559250000054e-01,0.000000000000000000e+00
1.115197479999999963e+00,-2.305216970280000055e+00,-2.538069156079999722e+00,-6.789525115569999159e+00,3.736638426780000133e-01,4.173643112180000614e+00,6.375867128369999692e-01,0.000000000000000000e+00
1.120019988999999994e+00,-2.422315994009999862e+00,-2.717643632940000220e+00,-6.669779376730000209e+00,4.549427628519999711e-01,4.080638408659999605e+00,5.705434679990000202e-01,0.000000000000000000e+00
1.125196784999999977e+00,-2.474378481940000096e+00,-2.951327008870000324e+00,-6.772653475750000318e+00,5.078457593919999402e-01,3.938596725460000059e+00,4.755230844020000291e-01,0.000000000000000000e+00
1.130007527000000067e+00,-2.926910360499999975e+00,-2.935142766790000302e+00,-6.867562294969999925e+00,5.665211677549999436e-01,3.773756742480000259e+00,3.855512738229999736e-01,0.000000000000000000e+00
1.135229306000000049e+00,-3.662025547230000289e+00,-3.038293344659999562e+00,-6.848445506569999175e+00,6.020178198810000048e-01,3.630327701569999288e+00,3.024429082869999896e-01,0.000000000000000000e+00
1.140308070999999979e+00,-4.365892778269999219e+00,-3.141868577689999942e+00,-6.731015643459999254e+00,6.022785902020000304e-01,3.485783338550000110e+00,2.221754044289999952e-01,0.000000000000000000e+00
1.145012483999999997e+00,-4.937662738409999363e+00,-3.359168974100000149e+00,-6.790085087540000508e+00,6.101679801939999814e-01,3.402005434040000331e+00,1.349634975189999975e-01,0.000000000000000000e+00
1.149869264999999974e+00,-5.578960408290000395e+00,-3.594766366950000069e+00,-6.922697322220000338e+00,6.265726089480000427e-01,3.362909555440000364e+00,5.229787155989999714e-02,0.000000000000000000e+00
1.155020380000000069e+00,-6.079601068709999723e+00,-3.693474578459999602e+00,-7.017584514139999285e+00,6.141062378880000061e-01,3.353014945980000050e+00,-6.456712633370000065e-02,0.000000000000000000e+00
1.160178767999999971e+00,-6.479897440859999413e+00,-3.753284611780000279e+00,-7.085346967769999615e+00,6.278393268590000131e-01,3.341063261029999953e+00,-1.823548078539999895e-01,0.000000000000000000e+00
1.165254781000000017e+00,-6.726299136329999762e+00,-3.784077224930000316e+00,-7.189980477669999814e+00,6.267309784889999458e-01,3.354875564579999914e+00,-3.217089772219999810e-01,0.000000000000000000e+00
1.170030700000000090e+00,-6.764459063370000358e+00,-3.783856860180000226e+00,-7.206134324619999809e+00,6.255201697350000201e-01,3.346746683120000565e+00,-4.924992322919999888e-01,0.000000000000000000e+00
1.175029829999999942e+00,-6.750597711280000190e+00,-3.707993517679999851e+00,-7.097077737569999378e+00,6.622393131260000398e-01,3.341731309890000112e+00,-6.663157343860000026e-01,0.000000000000000000e+00
1.180001298999999948e+00,-6.697292822070000540e+00,-3.637011809750000157e+00,-6.988927159450000204e+00,6.942639350889999728e-01,3.311673402790000331e+00,-8.474755883220000952e-01,0.000000000000000000e+00
1.185043940999999990e+00,-6.634300651590000264e+00,-3.628977264109999989e+00,-6.875172185460000307e+00,7.620460391040000392e-01,3.220281362530000191e+00,-1.048636078829999763e+00,0.000000000000000000e+00
1.189993826000000032e+00,-6.533634876269999836e+00,-3.629131870149999717e+00,-6.703486416019999616e+00,8.312003016469999839e-01,3.122671604160000225e+00,-1.237068057059999893e+00,0.000000000000000000e+00
1.195018617999999977e+00,-6.311236572200000339e+00,-3.607481763880000081e+00,-6.722008161139999771e+00,9.153949618340000427e-01,2.964423656459999723e+00,-1.428180217739999813e+00,0.000000000000000000e+00
1.199949887000000048e+00,-6.337515507320000019e+00,-3.378971114409999643e+00,-6.831888339530000742e+00,9.964137077330000869e-01,2.804267644879999910e+00,-1.592491507529999906e+00,0.000000000000000000e+00
1.205190983999999910e+00,-6.520083905299999927e+00,-3.090495533329999933e+00,-6.822404471869998765e+00,1.089588165279999910e+00,2.637908458710000126e+00,-1.742274522780000057e+00,0.000000000000000000e+00
1.210146839000000085e+00,-6.761737529459999507e+00,-2.984795563230000059e+00,-6.786334210569998859e+00,1.163962960239999900e+00,2.497757196430000270e+00,-1.871520161629999901e+00,0.000000000000000000e+00
1.215265988999999935e+00,-7.075622277089999912e+00,-2.988164455140000175e+00,-6.741191585030000155e+00,1.266319632529999906e+00,2.340543985370000080e+00,-1.984187722209999949e+00,0.000000000000000000e+00
1.220172204999999899e+00,-7.418597510119999683e+00,-3.083325495570000019e+00,-6.713691583689999298e+00,1.356497764589999822e+00,2.229990959169999787e+00,-2.057680606839999982e+00,0.000000000000000000e+00
1.225226437999999973e+00,-7.667674562280000217e+00,-3.191232328059999901e+00,-6.740496003990000595e+00,1.439507007599999833e+00,2.126419305800000270e+00,-2.086502313609999604e+00,0.000000000000000000e+00
1.230056838999999957e+00,-7.668289479310001155e+00,-3.225265238300000004e+00,-6.688835959369999529e+00,1.474261641500000053e+00,2.006090402599999933e+00,-2.119364738459999842e+00,0.000000000000000000e+00
1.235077736999999898e+00,-7.688524458080000734e+00,-3.257747704229999819e+00,-6.586525339459999628e+00,1.474895954129999964e+00,1.894374251369999929e+00,-2.135538578030000245e+00,0.000000000000000000e+00
1.240001555999999949e+00,-7.828478872219999829e+00,-3.319764015420000103e+00,-6.511438242030000545e+00,1.478573679920000217e+00,1.765287995340000027e+00,-2.137086153029999824e+00,0.000000000000000000e+00
1.245023661000000059e+00,-7.884417617060001326e+00,-3.333821182350000356e+00,-6.379177889530001089e+00,1.460732579229999883e+00,1.605278849600000113e+00,-2.150985240940000320e+00,0.000000000000000000e+00
1.250000229999999934e+00,-7.997606773869999408e+00,-3.292605667120000135e+00,-6.199597567449999680e+00,1.429895043370000174e+00,1.479308962820000017e+00,-2.167876482009999606e+00,0.000000000000000000e+00
1.255230132000000109e+00,-8.103775822779999416e+00,-3.430302365460000225e+00,-6.043717854430000536e+00,1.362930059429999785e+00,1.330881118770000038e+00,-2.151962280270000250e+00,0.000000000000000000e+00
1.260018821999999927e+00,-8.130538742020000598e+00,-3.691166886040000428e+00,-5.969974572829999993e+00,1.332868456839999993e+00,1.214914679529999875e+00,-2.150716781619999907e+00,0.000000000000000000e+00
1.265028521000000072e+00,-8.210558035149999156e+00,-3.750039638510000106e+00,-5.918199961919999197e+00,1.267440438269999969e+00,1.082550406460000003e+00,-2.133564233780000041e+00,0.000000000000000000e+00
1.270169066000000013e+00,-8.315938564039999648e+00,-3.766838797619999735e+00,-5.961548105260000341e+00,1.233565926550000080e+00,1.003829479219999987e+00,-2.097470521930000054e+00,0.000000000000000000e+00
1.275023502000000031e+00,-8.528294782039999689e+00,-3.707152975199999645e+00,-6.163279468879999889e+00,1.212219834329999912e+00,8.998090624810000104e-01,-2.065110445020000185e+00,0.000000000000000000e+00
1.279999008999999965e+00,-8.946089986000000494e+00,-3.494724861009999906e+00,-6.255201381250000026e+00,1.226503252979999958e+00,8.338710069660000279e-01,-2.034393072129999869e+00,0.000000000000000000e+00
1.285023524999999944e+00,-9.135859693660000502e+00,-3.195001325199999798e+00,-6.343205827919999429e+00,1.248343348499999950e+00,8.045946955679998958e-01,-2.012715816500000088e+00,0.000000000000000000e+00
1.289993103999999891e+00,-9.095833972739999496e+00,-3.050223144169999845e+00,-6.394667135079999731e+00,1.313528537750000114e+00,7.897319793699999479e-01,-2.026474237439999992e+00,0.000000000000000000e+00
1.295215309000000037e+00,-8.984638035580001514e+00,-3.100742786580000132e+00,-6.419772350249999704e+00,1.363686084749999861e+00,8.158088922499999729e-01,-2.046961069109999976e+00,0.000000000000000000e+00
1.300023096999999961e+00,-8.810836296899999809e+00,-3.135706547929999921e+00,-6.373619670880001031e+00,1.402774453160000157e+00,8.384398818019999089e-01,-2.040609598159999649e+00,0.000000000000000000e+00
1.304984689999999947e+00,-8.477725455269998989e+00,-2.955827242900000318e+00,-6.223468272380000776e+00,1.447984576229999876e+00,8.531611561779999242e-01,-2.056468963619999979e+00,0.000000000000000000e+00
1.310010836000000012e+00,-8.135934463579999942e+00,-2.610706814529999864e+00,-5.902645834440000350e+00,1.511044502260000089e+00,8.551254272460000472e-01,-2.044970512390000383e+00,0.000000000000000000e+00
1.315223719000000013e+00,-7.819200171739999483e+00,-2.206351083990000017e+00,-5.479917850249999667e+00,1.545250535010000092e+00,8.657835721969999732e-01,-2.003658056259999931e+00,0.000000000000000000e+00
1.320014390999999954e+00,-7.743624414010000123e+00,-1.719602316920000096e+00,-5.118830621939999936e+00,1.622942686079999808e+00,8.190658092499999432e-01,-1.932316899300000168e+00,0.000000000000000000e+00
1.325253475000000014e+00,-7.789764233899999724e+00,-1.548699660679999868e+00,-4.763655832549999580e+00,1.714645504950000010e+00,7.740552425380000656e-01,-1.855064153670000104e+00,0.000000000000000000e+00
1.330169871999999920e+00,-7.691042578380000272e+00,-1.507868176340000144e+00,-4.678526356789999952e+00,1.797479987140000235e+00,7.301825881000000296e-01,-1.780040979390000055e+00,0.000000000000000000e+00
1.335037352999999927e+00,-7.667264227910000507e+00,-1.520524390429999873e+00,-4.608323816540000450e+00,1.893273591999999894e+00,6.799056529999999432e-01,-1.693506240839999899e+00,0.000000000000000000e+00
1.340161420999999908e+00,-7.675597756489999313e+00,-1.640848805939999711e+00,-4.496264248280000153e+00,1.919191241259999847e+00,5.835111141200000073e-01,-1.610039591789999891e+00,0.000000000000000000e+00
1.345035238999999994e+00,-7.606341849439998803e+00,-1.660620258860000087e+00,-4.436992851890000367e+00,1.933072805399999927e+00,5.117997527120000667e-01,-1.554733037949999952e+00,0.000000000000000000e+00
1.349991594000000017e+00,-7.685319524560000559e+00,-1.668157376369999945e+00,-4.513533947510000033e+00,1.906771898270000154e+00,4.633964002130000481e-01,-1.498170614239999976e+00,0.000000000000000000e+00
1.354991147000000007e+00,-7.731383941119999825e+00,-1.628162488979999933e+00,-4.599668216399999565e+00,1.904176473620000198e+00,3.801161348820000230e-01,-1.462300300599999936e+00,0.000000000000000000e+00
1.359967710999999913e+00,-7.860909900219999358e+00,-1.673561865759999989e+00,-4.675540034459999994e+00,1.861451745029999882e+00,2.813553214070000363e-01,-1.427370190620000034e+00,0.000000000000000000e+00
1.364921390999999984e+00,-7.887931178139998778e+00,-1.515029007879999945e+00,-4.805702537900000237e+00,1.852351665500000077e+00,2.056797146799999865e-01,-1.418225407599999821e+00,0.000000000000000000e+00
1.370101288000000084e+00,-8.057522021129999601e+00,-1.285595544480000019e+00,-4.876247023459999497e+00,1.837572216989999951e+00,1.081475541000000012e-01,-1.391808152200000093e+00,0.000000000000000000e+00
1.375218465999999973e+00,-8.218270801490000110e+00,-1.362989019149999814e+00,-5.119378903480000353e+00,1.852052330970000105e+00,2.552909776570000053e-02,-1.403413057329999880e+00,0.000000000000000000e+00
1.380184330999999931e+00,-8.644914497809999432e+00,-1.556368295620000008e+00,-5.482240740240000854e+00,1.862664818759999896e+00,-7.931924611330000430e-02,-1.379292845729999772e+00,0.000000000000000000e+00
1.385227782000000074e+00,-8.847140366939999723e+00,-1.598617391669999943e+00,-5.826663833999999653e+00,1.852259397509999905e+00,-1.535423696040000008e-01,-1.419479846949999846e+00,0.000000000000000000e+00
1.390019101000000035e+00,-9.307581703449999466e+00,-1.826310148879999762e+00,-6.201287420229999903e+00,1.827615141869999960e+00,-2.241002172229999978e-01,-1.445824742319999912e+00,0.000000000000000000e+00
1.395017393000000050e+00,-9.748647892889998445e+00,-1.973578831550000023e+00,-6.782900144470000114e+00,1.827031612400000116e+00,-2.542807757849999684e-01,-1.488044261929999834e+00,0.000000000000000000e+00
1.399897050000000087e+00,-1.015918918020000028e+01,-1.675589864450000022e+00,-7.148186578039998906e+00,1.819162964819999839e+00,-2.528152167800000183e-01,-1.520428180689999964e+00,0.000000000000000000e+00
1.405019400000000029e+00,-1.028796402869999937e+01,-1.095199302420000187e+00,-7.377876208160000893e+00,1.846408605579999973e+00,-2.460028380160000083e-01,-1.589594721789999943e+00,0.000000000000000000e+00
1.410180246999999998e+00,-1.020268111590000082e+01,-6.026735593840000238e-01,-7.482097045610000663e+00,1.902240037919999960e+00,-2.262998223300000389e-01,-1.671912074090000200e+00,0.000000000000000000e+00
1.415182603000000094e+00,-1.015330538289999929e+01,-3.819141816309999937e-01,-7.506200974769999590e+00,1.950742006300000053e+00,-1.913816928860000155e-01,-1.739050984379999942e+00,0.000000000000000000e+00
1.420098171000000020e+00,-9.898560221930001291e+00,-3.903579656539999942e-01,-7.412320329550000864e+00,2.020908832549999978e+00,-1.900226622819999878e-01,-1.802564501760000049e+00,0.000000000000000000e+00
1.425215812000000026e+00,-9.604138884189998393e+00,-4.188804419129999457e-01,-7.297164256580000341e+00,2.092189311979999911e+00,-2.605511546129999911e-01,-1.877062439920000214e+00,0.000000000000000000e+00
1.430149348000000042e+00,-9.131044402329999699e+00,-2.694480784019999686e-01,-7.154439208689999496e+00,2.095187664030000008e+00,-3.254579007629999632e-01,-1.953076124190000318e+00,0.000000000000000000e+00
1.435036554000000075e+00,-8.693266733049998862e+00,-2.091764554540000154e-02,-7.237152563210001333e+00,2.070242881770000043e+00,-4.580536186699999956e-01,-2.005519866939999840e+00,0.000000000000000000e+00
1.440000839000000088e+00,-8.296942187139999092e+00,2.339419537999999910e-01,-7.473146261910001087e+00,2.059010982509999810e+00,-5.808362364770000008e-01,-2.086409091949999794e+00,0.000000000000000000e+00
1.445016877999999894e+00,-8.105877178969999264e+00,5.739448930270000249e-01,-7.827172465800000367e+00,2.009492874149999775e+00,-7.308713197709999498e-01,-2.165349245069999817e+00,0.000000000000000000e+00
1.449957919000000039e+00,-8.046385125560000517e+00,1.403783094100000017e+00,-8.286516070199999362e+00,1.995939612390000173e+00,-8.586286902429999257e-01,-2.271788120270000100e+00,0.000000000000000000e+00
1.455071224000000107e+00,-7.807027503389999623e+00,2.376295562720000198e+00,-8.818751892330000786e+00,1.933006167409999865e+00,-1.000374794010000068e+00,-2.407876253129999977e+00,0.000000000000000000e+00
1.460005425000000079e+00,-7.519539179780000637e+00,3.015992957790000428e+00,-9.299024887510000781e+00,1.908237099649999990e+00,-1.121467590329999986e+00,-2.567065000529999974e+00,0.000000000000000000e+00
1.465216225999999899e+00,-7.311784902610000358e+00,3.227704448149999905e+00,-9.769140061299999900e+00,1.840279459950000085e+00,-1.193231821060000142e+00,-2.727483987809999455e+00,0.000000000000000000e+00
1.470008473999999898e+00,-7.250325348519999658e+00,3.268315275479999560e+00,-1.026121747600000056e+01,1.780110239979999953e+00,-1.291945815090000060e+00,-2.867995977400000118e+00,0.000000000000000000e+00
1.475226718000000048e+00,-7.040796462899999497e+00,3.272845320120000068e+00,-1.073601525469999984e+01,1.680738687520000108e+00,-1.386813402180000043e+00,-2.986341238020000066e+00,0.000000000000000000e+00
1.480192791999999979e+00,-6.811677910669999392e+00,3.092019381890000140e+00,-1.117237136670000019e+01,1.550285100939999827e+00,-1.474292278289999869e+00,-3.074283361430000028e+00,0.000000000000000000e+00
1.485034256000000052e+00,-6.870947261240000437e+00,3.107091863339999982e+00,-1.149888061809999940e+01,1.386880040170000106e+00,-1.525958180429999755e+00,-3.136719942090000046e+00,0.000000000000000000e+00
1.490207811999999965e+00,-6.899087314049999975e+00,3.143403532170000236e+00,-1.197072539220000031e+01,1.197551012039999918e+00,-1.593520402910000078e+00,-3.175165176390000177e+00,0.000000000000000000e+00
1.495026622999999999e+00,-7.123423892699999982e+00,3.049899903570000070e+00,-1.265367609190000131e+01,1.012050867079999916e+00,-1.634793996810000039e+00,-3.159318923949999913e+00,0.000000000000000000e+00
1.500007094000000096e+00,-7.368468328339999651e+00,3.433349770329999995e+00,-1.309906189809999866e+01,8.678488731380000765e-01,-1.651076793670000153e+00,-3.121955394740000500e+00,0.000000000000000000e+00
1.505035813999999972e+00,-7.578480613570000024e+00,4.219748569580000108e+00,-1.327267892789999948e+01,7.402509450910000899e-01,-1.599867582319999926e+00,-3.046411991119999829e+00,0.000000000000000000e+00
1.510187874999999957e+00,-7.161154780680000442e+00,4.926693600630000169e+00,-1.334934949510000024e+01,6.555846333500000567e-01,-1.580640673639999827e+00,-2.997195720670000174e+00,0.000000000000000000e+00
1.515188401000000074e+00,-6.998728422500000157e+00,5.565168614299999206e+00,-1.340600018760000012e+01,6.255290508269999439e-01,-1.519459247589999951e+00,-2.896123886109999823e+00,0.000000000000000000e+00
1.520093340999999931e+00,-6.653869859930000352e+00,5.930162786919999540e+00,-1.341103525920000017e+01,6.678022742270000034e-01,-1.457260727879999829e+00,-2.787171602250000380e+00,0.000000000000000000e+00
1.525261701000000025e+00,-6.261752118069999540e+00,6.178913091340000996e+00,-1.320876496640000042e+01,7.372019886970000435e-01,-1.417547464370000121e+00,-2.654625654220000186e+00,0.000000000000000000e+00
1.530151771000000105e+00,-5.540017806429999858e+00,6.319218218609999660e+00,-1.307541448049999921e+01,7.997923493390000083e-01,-1.423824071879999931e+00,-2.551973819729999704e+00,0.000000000000000000e+00
1.535093709999999945e+00,-5.021649766130000359e+00,6.162984285319999422e+00,-1.304755382919999995e+01,8.190226554870000397e-01,-1.450185060500000178e+00,-2.453649282459999803e+00,0.000000000000000000e+00
1.540016484999999991e+00,-4.819859658069999497e+00,6.242877321729999984e+00,-1.292958562140000112e+01,8.403539061550000522e-01,-1.487756848339999882e+00,-2.343272686000000160e+00,0.000000000000000000e+00
1.544974379999999980e+00,-4.318753718209999981e+00,6.428713781589999954e+00,-1.301256785599999866e+01,8.456382751459999847e-01,-1.540126085280000057e+00,-2.292410612109999857e+00,0.000000000000000000e+00
1.549987299999999957e+00,-3.743105747600000033e+00,6.576950870900000190e+00,-1.325585755690000056e+01,7.903022170069999852e-01,-1.587825775149999785e+00,-2.263000249859999702e+00,0.000000000000000000e+00
1.555047488000000033e+00,-3.344350175149999771e+00,6.650369742859999711e+00,-1.355567753890000127e+01,7.309483289720000165e-01,-1.614137172700000011e+00,-2.251343488690000338e+00,0.000000000000000000e+00
1.560190116000000016e+00,-3.031010201920000480e+00,6.639106006039999563e+00,-1.392243346049999886e+01,6.364244222639999782e-01,-1.633026957510000265e+00,-2.262752532959999563e+00,0.000000000000000000e+00
1.565217689000000023e+00,-2.976200753370000118e+00,6.403349623230000454e+00,-1.422827752499999932e+01,5.044444203379999658e-01,-1.675760626789999819e+00,-2.303701400759999629e+00,0.000000000000000000e+00
1.570100644999999906e+00,-3.116967945189999867e+00,6.236838626080000836e+00,-1.451704770509999953e+01,3.690190911289999431e-01,-1.650781035419999876e+00,-2.291856050490000296e+00,0.000000000000000000e+00
1.575220534000000061e+00,-3.118660720579999879e+00,6.263231542969998955e+00,-1.473420109420000124e+01,2.550256252290000192e-01,-1.645492196079999747e+00,-2.240497827530000041e+00,0.000000000000000000e+00
1.580012369999999944e+00,-3.094284696479999930e+00,6.468778665479999468e+00,-1.503961027450000110e+01,1.504496634009999945e-01,-1.595745563510000187e+00,-2.207059383390000296e+00,0.000000000000000000e+00
1.585234279000000024e+00,-2.869931751209999771e+00,6.611823446839999896e+00,-1.528380130809999926e+01,1.000149622559999979e-01,-1.522585034370000034e+00,-2.127331495289999985e+00,0.000000000000000000e+00
1.590028095000000086e+00,-2.512183311939999886e+00,6.686588472710000453e+00,-1.541515272910000078e+01,5.773587524889999684e-02,-1.470355629920000240e+00,-2.031308412550000053e+00,0.000000000000000000e+00
1.595016640000000097e+00,-1.958347506279999983e+00,6.581665624470000253e+00,-1.548682680319999960e+01,3.410999104379999758e-02,-1.414281964299999972e+00,-1.934449911120000198e+00,0.000000000000000000e+00
1.599948885999999959e+00,-1.407322228009999954e+00,6.304159765680000582e+00,-1.555594417859999901e+01,2.353873848920000345e-02,-1.359467506410000137e+00,-1.816944360729999763e+00,0.000000000000000000e+00
1.605061485000000010e+00,-8.644349557410000440e-01,5.749170259949999640e+00,-1.555652519339999884e+01,-5.321817472579999826e-03,-1.256570696829999889e+00,-1.711726427080000112e+00,0.000000000000000000e+00
1.610209796999999998e+00,-4.032204429020000425e-01,5.087712430099999850e+00,-1.550959743800000012e+01,-7.282487303019999358e-02,-1.192998290060000022e+00,-1.600960373879999787e+00,0.000000000000000000e+00
1.615185002999999897e+00,3.632333369609999640e-01,4.447969296190000144e+00,-1.530895445410000022e+01,-1.724224686620000058e-01,-1.101411581040000032e+00,-1.494056224820000001e+00,0.000000000000000000e+00
1.620092891999999951e+00,1.368580117159999832e+00,3.935056014170000172e+00,-1.507354060109999949e+01,-2.821871638300000318e-01,-9.887800812720001220e-01,-1.406605482100000026e+00,0.000000000000000000e+00
1.625233388000000057e+00,2.094243584940000069e+00,3.591331131810000077e+00,-1.489839913829999851e+01,-3.871012330060000228e-01,-8.675423860550000033e-01,-1.310753226279999906e+00,0.000000000000000000e+00
1.630072387000000012e+00,2.561341310600000032e+00,3.181093211359999895e+00,-1.471412627449999988e+01,-5.044665336610000272e-01,-7.615109086040000586e-01,-1.245932579039999988e+00,0.000000000000000000e+00
1.635031775000000076e+00,2.739502705790000103e+00,3.286299260459999871e+00,-1.458152046950000091e+01,-5.338951945300000057e-01,-6.570016145709999256e-01,-1.185903310779999886e+00,0.000000000000000000e+00
1.640196178999999921e+00,2.760062971000000420e+00,3.758557876010000243e+00,-1.443652396959999962e+01,-5.403556823730000236e-01,-5.510986447330000759e-01,-1.125324726099999895e+00,0.000000000000000000e+00
1.645008868999999985e+00,2.726156902009999605e+00,3.846746154809999929e+00,-1.419710263450000021e+01,-5.111710429190000626e-01,-4.219465255740000309e-01,-1.115859508510000042e+00,0.000000000000000000e+00
1.649997495999999897e+00,2.651116274070000056e+00,3.739441672130000782e+00,-1.371154380790000005e+01,-4.536061882970000014e-01,-2.457420676949999827e-01,-1.112177968029999908e+00,0.000000000000000000e+00
1.654947530999999916e+00,2.705083134319999694e+00,3.246648802590000216e+00,-1.333049398799999885e+01,-4.142278432850000081e-01,-8.308770507569999964e-02,-1.124783873559999980e+00,0.000000000000000000e+00
1.659994827000000006e+00,3.004055559499999806e+00,2.598522455739999959e+00,-1.279648180380000078e+01,-3.830542564389999849e-01,4.323208332060000242e-02,-1.158860087389999904e+00,0.000000000000000000e+00
1.665012697999999958e+00,4.400309134869999639e+00,2.431635172620000063e+00,-1.278641166069999890e+01,-3.973982632159999695e-01,1.267706751819999977e-01,-1.163803577420000179e+00,0.000000000000000000e+00
1.670019856999999996e+00,1.253100949720000079e+00,-6.191814658489999346e+00,-1.688506044650000248e+01,-1.450111746789999989e+00,6.292327046390000511e-01,-2.098127841949999794e+00,0.000000000000000000e+00
1.675218225999999921e+00,1.917464145620000115e+00,-3.062975073719999664e+00,-1.372312786270000018e+01,-2.319198608400000250e+00,-4.263320863250000259e-01,-2.079336881640000190e+00,0.000000000000000000e+00
1.680048293000000026e+00,2.035492851420000360e+00,-1.587778748400000106e+00,-9.672076109860000770e+00,-4.050739288329999965e+00,-7.629197239880000092e-01,-2.060279846190000264e+00,0.000000000000000000e+00
1.685032255000000090e+00,4.790166822849999839e+00,5.395747136530000543e-02,-5.554799195980000270e+00,-5.175315856930000180e+00,-1.186995506289999947e+00,-2.443086862559999961e+00,0.000000000000000000e+00
1.690004099999999898e+00,2.740550169020000038e+00,1.660168752229999878e-01,-1.043036758950000120e+01,-5.894678592680000051e+00,-1.723315954209999834e+00,-1.884531497959999635e+00,0.000000000000000000e+00
1.694995084999999957e+00,7.433100082730000224e+00,5.100065715719999559e+00,-1.360936119829999846e+01,-5.649101734160000277e+00,-1.906399488449999957e+00,-1.222332119940000128e+00,0.000000000000000000e+00
1.699988870000000096e+00,3.200621503170000270e+00,9.495104508969999912e+00,-1.530957054019999930e+01,-4.764826297759999996e+00,-2.016815662379999985e+00,-8.338697552680001124e-01,0.000000000000000000e+00
1.705034753999999930e+00,-5.709475013100000496e-01,1.485295373039999944e+01,-1.317118488500000062e+01,-3.509141206740000296e+00,-2.259371280669999926e+00,-3.590697646140000310e-01,0.000000000000000000e+00
1.710211123000000111e+00,-5.642445915249999722e+00,2.011388922249999922e+01,-1.297105160430000126e+01,-2.417079925540000396e+00,-2.571323394779999827e+00,8.425354212519998998e-02,0.000000000000000000e+00
1.715196825000000036e+00,-7.509573666080000542e+00,1.985765820690000183e+01,-1.386552090210000010e+01,-1.678220748899999837e+00,-2.619407892229999923e+00,2.705492377279999916e-01,0.000000000000000000e+00
1.720005140999999904e+00,-8.008585264000000592e+00,1.354529759910000131e+01,-1.202325520539999992e+01,-1.050645470620000133e+00,-2.516746520999999959e+00,4.054385423659999654e-01,0.000000000000000000e+00
1.725225529999999896e+00,-5.995265081430000365e+00,9.328282546180000523e+00,-1.231033845530000015e+01,-5.689414739610000327e-01,-2.250143766399999912e+00,3.780687749389999852e-01,0.000000000000000000e+00
1.729995302999999929e+00,-4.512470409940000593e+00,6.336368675369999259e+00,-1.297411917520000024e+01,-4.001699984070000160e-01,-1.867826700209999968e+00,3.442166447640000460e-01,0.000000000000000000e+00
1.734988431000000109e+00,-3.749167239589999756e+00,1.058338109949999994e+00,-1.349353818579999853e+01,-4.864240288730000139e-01,-1.529175162319999837e+00,3.379213213920000403e-01,0.000000000000000000e+00
1.740186771000000077e+00,-2.787547774779999710e+00,-3.213711286370000142e+00,-1.171212472490000067e+01,-5.754352807999999486e-01,-1.385301828380000044e+00,4.343698024750000108e-01,0.000000000000000000e+00
1.745047846000000069e+00,-2.681365281859999783e+00,-4.268512015969999851e+00,-9.783310040940000007e+00,-6.774394512180000882e-01,-1.500100851060000018e+00,4.491351842880000333e-01,0.000000000000000000e+00
1.749994092999999973e+00,-4.905018944440000084e+00,-4.177485883390000154e+00,-1.190319557830000008e+01,-7.970515489579999002e-01,-1.677560806270000038e+00,4.235458374019999694e-01,0.000000000000000000e+00
1.755015757000000010e+00,-6.414815020099999821e+00,-3.456740582790000627e+00,-1.034968252600000049e+01,-9.909753799439999788e-01,-1.845704436299999918e+00,3.899151980879999591e-01,0.000000000000000000e+00
1.759998264000000034e+00,-5.687972571669999589e+00,1.424082224149999965e+00,-1.058726027900000055e+01,-1.089720845220000234e+00,-1.927259206770000066e+00,3.148706257339999870e-01,0.000000000000000000e+00
1.764908611999999932e+00,-5.251081622090000067e+00,3.627542555130000235e+00,-9.561983165499999160e+00,-1.169345617290000083e+00,-1.755776762959999848e+00,3.524443507190000435e-01,0.000000000000000000e+00
1.770108532999999928e+00,-6.814027104140000013e+00,3.084414167589999867e+00,-1.226805063469999979e+01,-1.081287503240000003e+00,-1.521239757540000070e+00,3.191697001459999905e-01,0.000000000000000000e+00
1.775195878999999977e+00,-9.548312367550000346e+00,3.628778745869999933e-01,-1.097270102729999941e+01,-8.398754000660000330e-01,-1.044687628749999986e+00,3.912363052369999816e-01,0.000000000000000000e+00
1.780011739999999953e+00,-9.499747950860001566e+00,1.607516591310000020e+00,-1.156004381960000060e+01,-5.109277963639999864e-01,-5.233588218689999572e-01,4.906940162179999620e-01,0.000000000000000000e+00
1.784960796000000016e+00,-5.333954551090000606e+00,2.005890470959999838e+00,-1.031796519919999966e+01,-3.737315237520000277e-01,-2.087090015409999999e-01,3.474594354630000104e-01,0.000000000000000000e+00
1.790112793999999896e+00,-4.744603633809999721e+00,1.595685429870000283e+00,-8.493847153509999970e+00,-3.319982290269999914e-01,3.972167614850000421e-04,2.656719982619999976e-01,0.000000000000000000e+00
1.794989936999999980e+00,-3.691070439930000280e+00,1.144033256760000006e+00,-1.007927685459999978e+01,-3.590746819969999892e-01,9.106886386870000072e-02,1.821849793199999956e-01,0.000000000000000000e+00
1.799946923999999893e+00,-3.613132336990000137e+00,4.534675519740000160e-01,-9.803099029520000229e+00,-4.565308988090000519e-01,2.623911201950000077e-02,1.561723500489999861e-01,0.000000000000000000e+00
1.804959264000000063e+00,-2.795560400839999904e+00,4.803752134480000491e-01,-9.897388840070000526e+00,-4.360721111300000508e-01,-8.427911996839999864e-02,1.693977564570000038e-01,0.000000000000000000e+00
1.810144522999999950e+00,-3.366391034299999863e+00,1.530804523030000031e+00,-9.837498727250000741e+00,-3.984628319740000091e-01,-1.605988144870000023e-01,1.916729807850000022e-01,0.000000000000000000e+00
1.815140951999999919e+00,-3.454422076719999790e+00,1.628738681430000002e+00,-9.847390006669998641e+00,-3.542776107789999962e-01,-1.842063069340000026e-01,1.901224404569999971e-01,0.000000000000000000e+00
1.820183450000000036e+00,-3.037702393029999559e+00,1.614114236010000036e+00,-9.737415135730000060e+00,-2.960595190529999865e-01,-9.140716493130000841e-02,1.612253636119999889e-01,0.000000000000000000e+00
1.825198305000000021e+00,-3.452627302250000252e+00,1.759337968849999934e+00,-9.910291576260000568e+00,-2.283723056320000055e-01,-4.497239738699999878e-02,1.152781918639999986e-01,0.000000000000000000e+00
1.830014709999999933e+00,-3.237737766379999993e+00,1.737307923350000172e+00,-9.470942127619998985e+00,-1.732911765579999985e-01,6.295342929660000669e-03,8.150742948059999660e-02,0.000000000000000000e+00
1.835195630999999938e+00,-3.074230627229999957e+00,1.381967860390000080e+00,-9.622451954989999834e+00,-1.271922588350000161e-01,3.230917081239999961e-02,7.163412868980001402e-02,0.000000000000000000e+00
1.840207079000000023e+00,-3.043259734899999902e+00,7.626096351219999736e-01,-9.695927525569999261e+00,-8.007115125659999832e-02,2.580805495379999773e-02,7.372198998930000469e-02,0.000000000000000000e+00
1.845000830999999897e+00,-2.797217520400000268e+00,5.335619561689999291e-01,-9.803246329039998486e+00,-5.260214954609999244e-02,1.072193216529999937e-02,8.254774659869999753e-02,0.000000000000000000e+00
1.849960730999999914e+00,-2.848932510060000034e+00,4.469103123500000052e-01,-9.688605804380001629e+00,-8.107285946609999253e-03,-1.229690108449999972e-02,6.410568952560000144e-02,0.000000000000000000e+00
1.855187136000000070e+00,-2.926234360930000111e+00,2.628243676800000039e-01,-9.564728664820000503e+00,-3.399866167459999946e-03,-2.892045117910000199e-02,2.820814214649999818e-02,1.000000000000000000e+00
1.860196238999999974e+00,-2.925800353430000111e+00,1.193031096419999992e-01,-9.491590947889999796e+00,1.289420411919999952e-03,-1.774838380519999995e-02,2.456006035210000008e-02,1.000000000000000000e+00
1.865186376999999895e+00,-2.947791528220000234e+00,-7.835799059039999515e-02,-9.508559618350000520e+00,-1.156305056070000212e-02,-2.987766824660000042e-02,4.085443541409999879e-02,1.000000000000000000e+00
1.870160639999999930e+00,-2.915677018820000299e+00,1.778719860759999868e-02,-9.517433245159999444e+00,-4.993699491019999714e-02,1.025380566720000136e-02,5.863675102590000521e-02,1.000000000000000000e+00
1.875195135000000013e+00,-2.933807134269999839e+00,5.911713741709999637e-01,-9.507484682599999459e+00,-9.199961274859999594e-02,3.238988295200000145e-02,8.980172127489999268e-02,1.000000000000000000e+00
1.880010356000000105e+00,-3.042706192670000309e+00,7.436228297750000493e-01,-9.414370345569999188e+00,-1.077042669060000041e-01,1.540664024650000019e-02,9.369552135469999543e-02,0.000000000000000000e+00
1.884993450000000070e+00,-3.148101334599999745e+00,5.647934356589999760e-01,-9.378245723739999207e+00,-1.145092546940000011e-01,5.133742466569999816e-03,8.462634682660000185e-02,0.000000000000000000e+00
1.889970431000000062e+00,-2.939226528970000363e+00,4.134842819579999662e-01,-9.455012737080000562e+00,-1.003403663639999971e-01,2.723472006620000080e-02,7.872346788639998649e-02,0.000000000000000000e+00
1.894987723000000068e+00,-2.816644689919999944e+00,4.500276771859999525e-01,-9.444401911219999946e+00,-8.638478070499999717e-02,4.165799915789999974e-02,7.041598111389998915e-02,0.000000000000000000e+00
1.900077749000000038e+00,-2.760343541509999721e+00,4.611928855290000073e-01,-9.502404018330000923e+00,-7.904513180260000493e-02,5.456839874390000816e-02,6.574501097200000088e-02,0.000000000000000000e+00
1.905016424000000042e+00,-2.739213075199999903e+00,4.574139515119999833e-01,-9.512895017210000859e+00,-7.441166788339999283e-02,3.345690295100000461e-02,6.733588874340000474e-02,1.000000000000000000e+00
1.909916632999999919e+00,-2.699839388450000488e+00,4.585035733799999735e-01,-9.521463523590000477e+00,-7.764150202269999579e-02,2.622635290029999913e-02,5.249946564440000074e-02,1.000000000000000000e+00
1.915164689999999892e+00,-2.700692498140000009e+00,4.303436468219999922e-01,-9.465950895200000659e+00,-9.392601996659999397e-02,1.315176673229999892e-02,5.136583372949999476e-02,1.000000000000000000e+00
1.920151010000000102e+00,-2.767867799530000283e+00,4.142755419340000134e-01,-9.425734620149999188e+00,-8.424428105350001417e-02,1.856848225000000061e-02,5.085344985129999773e-02,1.000000000000000000e+00
1.925227499000000009e+00,-2.854172748809999938e+00,5.059244460509999541e-01,-9.324356897170000380e+00,-9.775926917789999615e-02,4.039830528199999694e-03,4.155698418619999807e-02,1.000000000000000000e+00
1.930157764000000054e+00,-2.729345176650000315e+00,2.892625302119999908e-01,-9.281905410409999391e+00,-8.247031271460000812e-02,-2.072471752759999855e-02,4.621319472790000327e-02,1.000000000000000000e+00
1.935018635000000042e+00,-2.555871647020000026e+00,1.452859844219999974e-01,-9.493318794600000388e+00,-9.376886487009999938e-02,-1.508663222189999924e-02,4.756315425040000266e-02,1.000000000000000000e+00
1.940000248999999899e+00,-2.509692956429999899e+00,3.234764595790000086e-01,-9.511875026509999387e+00,-7.635709643360001631e-02,-1.479929126799999980e-02,3.534245491030000436e-02,1.000000000000000000e+00
1.944987892999999968e+00,-2.690584068840000231e+00,6.620939357970000438e-01,-9.481270044889999582e+00,-9.938261657950001049e-02,-2.535913884640000199e-02,3.827452287079999987e-02,1.000000000000000000e+00
1.949987090999999895e+00,-2.748537660640000269e+00,8.967343932560000175e-01,-9.477118185900000213e+00,-8.721476793289999196e-02,-3.945415839550000386e-02,3.121473081409999531e-02,1.000000000000000000e+00
1.954957266000000082e+00,-2.829995754400000063e+00,9.986619321399999860e-01,-9.422514489060000997e+00,-7.197885215280000470e-02,-5.170201882719999836e-02,1.597215421499999927e-02,1.000000000000000000e+00
1.960090799999999911e+00,-2.977041003579999678e+00,9.851891409739998995e-01,-9.379554468250001165e+00,-4.400801286099999959e-02,-6.064949929709999993e-02,1.464709267020000184e-02,1.000000000000000000e+00
1.965191558999999977e+00,-3.019541882439999991e+00,7.291221568660000152e-01,-9.302198841370000082e+00,-1.674369163810000144e-02,-4.508093371989999737e-02,7.963893935079999209e-03,1.000000000000000000e+00
1.970152541000000035e+00,-3.000563917990000107e+00,4.411902176709999734e-01,-9.287491101580000574e+00,-2.026520669459999646e-02,-3.413957729940000213e-02,2.097623236480000014e-02,1.000000000000000000e+00
1.975019866000000013e+00,-2.946258327310000258e+00,2.328606431030000035e-01,-9.287394070950000469e+00,-2.409021370110000278e-03,-1.980173215270000092e-02,3.081445582209999673e-02,1.000000000000000000e+00
1.979957050000000107e+00,-2.810399950309999451e+00,-2.979461965390000147e-02,-9.354303122619999300e+00,-4.436640441419999886e-02,-4.666061140600000386e-03,2.707982808350000228e-02,1.000000000000000000e+00
1.984991253000000011e+00,-2.845759725249999761e+00,1.190284300200000062e-01,-9.353134663360000545e+00,-6.383825838569999467e-02,-3.073386847969999773e-03,2.307738736270000326e-02,1.000000000000000000e+00
1.989993306999999989e+00,-2.953587647280000006e+00,4.716288297500000337e-01,-9.315923415339998570e+00,-9.481777250769998777e-02,-1.213268749420000001e-02,4.651712626219999674e-02,1.000000000000000000e+00
1.994986609999999994e+00,-2.990918137770000040e+00,8.027779063160001005e-01,-9.307850583520000498e+00,-8.955220878120000172e-02,-1.451430842279999994e-02,3.132731467489999894e-02,1.000000000000000000e+00
2.000167014000000076e+00,-2.958866172209999590e+00,1.041873954940000013e+00,-9.291543007319999603e+00,-1.027019023900000022e-01,-1.078747585420000189e-02,1.825222745540000177e-02,1.000000000000000000e+00
2.004970516000000202e+00,-2.971303044449999931e+00,1.206379895880000053e+00,-9.382549558420000935e+00,-7.768312841650000522e-02,-5.208999384189999873e-03,1.762026920909999864e-02,1.000000000000000000e+00
2.009876998000000192e+00,-2.901892239100000381e+00,1.234508769709999898e+00,-9.410440604899999784e+00,-5.499243363740000112e-02,1.859265379609999908e-02,6.796258967369999543e-03,1.000000000000000000e+00
2.015162226999999806e+00,-2.873738450020000279e+00,9.445879582549999709e-01,-9.357091876549999299e+00,-3.929676860569999292e-02,1.672368869189999954e-02,3.100308589639999991e-03,1.000000000000000000e+00
2.020160316000000122e+00,-2.823507269169999834e+00,5.992128975360000442e-01,-9.391448904189999780e+00,-2.038062550129999748e-02,4.423598758880000446e-03,-7.744294591250000873e-03,1.000000000000000000e+00
2.025219578000000187e+00,-2.803949751259999790e+00,6.514699581909999537e-01,-9.392408689130000710e+00,-1.945267431440000222e-02,1.587017811830000041e-02,-1.836957782509999679e-02,1.000000000000000000e+00
2.029950497999999826e+00,-2.844756685680000174e+00,9.096215665530000827e-01,-9.390531789339998880e+00,-1.791317947209999928e-02,1.675183698530000043e-02,-1.094299368560000020e-02,1.000000000000000000e+00
2.035007027999999885e+00,-2.858779365820000251e+00,8.522496471020000186e-01,-9.432371281680000052e+00,-1.830637082459999829e-02,1.076724380249999974e-02,-8.489673957229999790e-03,1.000000000000000000e+00
2.039991962999999853e+00,-2.881804559840000390e+00,6.862322786890000526e-01,-9.398406468239999256e+00,1.166733819990000039e-02,1.513691805299999943e-02,-2.489152923229999773e-02,1.000000000000000000e+00
2.045213019000000187e+00,-2.833011887360000092e+00,5.074237081650000425e-01,-9.401264780280000011e+00,3.010396473109999693e-02,7.281782105570000323e-03,-1.457507908339999818e-02,1.000000000000000000e+00
2.050161521999999792e+00,-2.873168248920000334e+00,2.963057997870000015e-01,-9.341723627030001254e+00,3.088393621149999879e-02,2.293208055199999831e-02,2.976431511340000592e-03,1.000000000000000000e+00
2.054990704000000168e+00,-2.831342200579999524e+00,2.448770249159999968e-01,-9.373605788980000852e+00,1.753103733059999808e-02,1.536893844599999948e-02,-4.981760866939999831e-05,1.000000000000000000e+00
2.060088637999999861e+00,-2.773804496109999906e+00,4.155203543629999996e-01,-9.423093750250000511e+00,-2.505161100999999703e-03,5.952314473689999767e-03,-2.165882382540000161e-03,1.000000000000000000e+00
2.065193547999999879e+00,-2.840314319320000003e+00,4.400922298330000038e-01,-9.349329425860000597e+00,7.042957935479998884e-03,1.109921559690000073e-02,9.195577353239999668e-03,1.000000000000000000e+00
2.070154915999999901e+00,-2.780503409220000055e+00,4.745355840420000249e-01,-9.328780558830001013e+00,-6.536537548530000101e-04,6.510744802649999149e-03,2.270898222920000181e-02,1.000000000000000000e+00
2.075195787000000180e+00,-2.741036783490000239e+00,3.949824836490000157e-01,-9.314908685339998939e+00,1.280011795459999949e-02,5.734988488260000031e-03,1.302331686020000157e-02,1.000000000000000000e+00
2.080003265000000212e+00,-2.675847395220000369e+00,2.355557091400000136e-01,-9.415661554419999746e+00,6.433174479749999980e-03,7.472006604080000218e-03,2.050087414679999803e-02,1.000000000000000000e+00
2.084958690000000114e+00,-2.661483938830000007e+00,3.835206669799999801e-01,-9.366277638049998799e+00,9.111957624549998913e-03,5.211912095550000172e-03,1.462068967520000103e-02,1.000000000000000000e+00
2.089992876000000166e+00,-2.754849912530000111e+00,5.159327759770000466e-01,-9.353129987189999994e+00,-1.493642665450000025e-02,-4.080593585969999500e-03,1.840961538259999752e-02,1.000000000000000000e+00
2.095201034000000018e+00,-2.771113649589999728e+00,5.860079635260000419e-01,-9.362192999089998580e+00,-2.155706845220000181e-02,-2.746570669109999613e-02,3.411472588779999870e-02,1.000000000000000000e+00
2.099999621999999899e+00,-2.736359731590000344e+00,6.006800109459999870e-01,-9.322486427119999419e+00,-1.436609588560000018e-02,-3.221776336430000331e-02,2.434410899880000076e-02,1.000000000000000000e+00
2.104958166999999936e+00,-2.798611020579999664e+00,3.239759700670000186e-01,-9.289389044159999997e+00,-6.452892906960000161e-03,-1.110236067320000131e-02,2.394548803569999940e-02,1.000000000000000000e+00
2.110202232999999872e+00,-2.770283043980000137e+00,2.515639553340000001e-01,-9.397133379560001387e+00,-1.194177474829999884e-02,-3.753746626900000306e-03,2.482629567380000013e-02,1.000000000000000000e+00
2.115001809999999871e+00,-2.667629601969999875e+00,3.759124204659999857e-01,-9.414387881230000588e+00,-1.703469268979999895e-02,-1.123879756779999975e-02,2.988367713990000216e-02,1.000000000000000000e+00
2.119963749000000064e+00,-2.732598917749999856e+00,3.169527934310000239e-01,-9.381104620300000363e+00,-5.250380188230000661e-02,-2.498282678429999959e-02,3.591504320499999681e-02,1.000000000000000000e+00
2.124989030000000056e+00,-2.726202202450000112e+00,3.174016697100000006e-01,-9.473663077010000322e+00,-4.611419886350000275e-02,-2.986809797589999940e-02,3.001673333349999875e-02,1.000000000000000000e+00
2.129989461000000084e+00,-2.836654043249999813e+00,4.071699111800000104e-01,-9.438820896210000200e+00,-5.916474014519999824e-02,-3.874067962169999713e-02,4.402141645549999260e-02,1.000000000000000000e+00
2.135198340000000083e+00,-2.845229563889999813e+00,3.892709376019999890e-01,-9.311959772410000724e+00,-5.209563672539999774e-02,-3.811271488669999707e-02,5.755575001240000044e-02,1.000000000000000000e+00
2.140264533999999941e+00,-2.732538419740000446e+00,3.915119579940000150e-01,-9.313025355810001571e+00,-5.469072982670000055e-02,-2.669133804739999907e-02,3.193360939619999811e-02,1.000000000000000000e+00
2.145155734999999897e+00,-2.867156149019999933e+00,5.474675857949999891e-01,-9.319738589720000022e+00,-5.785521492359999712e-02,-2.634393237529999987e-02,4.755596444009999729e-02,1.000000000000000000e+00
2.149966556999999945e+00,-2.782089217109999790e+00,6.667641926309999523e-01,-9.389340533729999549e+00,-7.050172984600000525e-02,-1.624092832210000115e-02,5.363119021060000491e-02,1.000000000000000000e+00
2.154986559000000135e+00,-2.705633753939999941e+00,6.508890164980000170e-01,-9.420227254900000347e+00,-8.201445639130000576e-02,-2.522368729109999638e-02,4.129214584830000201e-02,1.000000000000000000e+00
2.160206458000000218e+00,-2.837235642530000046e+00,6.147651253239999614e-01,-9.363018343989999437e+00,-5.649355426429999993e-02,-2.736316993829999988e-02,5.985054746270000031e-02,1.000000000000000000e+00
2.165150022000000174e+00,-2.685345875929999959e+00,4.515657369409999955e-01,-9.345927508460000865e+00,-6.985710561279999398e-02,-3.520486131309999434e-02,5.638622120019999573e-02,1.000000000000000000e+00
2.170173822000000197e+00,-2.685941503729999624e+00,4.175205882699999926e-01,-9.432675233069998555e+00,-7.611798495049999780e-02,-5.169035866859999356e-02,5.161406099799999841e-02,1.000000000000000000e+00
2.175200767000000202e+00,-2.647945242820000100e+00,4.229959509410000096e-01,-9.453020686480000379e+00,-7.250674068930000604e-02,-4.126750677819999991e-02,6.958047300580000316e-02,1.000000000000000000e+00
2.180005668000000174e+00,-2.597868668009999826e+00,4.632209938229999713e-01,-9.487259056170000093e+00,-8.940496295689999429e-02,-5.011923238640000194e-02,5.070580542090000892e-02,0.000000000000000000e+00
2.185000006000000106e+00,-2.709977920620000535e+00,3.402927890190000082e-01,-9.553085573300000632e+00,-1.016649305820000043e-01,-5.417390540239999663e-02,6.655154377220000306e-02,0.000000000000000000e+00
2.189989952999999989e+00,-2.743670346870000554e+00,4.373953554320000325e-01,-9.488933126860001011e+00,-1.092845126989999971e-01,-5.297354608769999640e-02,7.118759304289999645e-02,0.000000000000000000e+00
2.194996439000000077e+00,-2.748297129879999634e+00,6.389259723080000786e-01,-9.452982692560000899e+00,-1.232542023059999964e-01,-5.960316583510000266e-02,4.999723285439999776e-02,0.000000000000000000e+00
2.199966417999999813e+00,-2.854412402779999969e+00,8.448734923109999517e-01,-9.456430787180000408e+00,-1.379031985999999987e-01,-7.893834263089999359e-02,5.474137514830000606e-02,0.000000000000000000e+00
2.204947066999999983e+00,-2.918766217009999941e+00,9.850335850859999187e-01,-9.369594799770000648e+00,-1.356069445610000035e-01,-1.094455271959999948e-01,5.824020877480000358e-02,0.000000000000000000e+00
2.210193134999999920e+00,-2.967749735890000018e+00,8.597238554399999622e-01,-9.307137466819998650e+00,-1.264645457269999995e-01,-8.731795847419999979e-02,5.339582264420000141e-02,0.000000000000000000e+00
2.215178206000000039e+00,-2.994649725509999971e+00,8.029341928560000952e-01,-9.268775295199999320e+00,-1.091281473640000055e-01,-7.566241174939999925e-02,6.610894203190000040e-02,0.000000000000000000e+00
2.220159910000000014e+00,-2.894243185650000161e+00,1.009687987739999793e+00,-9.272916632789998559e+00,-1.087473109359999995e-01,-9.580073505640000764e-02,5.313542485240000529e-02,0.000000000000000000e+00
2.225203711999999889e+00,-2.916680642910000287e+00,1.082723559470000207e+00,-9.355715327500000456e+00,-1.168173104520000005e-01,-6.254859268670000250e-02,5.082350596790000119e-02,0.000000000000000000e+00
2.230123364000000219e+00,-2.908230502209999457e+00,9.503436722379999813e-01,-9.390904714310000401e+00,-9.389787167310001403e-02,-7.236275076869999601e-02,5.038855969909999261e-02,0.000000000000000000e+00
2.235188506000000075e+00,-2.862726349879999965e+00,6.087246030510000683e-01,-9.401573407839999064e+00,-9.993813931939998785e-02,-7.712080329659999622e-02,4.772467166190000332e-02,0.000000000000000000e+00
2.240202982000000009e+00,-2.863786088059999901e+00,4.764925267960000155e-01,-9.416693820080000776e+00,-8.216603100300000351e-02,-8.631612360480001023e-02,5.548110976819999735e-02,0.000000000000000000e+00
2.244914934000000084e+00,-2.929328235290000304e+00,4.938918072230000234e-01,-9.365440602699999673e+00,-9.338029474020000109e-02,-8.039443194869999587e-02,5.355336517099999749e-02,0.000000000000000000e+00
2.249994119000000126e+00,-2.895475942310000050e+00,6.626902211899999839e-01,-9.348447966849999347e+00,-1.068278253080000018e-01,-1.119809821250000031e-01,7.061369717119998779e-02,0.000000000000000000e+00
2.254954346999999970e+00,-2.908601965869999972e+00,8.047706145029999147e-01,-9.323062181180000962e+00,-1.367321014400000034e-01,-1.193608567120000019e-01,4.983485490080000191e-02,0.000000000000000000e+00
2.260200750000000092e+00,-2.913800119029999802e+00,6.661860274170000595e-01,-9.370196272799999448e+00,-1.284284591669999920e-01,-1.181960701940000108e-01,5.978020653130000639e-02,0.000000000000000000e+00
2.265213038000000179e+00,-2.875414274279999738e+00,6.192828950100000007e-01,-9.415020333910000261e+00,-1.204560622570000072e-01,-1.081850081680000020e-01,6.799002736810000336e-02,0.000000000000000000e+00
2.270163430000000204e+00,-2.910122599559999745e+00,6.774935303069999915e-01,-9.449401326939998569e+00,-1.012393683200000088e-01,-1.042375341059999933e-01,6.197402253749999951e-02,0.000000000000000000e+00
2.275200637999999831e+00,-3.010822277149999948e+00,6.746260851119999513e-01,-9.396130924519999539e+00,-1.113586649299999898e-01,-9.388987720010001647e-02,7.318747043610000780e-02,0.000000000000000000e+00
2.280178242999999938e+00,-2.993398556409999856e+00,7.711828907430000601e-01,-9.371787341379999248e+00,-1.172580122949999915e-01,-1.009852215650000051e-01,7.575165480380000038e-02,0.000000000000000000e+00
2.285188645999999935e+00,-2.933684969200000214e+00,9.757963856630000876e-01,-9.351810721279999683e+00,-1.058223918080000020e-01,-1.133694574239999947e-01,6.911251693960000775e-02,0.000000000000000000e+00
2.290054789000000035e+00,-2.810105351280000274e+00,9.479808886289999847e-01,-9.361793186110000775e+00,-9.730279445650000247e-02,-9.471721202140000184e-02,5.225262790919999595e-02,0.000000000000000000e+00
2.294998221000000171e+00,-2.908356466669999918e+00,8.763095909950000539e-01,-9.421560549330001422e+00,-8.904563635590000137e-02,-9.804140776399999924e-02,5.492281168700000049e-02,0.000000000000000000e+00
2.300210418999999895e+00,-2.940582912020000439e+00,1.150646975809999972e+00,-9.342975672919999752e+00,-7.467172294860001391e-02,-9.843112528319999943e-02,6.297035515309999665e-02,0.000000000000000000e+00
2.305023158000000016e+00,-3.038393590170000103e+00,1.437990045729999888e+00,-9.191392780310000177e+00,-6.342919915910000261e-02,-8.624468743799999781e-02,4.168864712119999677e-02,1.000000000000000000e+00
2.309985100000000013e+00,-3.191040897139999721e+00,1.543342225299999981e+00,-9.156850459239999296e+00,-6.022873148319999453e-02,-8.620701730249999417e-02,4.424728825690000394e-02,1.000000000000000000e+00
2.315199663000000019e+00,-3.064322104409999969e+00,1.750373302759999916e+00,-9.112082512229999764e+00,-3.888256475330000017e-02,-8.554155379529999881e-02,2.848142758009999942e-02,1.000000000000000000e+00
2.320157178000000098e+00,-3.094964203170000427e+00,1.849961511979999917e+00,-9.154246998739999697e+00,2.569528762250000275e-03,-6.480450928209999240e-02,2.296489849690000126e-02,1.000000000000000000e+00
2.325204820999999811e+00,-3.035798312979999913e+00,1.619861985880000077e+00,-9.210227244640000421e+00,5.231196805829999713e-02,-6.533747166400000195e-02,-6.168189458550000191e-03,1.000000000000000000e+00
2.330141344999999919e+00,-3.020769086150000060e+00,1.400168118470000111e+00,-9.286386939730000734e+00,8.405456691980001116e-02,-3.233792632819999791e-02,-1.865773089229999862e-02,0.000000000000000000e+00
2.335173333000000184e+00,-2.782416841629999915e+00,1.223510551970000027e+00,-9.393653720750000602e+00,1.243326663969999968e-01,-2.889633364980000174e-02,-2.800259366630000052e-02,0.000000000000000000e+00
2.340238395000000082e+00,-2.728184608440000325e+00,1.085076771530000039e+00,-9.562356674989999306e+00,1.107728928329999862e-01,-2.827336080369999977e-02,-3.891841694709999994e-02,0.000000000000000000e+00
2.345199791999999839e+00,-2.691763049500000005e+00,9.804685421930000588e-01,-9.532181316960000927e+00,1.149948015809999918e-01,-7.374268770219999380e-02,-4.055473580959999963e-02,0.000000000000000000e+00
2.350214863999999793e+00,-2.762000953329999842e+00,7.898661830990000299e-01,-9.471649983629999880e+00,1.217686608430000039e-01,-8.360730856660000820e-02,-6.031770631669999827e-02,0.000000000000000000e+00
2.355060091999999994e+00,-3.001063684210000027e+00,7.414438783010000034e-01,-9.350430665099999317e+00,1.382814049720000049e-01,-8.804263174529999847e-02,-2.737427502870000071e-02,0.000000000000000000e+00
2.360233946000000138e+00,-2.951756047940000460e+00,5.419293139549999916e-01,-9.329958370439999982e+00,1.309607476000000104e-01,-8.784762769939999383e-02,-3.947804868219999264e-02,0.000000000000000000e+00
2.365450920999999873e+00,-3.050374827599999783e+00,4.116708393280000267e-01,-9.294551541489999735e+00,1.328556239600000022e-01,-9.630593657489999737e-02,-4.075313359499999760e-02,0.000000000000000000e+00
2.370204531999999809e+00,-3.005747750369999860e+00,4.682024720300000387e-01,-9.331534241449999101e+00,1.330005675550000044e-01,-8.026939630510000756e-02,-3.021291084590000189e-02,0.000000000000000000e+00
2.375213448999999866e+00,-3.111838473349999745e+00,5.472758626150000527e-01,-9.292083105549998834e+00,1.080666333440000043e-01,-8.781894296410000522e-02,2.190716098989999895e-03,0.000000000000000000e+00
2.380158295999999840e+00,-3.042719052149999825e+00,5.179175931180000081e-01,-9.250002790189999047e+00,1.015514731409999927e-01,-7.435248792169998899e-02,-2.659792313350000260e-03,1.000000000000000000e+00
2.385226353000000188e+00,-3.036217415170000322e+00,5.914460629269999714e-01,-9.273336319500000258e+00,6.386498361830000858e-02,-6.248100474480000610e-02,-8.413447067140001137e-03,1.000000000000000000e+00
2.390106680999999789e+00,-3.105749216559999581e+00,8.277962469120000444e-01,-9.200604260769999598e+00,7.254289090630000603e-02,-5.320755019780000483e-02,-7.784546352920000342e-03,1.000000000000000000e+00
2.395042617000000096e+00,-3.098538846790000356e+00,8.555668818909999418e-01,-9.154190884640000192e+00,7.524902373549999246e-02,-5.968914180990000234e-02,-1.236725784839999912e-02,1.000000000000000000e+00
2.400022642000000150e+00,-3.125610101329999946e+00,5.587498081139999906e-01,-9.221679197500000313e+00,8.269500732419998723e-02,-5.227779969569999741e-02,4.439106211069999974e-03,1.000000000000000000e+00
2.405011431999999783e+00,-3.055554860590000033e+00,4.265934274440000284e-01,-9.229538094310001384e+00,7.393915206189999312e-02,-3.297297656540000566e-02,-6.419127807020000472e-03,1.000000000000000000e+00
2.410251831000000067e+00,-3.080537033889999776e+00,3.170388642800000545e-01,-9.233079127919999962e+00,6.810060143469999494e-02,-1.085168961439999906e-02,8.588097989559999312e-03,1.000000000000000000e+00
2.415025595999999997e+00,-3.175297969079999838e+00,3.929077962670000090e-01,-9.158521607319999092e+00,5.053145065899999899e-02,-1.847393577919999958e-03,3.116477467120000108e-02,1.000000000000000000e+00
2.420049940000000177e+00,-3.079624010699999914e+00,3.748969963449999554e-01,-9.160798904600000014e+00,1.299570221450000070e-02,-4.487446974959999856e-03,2.615936473009999874e-02,1.000000000000000000e+00
2.425278929000000083e+00,-3.108706312799999871e+00,2.664378089369999758e-01,-9.194035988299999573e+00,8.523861877619999874e-03,2.179012401030000143e-03,2.589193359019999890e-02,1.000000000000000000e+00
2.430217069999999868e+00,-3.143466660540000124e+00,5.770230583640000299e-01,-9.176175921960000537e+00,-7.735668681560000509e-03,2.807495929299999929e-02,4.654999077320000345e-02,1.000000000000000000e+00
2.435213253000000133e+00,-3.187464207699999719e+00,7.464751504659999926e-01,-9.151982560940000511e+00,-2.067620866000000057e-02,2.677272260190000433e-02,4.165120422840000447e-02,1.000000000000000000e+00
2.439993408999999946e+00,-3.215160900659999932e+00,6.598216800159999451e-01,-9.134442812599999684e+00,-2.004709653559999874e-02,5.680603906510000439e-02,4.714845493440000118e-02,1.000000000000000000e+00
2.445032016999999946e+00,-3.176696145440000230e+00,6.629561786500000053e-01,-9.166738816049999627e+00,-2.384163625539999914e-02,7.714339345689999461e-02,5.499076470730000082e-02,1.000000000000000000e+00
2.450012438999999986e+00,-3.007855244040000375e+00,3.700781978869999711e-01,-9.267230988370000588e+00,-1.804870925840000237e-02,8.064247667789999074e-02,6.022018566730000244e-02,1.000000000000000000e+00
2.455018587000000085e+00,-2.938356175880000087e+00,4.079560200559999572e-01,-9.392726669039999976e+00,-4.311505705120000087e-02,7.268197834489999176e-02,7.101450115440000044e-02,0.000000000000000000e+00
2.460228224000000186e+00,-2.861490086079999884e+00,4.711398406570000419e-01,-9.493616316239998909e+00,-5.469365045429999683e-02,6.972721964120000282e-02,6.738864630459999450e-02,0.000000000000000000e+00
2.464996053000000131e+00,-2.880934791260000072e+00,3.357193436240000217e-01,-9.475737545199999445e+00,-7.771848142149999361e-02,6.880661845210001015e-02,7.014074176550000317e-02,0.000000000000000000e+00
2.470017377000000014e+00,-2.956684444249999988e+00,3.816199844569999611e-01,-9.408311191659999295e+00,-6.469359248879999469e-02,7.057752460239999359e-02,9.493269771339998830e-02,0.000000000000000000e+00
2.475221481000000168e+00,-3.011193448550000262e+00,7.446803029390000050e-01,-9.418725618169998981e+00,-9.565366804600000661e-02,6.776407361029999910e-02,9.618501365180000262e-02,0.000000000000000000e+00
2.480197321999999982e+00,-2.967085426760000200e+00,8.260038836030000331e-01,-9.349069313619999377e+00,-9.097474068399999392e-02,6.750924885270000175e-02,9.829129278660000968e-02,0.000000000000000000e+00
2.485209960999999801e+00,-3.013914105690000067e+00,8.476112467120000549e-01,-9.358858886230001062e+00,-7.510786503550000159e-02,6.385065615180000875e-02,8.416606485840000262e-02,0.000000000000000000e+00
2.490000724999999804e+00,-3.037919250659999904e+00,7.701152615119999378e-01,-9.225850345710000511e+00,-7.594401389360000421e-02,7.516353577379999984e-02,1.025929227470000066e-01,0.000000000000000000e+00
2.495018508999999884e+00,-3.043978696819999996e+00,8.770056834999999662e-01,-9.270148921639998818e+00,-6.604950129990000418e-02,9.558981657029999579e-02,9.259926527739999191e-02,0.000000000000000000e+00
2.500197421000000197e+00,-3.108250093470000142e+00,1.002697398200000034e+00,-9.324128933629999949e+00,-6.884994357819999855e-02,1.051201596859999976e-01,1.047598123550000093e-01,0.000000000000000000e+00
2.504992292999999925e+00,-2.974873304159999954e+00,6.356310954810000524e-01,-9.354905180170000278e+00,-6.332041323180000181e-02,9.618508815770000775e-02,1.117417067290000093e-01,0.000000000000000000e+00
2.510249631999999842e+00,-2.996910071659999897e+00,6.628218116800000947e-01,-9.381990755489999501e+00,-5.979844182730000707e-02,1.105379685759999980e-01,1.204072162509999960e-01,0.000000000000000000e+00
2.515197050999999906e+00,-2.951013412880000075e+00,6.913117008450000434e-01,-9.359220120750000760e+00,-7.977122068410000266e-02,1.293734908099999914e-01,1.419642865659999920e-01,0.000000000000000000e+00
2.519999324000000041e+00,-2.952188301879999699e+00,7.044837554979999084e-01,-9.378696974640000406e+00,-8.239766210320000062e-02,1.186727434400000059e-01,1.275679469109999853e-01,0.000000000000000000e+00
2.525225032999999897e+00,-2.945138967890000181e+00,6.658061612539999397e-01,-9.418772379920000049e+00,-9.705463796850000158e-02,1.331959068779999811e-01,1.476661115879999986e-01,0.000000000000000000e+00
2.530186259000000160e+00,-2.843115055959999360e+00,6.586109159870000562e-01,-9.789542213329999853e+00,-1.123139709229999950e-01,1.277371942999999954e-01,1.749780774119999993e-01,0.000000000000000000e+00
2.535237760999999868e+00,-2.678605461760000139e+00,5.082408697670000031e-01,-9.526820666709999941e+00,-1.127754151820000023e-01,1.192735806110000046e-01,1.742735207079999793e-01,0.000000000000000000e+00
2.540088966999999975e+00,-2.761525737029999927e+00,5.038006953629999840e-01,-9.668259181919999889e+00,-1.029177382589999967e-01,8.898367732760001370e-02,1.655607521530000070e-01,0.000000000000000000e+00
2.545045892000000087e+00,-2.801997740410000048e+00,2.499930344889999823e-01,-9.578457914960001318e+00,-1.158895269040000064e-01,7.423287630079999921e-02,1.828622817990000204e-01,0.000000000000000000e+00
2.549988657000000103e+00,-2.599172736339999901e+00,5.627875757300000448e-01,-9.652304072419999770e+00,-1.263857483860000019e-01,7.698326557869999975e-02,1.803489029410000055e-01,0.000000000000000000e+00
2.555010660000000211e+00,-2.597595696279999977e+00,5.442294075910000251e-01,-9.853891059119998630e+00,-1.474104970690000016e-01,2.507067471739999817e-02,1.998147666450000304e-01,0.000000000000000000e+00
2.559988759999999974e+00,-2.284154600770000432e+00,2.462976140370000122e-01,-1.007708723559999875e+01,-1.612460911270000019e-01,-1.138201262799999960e-02,2.031437307599999742e-01,0.000000000000000000e+00
2.565187295999999950e+00,-2.201580070190000349e+00,-6.673984628130000263e-02,-1.033534654209999992e+01,-1.766944676639999878e-01,-6.462771445510000212e-02,2.139831781390000021e-01,0.000000000000000000e+00
2.570098933999999780e+00,-2.480397888359999747e+00,6.673403302849999219e-02,-1.026732222269999895e+01,-1.956953555350000040e-01,-8.226295560599999890e-02,2.456654161210000131e-01,0.000000000000000000e+00
2.575185804999999828e+00,-2.312016421160000057e+00,5.605570767309999702e-01,-1.022907812450000087e+01,-2.431302666659999889e-01,-1.277655512089999890e-01,2.115172594790000193e-01,0.000000000000000000e+00
2.580036354999999837e+00,-2.261433504259999783e+00,1.148775336719999984e+00,-1.024519105489999937e+01,-2.759567499159999993e-01,-2.063170820470000000e-01,2.133921682830000055e-01,0.000000000000000000e+00
2.585011136999999959e+00,-2.025822229010000086e+00,1.076219803589999913e+00,-1.031056865919999943e+01,-2.848720550539999841e-01,-2.738884687420000130e-01,1.837209761140000119e-01,0.000000000000000000e+00
2.590010747000000002e+00,-2.006226571050000018e+00,9.425283953769999501e-01,-1.048499466720000051e+01,-2.763463258739999873e-01,-3.319166898729999926e-01,1.654939800500000169e-01,0.000000000000000000e+00
2.594972713999999847e+00,-2.143741629209999555e+00,1.071347302189999962e+00,-1.048315342330000099e+01,-2.673753798009999572e-01,-3.889742195610000342e-01,1.693010479210000085e-01,0.000000000000000000e+00
2.600213806000000183e+00,-1.237686669099999914e+00,2.961255661159999941e-01,-1.169962063260000029e+01,-2.302804738280000152e-01,-4.599305391309999602e-01,1.987689286470000205e-01,0.000000000000000000e+00
2.605185781999999950e+00,-1.921692869229999712e+00,1.267905574010000036e+00,-1.029042954200000004e+01,-2.166040390729999932e-01,-5.080033540730000130e-01,1.161376237869999883e-01,0.000000000000000000e+00
2.610206420999999999e+00,-1.502183993220000069e+00,3.909432181960000308e-01,-1.184436929529999993e+01,-1.463949233290000040e-01,-6.575832962990000308e-01,1.514549702409999921e-01,0.000000000000000000e+00
2.615180279000000052e+00,-1.865498980590000189e+00,7.412499631640000475e-01,-1.211418459959999971e+01,-1.935843974350000274e-01,-7.545469403269999820e-01,1.240669116379999881e-01,0.000000000000000000e+00
2.620172338999999795e+00,-1.698284219079999824e+00,3.183257622850000357e-01,-1.220008009130000026e+01,-2.164930999280000046e-01,-8.390446305269999572e-01,1.697890758509999765e-01,0.000000000000000000e+00
2.625211294000000084e+00,-1.448094091120000204e+00,3.595766776169999623e-01,-1.261820379650000135e+01,-2.483041137460000047e-01,-1.013127326970000075e+00,1.365754306320000055e-01,0.000000000000000000e+00
2.630193787000000061e+00,-1.390960583529999850e+00,1.475700859039999762e-04,-1.291071140960000108e+01,-2.742162942890000177e-01,-1.195359706879999928e+00,8.416923880580000350e-02,0.000000000000000000e+00
2.635189737999999782e+00,-1.892433164740000118e+00,-3.968762067080000566e-02,-1.314777010719999950e+01,-3.433911502359999757e-01,-1.398820281029999890e+00,8.153767883780001224e-02,0.000000000000000000e+00
2.640206296000000119e+00,-1.799038257209999880e+00,-2.212570433430000039e-01,-1.334420687150000084e+01,-3.776985108850000050e-01,-1.543853521349999980e+00,7.058279961350000242e-02,0.000000000000000000e+00
2.645191650000000116e+00,-1.711549066590000168e+00,-1.251147367969999979e-01,-1.348695997650000145e+01,-4.152030348780000324e-01,-1.714835882189999827e+00,4.097867757080000256e-02,0.000000000000000000e+00
2.650032459000000173e+00,-1.678287432970000159e+00,-4.398033664220000194e-01,-1.354340842440000081e+01,-4.322909414769999792e-01,-1.908294320109999775e+00,2.386494167150000206e-02,0.000000000000000000e+00
2.655020524999999854e+00,-1.873290365109999689e+00,-1.141864096020000163e+00,-1.334099784630000052e+01,-4.634298682209999631e-01,-2.055517196659999879e+00,5.910692363979999642e-02,0.000000000000000000e+00
2.660214700000000043e+00,-2.120476635090000173e+00,-1.767992984469999973e+00,-1.339524498479999970e+01,-5.390573143960000202e-01,-2.206914186480000151e+00,6.338746100660000438e-02,0.000000000000000000e+00
2.665072244000000090e+00,-1.996115657529999865e+00,-2.711845468059999931e+00,-1.367787768510000035e+01,-6.650704145429999770e-01,-2.376422166820000292e+00,8.551936596629999832e-02,0.000000000000000000e+00
2.670055066000000199e+00,-2.545890351230000181e+00,-3.869881531209999892e+00,-1.353964293439999977e+01,-8.823583126070000393e-01,-2.553556680679999857e+00,1.546134501699999997e-01,0.000000000000000000e+00
2.675228864999999789e+00,-3.387879520270000278e+00,-4.715523377540000283e+00,-1.319838385759999966e+01,-1.074115633959999982e+00,-2.717491626740000221e+00,2.242211103440000242e-01,0.000000000000000000e+00
2.680144757999999960e+00,-3.927416313069999720e+00,-6.080684772300000596e+00,-1.336700673240000015e+01,-1.369346261020000011e+00,-2.815853118899999785e+00,3.180324435229999747e-01,0.000000000000000000e+00
2.685202172999999970e+00,-5.119052740259999901e+00,-6.752082981400000072e+00,-1.301247199440000024e+01,-1.674198865889999777e+00,-2.869050264359999769e+00,5.237054824829999733e-01,0.000000000000000000e+00
2.690026695999999884e+00,-6.468261948130001215e+00,-6.083961017490000955e+00,-1.302801443150000082e+01,-1.919941663740000193e+00,-2.846731662749999892e+00,7.755483388899999664e-01,0.000000000000000000e+00
2.694975188999999993e+00,-9.243709242999999631e+00,-5.941079317729999865e+00,-1.291183836779999972e+01,-2.075629472730000202e+00,-2.716395854950000022e+00,1.040987372400000055e+00,0.000000000000000000e+00
2.700203294000000032e+00,-1.293060619660000121e+01,-5.448251961399999566e+00,-1.260393678619999847e+01,-2.026380538940000253e+00,-2.522228002549999903e+00,1.305346131320000103e+00,0.000000000000000000e+00
2.705101969000000217e+00,-1.443644681269999985e+01,-4.340840754599999407e+00,-1.087284364579999973e+01,-1.701128602029999826e+00,-2.269651651379999802e+00,1.583706378939999881e+00,0.000000000000000000e+00
2.710228120000000018e+00,-1.469897546710000036e+01,-2.980158843339999919e+00,-9.181454154620000807e+00,-1.260353446010000100e+00,-1.891341328620000262e+00,1.881078839299999972e+00,0.000000000000000000e+00
2.715118522000000034e+00,-1.301123280799999904e+01,-3.383824691920000127e+00,-7.716983659850000343e+00,-8.249768018719999541e-01,-1.351091027260000077e+00,2.159470081329999847e+00,0.000000000000000000e+00
2.720033094000000151e+00,-1.293716336319999982e+01,-5.740062824389999818e+00,-7.173723170349999734e+00,-4.909467995170000432e-01,-8.289524912829999703e-01,2.371587276460000115e+00,0.000000000000000000e+00
2.725248165000000000e+00,-1.299091248900000117e+01,-8.296234331129999973e+00,-8.208191306019999800e+00,-3.525676429269999912e-01,-4.256880283360000017e-01,2.518874883650000118e+00,0.000000000000000000e+00
2.730186140999999900e+00,-1.952214381130000120e+01,-1.048559906290000043e+01,-8.755713544610001620e+00,-6.463629603389999811e-01,-2.738736867900000149e-01,2.199996948239999917e+00,0.000000000000000000e+00
2.735035730999999970e+00,-2.894743419479999957e+01,-3.944645972550000046e+00,-1.327801911989999972e+01,-1.140208244320000119e+00,-3.514994978900000677e-01,1.092621207239999892e+00,0.000000000000000000e+00
2.740021803999999950e+00,-2.502716044699999642e+01,-4.289689244030000737e+00,-1.573671926339999949e+01,-1.468833565710000011e+00,1.739181280139999730e-01,2.083137333389999957e-01,0.000000000000000000e+00
2.745016789000000124e+00,-1.851462798000000021e+01,-1.228953064509999926e+01,-1.224010113599999983e+01,-1.416792035099999847e+00,7.250223755840000672e-01,-6.152056455609999919e-01,0.000000000000000000e+00
2.750215132000000118e+00,-1.651494001689999891e+01,-1.097487544869999887e+01,-9.987238037819999192e+00,-1.000018596650000147e+00,2.162608861919999903e+00,-7.215473055840000427e-01,0.000000000000000000e+00
2.755026448999999822e+00,-1.387046361920000059e+01,-8.401749884570000049e+00,-8.208036407719999872e+00,-9.385099411010000559e-01,3.001867532729999954e+00,-3.462114036079999568e-01,0.000000000000000000e+00
2.760020158000000112e+00,-1.219441373609999957e+01,-6.728043934169999574e+00,-6.710213093919999316e+00,-9.685027003290000991e-01,3.276012897490000242e+00,3.344002366070000232e-01,0.000000000000000000e+00
2.765111609999999942e+00,-1.071752682730000039e+01,-2.601404148659999915e+00,-4.654375081359999555e+00,-1.021993398670000053e+00,3.171390533450000326e+00,7.138112187389999974e-01,0.000000000000000000e+00
2.770025283999999921e+00,-8.548158004890000328e+00,-1.694580980650000068e+00,-4.584276293740000341e+00,-8.238659501080000114e-01,2.602893352509999758e+00,8.474128842350000523e-01,0.000000000000000000e+00
2.775247922000000145e+00,-7.676403227660000717e+00,-2.970141599459999782e+00,-5.998142682690000171e+00,-5.620042681689999542e-01,2.048989534379999977e+00,8.805986642839999101e-01,0.000000000000000000e+00
2.779996480999999964e+00,-9.352432068049999714e+00,-2.254277933420000046e+00,-6.813627291169999545e+00,-3.452218770979999518e-01,1.824341654779999766e+00,9.600816965100000822e-01,0.000000000000000000e+00
2.785022236000000095e+00,-8.890107402010000825e+00,-1.663978483249999973e+00,-4.645723865129999908e+00,-1.454813182349999900e-01,1.600624084469999930e+00,8.885560631749999105e-01,0.000000000000000000e+00
2.790096024999999980e+00,-8.868089631469999290e+00,-1.980356216740000175e+00,-5.396424159010000388e+00,-4.642104357480000831e-02,1.348418712620000015e+00,8.901769518850000118e-01,0.000000000000000000e+00
2.794939858000000221e+00,-8.204777698189998247e+00,-3.362604209240000142e+00,-5.737040261699999810e+00,1.436830461030000061e-01,1.348503708840000037e+00,8.224599361419999699e-01,0.000000000000000000e+00
2.799970386000000033e+00,-7.711161821830001095e+00,-4.178009322739999476e+00,-5.949477728239999763e+00,3.307610750199999616e-01,1.435483574870000112e+00,8.392236828800000437e-01,0.000000000000000000e+00
2.805008320000000221e+00,-7.348684015939999981e+00,-4.711524078770000123e+00,-6.170476686900000729e+00,4.676814973349999738e-01,1.438651323320000230e+00,8.278566002850000771e-01,0.000000000000000000e+00
2.810251811000000099e+00,-5.717606077910000195e+00,-4.399331522009999773e+00,-5.870038865349999746e+00,5.534675121309999835e-01,1.364204168320000132e+00,6.134131550789999610e-01,0.000000000000000000e+00
2.815023604999999929e+00,-4.510632965380000137e+00,-4.441059955190000075e+00,-6.137517835630000640e+00,5.347040891650000072e-01,1.109763145450000099e+00,3.088328540329999816e-01,0.000000000000000000e+00
2.820014727999999860e+00,-3.313209771479999954e+00,-4.057627624090000218e+00,-6.213230956000000305e+00,5.856676697729999992e-01,8.215108513830000625e-01,-8.604324609039999683e-02,0.000000000000000000e+00
2.825264624999999974e+00,-3.718896604489999813e+00,-3.779625798480000576e+00,-6.097029173380000167e+00,5.802006125449999940e-01,5.392804145809999561e-01,-4.236153066159999980e-01,0.000000000000000000e+00
2.830038077000000207e+00,-3.604032207950000011e+00,-3.094205493760000092e+00,-6.037097559509999378e+00,6.263959407810000268e-01,2.607812285420000320e-01,-7.856562733649999908e-01,0.000000000000000000e+00
2.835042200000000179e+00,-3.811000887690000116e+00,-2.219795818100000151e+00,-5.802027989920000017e+00,6.613265872000000378e-01,5.014930665490000689e-02,-1.109436035160000111e+00,0.000000000000000000e+00
2.840036925000000156e+00,-3.718257137540000201e+00,-1.370331636999999825e+00,-5.762934581410000590e+00,7.549690008159999355e-01,-7.705307751889999002e-02,-1.453636288639999830e+00,0.000000000000000000e+00
2.845014780000000076e+00,-3.848803671859999831e+00,-3.982139398510000095e-01,-5.473733024140000403e+00,8.185275197030000838e-01,-1.771828830240000097e-01,-1.753755331040000032e+00,0.000000000000000000e+00
2.850014873000000115e+00,-3.464175993490000494e+00,4.434183055160000331e-01,-5.209074956490000297e+00,8.985861539839999912e-01,-2.887732982640000001e-01,-2.014807701109999627e+00,0.000000000000000000e+00
2.855034423000000210e+00,-2.902443735499999899e+00,1.212619228659999937e+00,-5.134906142950000252e+00,9.923213124279999242e-01,-4.219876825810000565e-01,-2.241437196729999748e+00,0.000000000000000000e+00
2.860227588999999959e+00,-2.826305375450000046e+00,1.533219767479999884e+00,-5.101199688180000358e+00,1.043808460239999958e+00,-6.171307563779999672e-01,-2.382709026340000147e+00,0.000000000000000000e+00
2.865236013000000082e+00,-2.864401881879999667e+00,1.650435257189999838e+00,-5.277863830560000302e+00,1.085013747220000102e+00,-7.889059185979999667e-01,-2.473436117169999893e+00,0.000000000000000000e+00
2.870190705000000175e+00,-3.030041649150000183e+00,1.815799860790000331e+00,-5.439371904849999773e+00,1.049793243410000132e+00,-9.780232906339999532e-01,-2.511590003970000318e+00,0.000000000000000000e+00
2.875250727000000062e+00,-3.498207442430000480e+00,2.140166254940000012e+00,-5.622590875700000268e+00,1.011472463610000094e+00,-1.061810374260000023e+00,-2.485581874850000261e+00,0.000000000000000000e+00
2.880034258999999874e+00,-3.918356808299999994e+00,2.148156376909999832e+00,-5.813523781919998967e+00,9.329149127010000209e-01,-1.096671462059999991e+00,-2.433495283130000075e+00,0.000000000000000000e+00
2.885014686999999967e+00,-4.053434848570000248e+00,2.276773696740000297e+00,-5.813218661490000549e+00,8.330079913140000514e-01,-1.049757242199999885e+00,-2.336130380629999781e+00,0.000000000000000000e+00
2.890017818000000016e+00,-4.035751015580000711e+00,2.807375926320000215e+00,-5.730260976819999463e+00,7.229241132739999687e-01,-9.654003977779999079e-01,-2.162968873980000151e+00,0.000000000000000000e+00
2.895012878000000178e+00,-3.755012458490000427e+00,3.387329777440000189e+00,-5.664505186840000484e+00,6.121269464490000090e-01,-8.794146180149998715e-01,-1.982949256900000012e+00,0.000000000000000000e+00
2.900223226000000043e+00,-3.468080307450000177e+00,4.057495814400000178e+00,-5.319707414549999847e+00,5.550544261930000500e-01,-7.687388658520000195e-01,-1.767642617229999935e+00,0.000000000000000000e+00
2.905021962000000180e+00,-3.033265287369999896e+00,4.744375085749999776e+00,-4.975671858810000181e+00,5.428689718249999352e-01,-6.859461069109999976e-01,-1.600822806360000072e+00,0.000000000000000000e+00
2.910183621999999914e+00,-2.597685712649999701e+00,5.800417632109999388e+00,-4.677822007919999692e+00,5.635953545570000500e-01,-6.896194219589999452e-01,-1.430601835250000065e+00,0.000000000000000000e+00
2.915176037999999803e+00,-2.081471343259999607e+00,6.893373612580000476e+00,-4.268346011750000280e+00,6.166546940799999543e-01,-7.008928656579999084e-01,-1.334289789200000076e+00,0.000000000000000000e+00
2.920029931999999828e+00,-1.917699123420000040e+00,7.107637710030000555e+00,-4.209528204339999746e+00,6.767693758010000504e-01,-7.644292116169999485e-01,-1.272207498550000038e+00,0.000000000000000000e+00
2.925210928999999904e+00,-1.993171128509999779e+00,6.650790598619999550e+00,-4.280664226059999855e+00,7.438179254530000728e-01,-8.101618885989999574e-01,-1.247260451320000074e+00,0.000000000000000000e+00
