t,ax,ay,az,wx,wy,wz,zv
5.106704000000000104e-03,-3.876165433780000225e+00,-9.585407880230000233e-01,-8.940461624719999278e+00,-1.070308592170000038e-02,1.196494884789999977e-02,4.878205247219999721e-03,1.000000000000000000e+00
1.014153999999999924e-02,-3.897413973509999963e+00,-9.717501790120000038e-01,-8.953587063749999686e+00,2.115117851639999966e-03,-4.776643589140000361e-03,1.154849957670000225e-02,1.000000000000000000e+00
1.506232599999999915e-02,-3.857334184319999970e+00,-9.540128622700001504e-01,-8.960071749600000857e+00,6.857136730100000209e-03,6.071778479959998942e-04,4.630520008500000131e-03,1.000000000000000000e+00
2.012249400000000119e-02,-3.886219502539999926e+00,-1.049002272450000106e+00,-8.951486876599998865e+00,7.915737107399999431e-03,2.219606656579999841e-03,-5.304797086860000080e-04,1.000000000000000000e+00
2.503640700000000011e-02,-3.869722248990000057e+00,-1.074669140090000141e+00,-8.882868682929998982e+00,-7.014298345889999342e-03,-1.923956535759999836e-02,-7.945403922350000600e-04,1.000000000000000000e+00
2.995170600000000155e-02,-3.863433085719999660e+00,-1.008770653700000075e+00,-8.968950637100000733e+00,-5.116782849649999503e-04,1.872802618890000246e-03,-9.336654096840001082e-03,1.000000000000000000e+00
3.500884600000000318e-02,-3.949806424049999709e+00,-9.231544173430000777e-01,-8.986418489249999197e+00,5.159148480739999577e-03,4.249460063869999610e-03,7.928671315310000314e-03,1.000000000000000000e+00
4.006271599999999822e-02,-3.886448050599999871e+00,-9.073199385479999712e-01,-8.941348928949999220e+00,-6.756343645969999871e-04,4.730007611220000442e-03,-4.476528614760000302e-03,1.000000000000000000e+00
4.516308599999999812e-02,-3.900059811849999836e+00,-9.622794630949998984e-01,-8.960677314279999806e+00,-1.243961416179999863e-02,1.282712630930000000e-02,1.169932307680000014e-03,1.000000000000000000e+00
5.022517399999999743e-02,-3.854342601289999948e+00,-9.395316247139999799e-01,-8.941870907000000201e+00,8.759533055129999427e-03,1.435589045290000011e-02,-1.444668229670000026e-02,1.000000000000000000e+00
5.505861000000000088e-02,-3.912585531419999541e+00,-9.857591228820000717e-01,-8.932536092419999463e+00,-5.197057500479999176e-03,-3.472641343249999873e-03,-1.171807199720000144e-02,1.000000000000000000e+00
6.002693399999999707e-02,-3.936716348590000081e+00,-9.884208894370000165e-01,-8.955844487289999378e+00,2.046881243589999694e-03,-9.208979085090000100e-03,1.485106814649999989e-02,1.000000000000000000e+00
6.512382699999999525e-02,-3.847765853249999868e+00,-9.644516195020000904e-01,-8.941260081619999411e+00,-1.265373639759999856e-02,-9.892925620079999829e-03,-1.164527516809999927e-02,1.000000000000000000e+00
7.012078700000000386e-02,-3.907841844030000455e+00,-9.692535398909999378e-01,-8.935992370350000158e+00,-5.478149745609999823e-03,1.162135601039999792e-02,5.267544649539999783e-03,1.000000000000000000e+00
7.516415999999999376e-02,-3.879916895269999610e+00,-9.834056916230000667e-01,-8.939432866189999771e+00,5.639249458910000103e-03,2.117776311930000092e-03,-1.353059988469999982e-02,1.000000000000000000e+00
8.013445099999999544e-02,-3.920232539040000574e+00,-9.882488938710000115e-01,-8.943393002000000536e+00,9.428443387149999452e-03,-1.650588586930000143e-02,-4.498939029870000113e-03,1.000000000000000000e+00
8.510329699999999442e-02,-3.911060806070000062e+00,-9.679404845310000116e-01,-8.926144930079999540e+00,-6.741342600439999798e-03,3.601102624090000287e-03,8.589047007260000588e-03,1.000000000000000000e+00
9.014269299999999596e-02,-3.864326819690000470e+00,-1.010851113239999988e+00,-8.935463962560000084e+00,9.700373746450000750e-03,1.778992824259999954e-03,-6.872927770019998965e-04,1.000000000000000000e+00
9.513232600000000316e-02,-3.906957754669999616e+00,-9.869919526120000119e-01,-8.935088114990000108e+00,-1.198313012720000036e-02,-2.610158640889999934e-03,2.208247547969999659e-03,1.000000000000000000e+00
1.000267120000000037e-01,-3.907418650179999897e+00,-9.691147890080000771e-01,-8.929365061169999507e+00,1.005951687689999978e-02,1.066068653019999930e-03,7.324700243770000674e-03,1.000000000000000000e+00
1.050223410000000052e-01,-3.853661048769999820e+00,-9.535302663850000471e-01,-8.910712383150000804e+00,-2.740723779430000173e-03,2.900008577849999981e-03,-9.323094040159999110e-03,1.000000000000000000e+00
1.100736799999999932e-01,-3.881769829659999616e+00,-9.524555498250000252e-01,-8.929422928830000217e+00,1.194007927550000099e-03,3.616436850280000271e-03,-1.836656965320000029e-02,1.000000000000000000e+00
1.150190749999999984e-01,-3.957328636250000198e+00,-9.345899305279999902e-01,-8.926016335259999934e+00,-1.902277232150000139e-03,-8.927810937169999156e-03,1.187637727709999966e-02,1.000000000000000000e+00
1.200728400000000001e-01,-3.889249079499999873e+00,-9.571646773639999051e-01,-8.926790826760001352e+00,-1.811857335269999964e-03,1.239513419570000170e-02,2.951007569210000164e-03,1.000000000000000000e+00
1.250922620000000096e-01,-3.882315773100000200e+00,-1.002527156199999991e+00,-8.945564500819999765e+00,-7.503313478080000237e-03,8.837424218649999122e-03,-9.300121106209998864e-03,1.000000000000000000e+00
1.300389419999999907e-01,-3.933920580400000144e+00,-9.608849399969999761e-01,-8.942410420699999918e+00,-1.008230727170000146e-02,-1.142535731200000106e-02,6.938138045370000236e-03,1.000000000000000000e+00
1.352254079999999914e-01,-3.859841490969999622e+00,-9.922261269390000304e-01,-8.974338175359999781e+00,-1.215598313139999986e-04,8.555658161640000703e-03,5.234759300949999583e-03,1.000000000000000000e+00
1.400752309999999945e-01,-3.903160992730000167e+00,-9.559821165160000689e-01,-8.920166440190000046e+00,-3.656683024019999947e-03,3.294145222749999928e-03,1.257249061020000204e-02,1.000000000000000000e+00
1.450493019999999911e-01,-3.854220436219999879e+00,-9.404813266539999717e-01,-8.916637097020000624e+00,8.375740610060000355e-03,8.313249796629999799e-03,-6.130327004940000317e-03,1.000000000000000000e+00
1.500281649999999911e-01,-3.918968510460000054e+00,-9.882522548720000799e-01,-8.942304622240000000e+00,1.485593151299999986e-03,5.132321268319999484e-03,4.089003428820000251e-03,1.000000000000000000e+00
1.550146530000000022e-01,-3.865747500139999904e+00,-9.809813870860000229e-01,-8.921272355599999315e+00,-2.509452868249999798e-03,3.360570408399999589e-04,-6.027548573910000013e-03,1.000000000000000000e+00
1.601406659999999871e-01,-3.924373584369999612e+00,-1.020318468149999935e+00,-8.933917902170000147e+00,-1.147069875149999904e-02,-1.747988746500000069e-03,1.035615522410000128e-02,1.000000000000000000e+00
1.650354420000000044e-01,-3.823001706609999939e+00,-1.029988725229999957e+00,-8.930574436960000639e+00,4.088135436179999790e-03,2.042490988969999748e-03,1.211048336700000071e-03,1.000000000000000000e+00
1.699838250000000051e-01,-3.871133284830000409e+00,-1.004214086370000203e+00,-8.982771072660000300e+00,-1.523958519099999874e-02,1.101778447629999866e-02,8.204058744009999626e-03,1.000000000000000000e+00
1.750521499999999897e-01,-3.868858910159999720e+00,-9.624823652560000609e-01,-8.976707827100000259e+00,-9.334240108729999555e-03,-9.712038561699999975e-03,7.069418206809999737e-03,1.000000000000000000e+00
1.799942250000000077e-01,-3.894491364069999406e+00,-9.989088926379999789e-01,-8.936293983649999717e+00,9.107771329579999325e-03,-2.887045964599999678e-03,5.339337512849999870e-03,1.000000000000000000e+00
1.851904339999999871e-01,-3.881631297969999839e+00,-9.777573835380000133e-01,-8.959575490510001572e+00,-3.552900394419999594e-03,6.429763045159999670e-03,5.124391987919999988e-03,1.000000000000000000e+00
1.901367049999999892e-01,-3.863465818939999963e+00,-9.370120431080000145e-01,-8.928557836439999562e+00,1.113918144259999979e-03,-8.926890790459999364e-03,-9.463905356820000517e-03,1.000000000000000000e+00
1.950781789999999905e-01,-3.912729616070000027e+00,-9.621247109249999596e-01,-8.942784514710000465e+00,5.523718427869998707e-04,3.461755346509999900e-03,2.669012406840000177e-03,1.000000000000000000e+00
2.001493990000000056e-01,-3.912788652780000653e+00,-9.334040086789999746e-01,-8.933851851189999138e+00,7.511615753170000458e-03,1.450419425960000012e-03,1.049693441020000013e-03,1.000000000000000000e+00
2.051078050000000041e-01,-3.909559753859999987e+00,-9.796739577490000128e-01,-8.917039832600000437e+00,-2.751206513490000050e-03,2.084764186289999720e-03,1.697071129460000095e-03,1.000000000000000000e+00
2.099634049999999919e-01,-3.932250893620000021e+00,-9.498821191410000697e-01,-8.916814207150000726e+00,-1.737567782399999927e-02,8.088134229179999926e-03,6.228725425899999356e-03,1.000000000000000000e+00
2.151487980000000022e-01,-3.866454771630000398e+00,-9.752618403949999681e-01,-8.952017622479999659e+00,-5.566440988329999194e-03,2.910789102320000127e-03,-9.013920091090000045e-03,1.000000000000000000e+00
2.201627889999999976e-01,-3.929805838550000097e+00,-9.941104793809999451e-01,-8.931558771819998910e+00,-7.223266176880000118e-03,2.930571325119999803e-03,7.307870313529999870e-03,1.000000000000000000e+00
2.250766800000000012e-01,-3.852285961019999760e+00,-9.561896948520000050e-01,-8.945146567669999271e+00,7.158690132199999751e-03,5.379868205640000144e-03,-1.255091372879999986e-02,1.000000000000000000e+00
2.301022159999999983e-01,-3.877810278380000586e+00,-9.713535809100000140e-01,-8.903767094049999997e+00,1.511217374349999899e-02,1.432679779829999951e-02,-1.091979816559999865e-02,1.000000000000000000e+00
2.350171010000000060e-01,-3.935581791610000213e+00,-9.657315032449999004e-01,-8.949740325200000512e+00,-1.326326373960000013e-02,7.209158036859999660e-03,9.774965234099999845e-03,1.000000000000000000e+00
2.399951929999999956e-01,-3.889966287860000094e+00,-9.908521351719998815e-01,-8.971828238369999653e+00,-3.384087933230000254e-03,5.591931287200000399e-03,2.633214462550000296e-04,1.000000000000000000e+00
2.450142469999999906e-01,-3.891368555869999746e+00,-9.812667798980000411e-01,-8.955759731619998831e+00,1.241854578260000175e-02,-1.083371974530000087e-02,1.328710699449999963e-03,1.000000000000000000e+00
2.499718599999999902e-01,-3.872135155350000080e+00,-9.824926684320000048e-01,-8.969401888000000156e+00,-4.491070751100000556e-03,1.381410751490000019e-03,-1.903122290969999977e-02,1.000000000000000000e+00
2.550928279999999937e-01,-3.915954131069999899e+00,-9.622221068840000058e-01,-8.953555499569999299e+00,2.899645827709999672e-03,9.167309850450000575e-03,-4.659830126910000092e-03,1.000000000000000000e+00
2.600529019999999747e-01,-3.892505158690000133e+00,-9.587838029989999011e-01,-8.969054682000001222e+00,-6.303659640250000237e-03,-1.778593286870000273e-04,-2.848624251780000182e-03,1.000000000000000000e+00
2.651858360000000081e-01,-3.877400528530000390e+00,-9.455836182289999448e-01,-8.947084257729999379e+00,-1.050830259920000100e-02,-5.055536050350000442e-03,1.771958312020000025e-03,1.000000000000000000e+00
2.701605020000000246e-01,-3.882013283030000483e+00,-9.671478728489999455e-01,-8.967058539750000890e+00,5.689343903210000199e-03,-1.037251949310000025e-02,6.098791956899999450e-03,1.000000000000000000e+00
2.751588369999999895e-01,-3.855394156170000031e+00,-9.577182926589999923e-01,-8.987834785789999614e+00,5.995604675259999690e-03,-5.266971886160000046e-03,-1.651882566510000025e-02,1.000000000000000000e+00
2.801193900000000236e-01,-3.909420637649999808e+00,-9.467842992560000503e-01,-8.958305324450000384e+00,3.407589625569999812e-03,4.667755682020000366e-03,-7.799023762350001249e-03,1.000000000000000000e+00
2.851391389999999859e-01,-3.924085999599999930e+00,-1.005980365389999909e+00,-8.935750378290000739e+00,-1.422131620349999931e-02,-1.420962624250000049e-02,-3.037215908989999817e-03,1.000000000000000000e+00
2.901528449999999926e-01,-3.876818636989999955e+00,-9.892295754709998779e-01,-8.917281240139999454e+00,7.564612664279999135e-03,-5.232786759729999085e-03,-1.367123238739999941e-02,1.000000000000000000e+00
2.951970850000000257e-01,-3.924839156060000001e+00,-9.663464933380000454e-01,-8.886300995470000075e+00,7.844707928600000088e-03,-2.722733467819999850e-02,-2.028285991400000186e-03,1.000000000000000000e+00
3.001668470000000144e-01,-3.857868729589999823e+00,-9.596807518390000347e-01,-8.923362605880001297e+00,-6.486487691290001136e-04,-1.075003412549999961e-03,-3.178567159920000183e-03,1.000000000000000000e+00
3.051636110000000013e-01,-3.909270415530000431e+00,-9.905196883469999936e-01,-8.926953908370000690e+00,-1.780488179069999923e-03,-8.262803778050000283e-03,5.149093456570000109e-03,1.000000000000000000e+00
3.100042219999999960e-01,-3.846898130500000068e+00,-1.019303299760000003e+00,-8.948624472909999739e+00,-1.068923715499999968e-02,5.187781527640000952e-03,-1.127155963329999969e-02,1.000000000000000000e+00
3.150882409999999911e-01,-3.936690629630000604e+00,-1.006990930679999785e+00,-8.916550587779999759e+00,-1.648172037679999956e-04,1.038880553099999883e-03,-1.895790919660000125e-03,1.000000000000000000e+00
3.200777490000000225e-01,-3.908431334349999897e+00,-1.030969260699999834e+00,-8.931205720599999509e+00,-3.497369354589999896e-03,-4.109595902259999961e-03,2.004513284189999960e-03,1.000000000000000000e+00
3.251084189999999818e-01,-3.876123932730000110e+00,-1.016473190899999990e+00,-8.893947126309999618e+00,9.675277397040001971e-07,1.681685633959999898e-02,3.637671703470000007e-03,1.000000000000000000e+00
3.300721739999999960e-01,-3.872504865450000278e+00,-1.040586691609999948e+00,-8.934146450220000091e+00,-3.089799312870000151e-03,4.298609215770000935e-03,1.181622501460000081e-04,1.000000000000000000e+00
3.351081530000000197e-01,-3.878410582359999914e+00,-1.070849800989999823e+00,-8.994788258189998942e+00,6.741533055899999981e-03,1.027097180489999935e-02,-1.136788632720000185e-04,1.000000000000000000e+00
3.401238959999999811e-01,-3.883784676609999931e+00,-1.003727983360000131e+00,-8.934498916919999090e+00,8.608255535360001542e-03,-9.157420136030000948e-03,3.640819108110000552e-03,1.000000000000000000e+00
3.450930919999999902e-01,-3.897653042970000037e+00,-1.015481038060000119e+00,-8.922201160889999372e+00,-1.075489632789999872e-02,-7.912391796709999578e-03,9.507555514570000324e-03,1.000000000000000000e+00
3.501443140000000120e-01,-3.858935774299999899e+00,-9.942641355719999963e-01,-8.943870556380000281e+00,4.241377115249999816e-03,-1.246721670030000000e-02,-3.613060107449999822e-03,1.000000000000000000e+00
3.550859049999999795e-01,-3.891130655460000032e+00,-9.950991981569999867e-01,-8.904393701520000093e+00,-1.208676118400000069e-02,3.441756591199999788e-03,-2.100355224680000230e-03,1.000000000000000000e+00
3.601269899999999802e-01,-3.887996156830000327e+00,-1.031079296950000002e+00,-8.940957883810000340e+00,-1.260355208070000101e-02,1.002131775020000115e-02,-4.973653238270000707e-03,1.000000000000000000e+00
3.651258549999999992e-01,-3.935043446949999968e+00,-9.879519567510000044e-01,-8.911046729669999777e+00,-1.402493473139999891e-02,3.638751804829999919e-03,9.217780083420000145e-03,1.000000000000000000e+00
3.701342009999999960e-01,-3.919512408080000121e+00,-1.002520288070000154e+00,-8.952198239739999508e+00,-1.735019311309999798e-02,1.929301396009999725e-02,6.772545166310000968e-03,1.000000000000000000e+00
3.751222100000000115e-01,-3.860167361919999873e+00,-9.834126328210001100e-01,-8.923883999410001877e+00,-1.402108650650000024e-02,3.306371625510000356e-03,-1.942677074109999897e-03,1.000000000000000000e+00
3.800861620000000052e-01,-3.880140767149999892e+00,-9.662822689950000266e-01,-8.872440812420000711e+00,8.705510757860001822e-03,1.086761616170000069e-02,-5.139335058630000244e-03,1.000000000000000000e+00
3.850997270000000028e-01,-3.903278189369999929e+00,-9.666697339430000424e-01,-8.917733075560001055e+00,-1.612527109679999862e-02,8.340049535040000572e-03,2.782183932139999875e-03,1.000000000000000000e+00
3.900920909999999742e-01,-3.928817412039999901e+00,-9.463291028339999578e-01,-8.922527324099998935e+00,-7.234078831970000394e-03,1.251841895279999853e-02,7.046984974289998132e-04,1.000000000000000000e+00
3.949743809999999855e-01,-3.919468568930000174e+00,-9.879691270810000425e-01,-8.918978107190000060e+00,-9.974656859410000235e-05,2.113364636899999968e-02,-3.742035478350000019e-04,1.000000000000000000e+00
4.001264030000000194e-01,-3.898135565790000090e+00,-9.771723501919999944e-01,-8.910355824789998991e+00,-5.997844506059999900e-03,1.201504096389999915e-02,2.409958513449999770e-03,1.000000000000000000e+00
4.050866530000000187e-01,-3.935963192140000011e+00,-9.871692088750000371e-01,-8.959642710529999832e+00,7.387710502370000440e-04,9.621540084479998992e-03,3.226594254370000053e-02,1.000000000000000000e+00
4.100192759999999881e-01,-3.775543205340000430e+00,-1.008415337460000005e+00,-8.936388091669998701e+00,-1.119040325279999949e-02,2.530229836699999721e-02,-1.432542596010000051e-02,1.000000000000000000e+00
4.150979309999999756e-01,-3.858207752290000236e+00,-1.049453011900000066e+00,-8.990801234380001006e+00,-2.323076501490000181e-02,8.230227977040000670e-03,-8.863497059790000120e-04,1.000000000000000000e+00
4.199999700000000002e-01,-3.863562849580000069e+00,-1.029237395410000033e+00,-9.002117578169999135e+00,-4.553381819279999319e-03,-5.114073399449999349e-03,2.013312885540000010e-03,1.000000000000000000e+00
4.250431809999999921e-01,-3.896017258459999688e+00,-1.015739031410000104e+00,-8.955593142879999746e+00,-1.376217789949999923e-02,9.624473750590000073e-05,1.980922743679999765e-02,1.000000000000000000e+00
4.300736969999999770e-01,-3.856296950229999965e+00,-9.738428404430000684e-01,-8.937112898809999706e+00,-2.168886363509999957e-02,-6.119586527350000249e-03,1.861019758510000033e-03,1.000000000000000000e+00
4.350566379999999955e-01,-3.859292040390000178e+00,-9.633180123620000979e-01,-8.947470042180000860e+00,-5.550727248189999893e-03,-1.375354640189999957e-02,-1.676919986489999953e-03,1.000000000000000000e+00
4.400169509999999895e-01,-3.902126973510000152e+00,-9.443062917700000281e-01,-8.951052576839998665e+00,-1.195896510029999943e-02,-5.791806150229999485e-03,1.494721416379999820e-02,1.000000000000000000e+00
4.451218040000000098e-01,-3.860544670799999967e+00,-9.550557223860000056e-01,-8.960233077639999877e+00,-1.400288660079999740e-02,-9.471275843680000348e-03,5.387684330339999501e-03,1.000000000000000000e+00
4.499816910000000170e-01,-3.922531755899999695e+00,-9.261194046289999982e-01,-8.936288722949999652e+00,-8.731164969499998971e-03,-3.039917908610000226e-03,1.471780473369999889e-03,1.000000000000000000e+00
4.551550679999999960e-01,-3.915947993590000120e+00,-9.357233184720000763e-01,-8.930209695300000305e+00,4.018867621199999829e-04,2.195459790530000267e-03,1.426179055120000219e-02,1.000000000000000000e+00
4.600288710000000059e-01,-3.825559282139999961e+00,-9.274853592200000829e-01,-8.930936256009999852e+00,5.048973020170000221e-03,1.905073411759999977e-03,-7.377578876910000430e-03,1.000000000000000000e+00
4.650489760000000028e-01,-3.932870194559999533e+00,-9.475702620020001188e-01,-8.929769550310000525e+00,-4.673472605649999466e-03,1.023197732870000098e-02,7.842374034229999957e-03,1.000000000000000000e+00
4.700902129999999790e-01,-3.894503054499999894e+00,-9.428613536589999233e-01,-8.932400483340000363e+00,4.994511138649999557e-03,1.017730683089999866e-02,7.196445949380000061e-03,1.000000000000000000e+00
4.751258990000000182e-01,-3.889244403319999766e+00,-9.297721549830000320e-01,-8.934677780619999510e+00,-4.153279587630000387e-03,-1.152850128710000005e-02,3.123113419860000235e-04,1.000000000000000000e+00
4.802082380000000095e-01,-3.901778598469999526e+00,-9.536807077060001081e-01,-8.947686315280000358e+00,4.906511167059999417e-04,-1.509752706619999982e-03,8.235240820800000892e-04,1.000000000000000000e+00
4.851349119999999737e-01,-3.865674727169999603e+00,-9.428521474390000323e-01,-8.923416381900000971e+00,-2.033488359299999871e-03,2.158063463870000132e-03,-4.748848732560000466e-03,1.000000000000000000e+00
4.900444849999999741e-01,-3.920447350839999956e+00,-9.249806829229999527e-01,-8.927766978319999325e+00,-3.185366978870000053e-03,5.465628113600000219e-03,7.985904812810000128e-03,1.000000000000000000e+00
4.951356929999999879e-01,-3.917683439080000607e+00,-9.019471594679999704e-01,-8.901215071479999352e+00,4.070271737869999781e-03,-1.857798732819999910e-02,-9.743276983499998822e-03,1.000000000000000000e+00
5.000749570000000421e-01,-3.938652285089999872e+00,-9.310050577790000004e-01,-8.946142592969998475e+00,-7.266943808649999927e-03,-4.893340170379999535e-03,6.063503678890000458e-04,1.000000000000000000e+00
5.051737809999999884e-01,-3.894020531680000285e+00,-9.153562377480000123e-01,-8.918087295830000372e+00,1.466981042179999958e-02,-8.514868095519999985e-03,-3.701367648320000227e-03,1.000000000000000000e+00
5.099623890000000159e-01,-3.934214594909999807e+00,-9.117665426929999484e-01,-8.919063447380001008e+00,-2.421610988679999670e-03,1.437465287739999979e-02,8.244225755329999059e-03,1.000000000000000000e+00
5.150571059999999868e-01,-3.893267667489999972e+00,-9.250895501239999597e-01,-8.945310233800000788e+00,-6.792138330640000270e-03,9.192425757649998891e-03,9.946401696649999086e-04,1.000000000000000000e+00
5.199940990000000429e-01,-3.895290405490000385e+00,-9.477170500610000436e-01,-8.944258094389999414e+00,1.374666811900000004e-03,5.848714616149999594e-03,8.209026418630000150e-05,1.000000000000000000e+00
5.250814719999999935e-01,-3.884240019159999946e+00,-9.678627431200000908e-01,-8.935753300900000085e+00,1.298429351299999930e-02,1.678430847820000169e-02,-6.615523248909999272e-03,1.000000000000000000e+00
5.299798620000000238e-01,-3.928096696549999933e+00,-9.574376490870000200e-01,-8.976956248900000546e+00,1.612960128109999910e-03,1.455192919820000015e-03,-1.908885897140000015e-03,1.000000000000000000e+00
5.351535060000000010e-01,-3.930747211059999913e+00,-9.616824470499999444e-01,-8.916189353250000948e+00,3.935253247619999693e-03,2.073384448890000162e-02,6.033747456970000797e-03,1.000000000000000000e+00
5.400327700000000508e-01,-3.847883342149999830e+00,-9.692745826790000185e-01,-8.944122485319999427e+00,-3.746729344130000396e-04,-5.580788478260000768e-03,2.124576596539999671e-03,1.000000000000000000e+00
5.451352000000000420e-01,-3.861823020169999676e+00,-9.576005114980000732e-01,-8.980424217270000398e+00,-3.155460115519999938e-03,1.134732924399999877e-02,-8.053047582510000982e-03,1.000000000000000000e+00
5.501088650000000024e-01,-3.916220965319999525e+00,-9.991454778730000097e-01,-8.977264876459999599e+00,3.179656807330000050e-03,-2.698162104930000062e-03,1.235752133650000039e-03,1.000000000000000000e+00
5.550921899999999853e-01,-3.834243523850000113e+00,-1.019725836020000109e+00,-9.002152649480001045e+00,1.211370434610000053e-02,6.855873856689999497e-03,-1.073393318800000031e-02,1.000000000000000000e+00
5.600144160000000149e-01,-3.881680982330000251e+00,-9.958768314659999232e-01,-9.002969811079999829e+00,-1.004150882360000004e-02,-1.205649971959999942e-02,-8.083336055279999321e-03,1.000000000000000000e+00
5.651877349999999689e-01,-3.877018543480000634e+00,-9.930661579589999954e-01,-8.949555031760001000e+00,1.156699843700000063e-02,9.486479684709997820e-03,-3.440468106419999894e-03,1.000000000000000000e+00
5.699811740000000349e-01,-3.881138253759999657e+00,-9.618841801669999469e-01,-8.935554563460000210e+00,2.284969016909999678e-02,-1.101169036699999959e-03,-1.594274304810000195e-02,1.000000000000000000e+00
5.750656699999999732e-01,-3.907406667480000095e+00,-9.954159359559999753e-01,-8.961576308939999791e+00,1.988903060559999922e-02,-8.891638368370001488e-03,-1.475514099000000204e-02,1.000000000000000000e+00
5.800711160000000532e-01,-3.881192322029999975e+00,-9.658579061040000191e-01,-8.976502075390000002e+00,1.512502785770000226e-02,-1.414083503190000091e-02,-1.999960280950000002e-02,1.000000000000000000e+00
5.850447699999999918e-01,-3.908992475369999386e+00,-9.620871553929999376e-01,-8.951584491760002038e+00,1.944080740210000005e-02,-8.363919332620000160e-03,-9.174995124340000127e-03,1.000000000000000000e+00
5.901158739999999847e-01,-3.877154444819999934e+00,-9.659232264249999478e-01,-8.978113602240000546e+00,1.319708768280000027e-02,4.348088521510000068e-03,-9.160816669460000033e-03,1.000000000000000000e+00
5.950953450000000533e-01,-3.854283856839999967e+00,-9.584081015539999138e-01,-8.936279955119999840e+00,8.502661250529999423e-03,-3.616506699469999950e-03,-2.312573976809999959e-02,1.000000000000000000e+00
6.000834210000000057e-01,-3.921943726880000369e+00,-9.655884415119999620e-01,-8.962194733099998700e+00,9.720015339549999481e-03,7.206847425550000352e-03,-2.830890193579999742e-02,1.000000000000000000e+00
6.050739139999999905e-01,-3.930188700390000456e+00,-9.976122769560000769e-01,-8.943455545839999132e+00,3.333844617009999733e-02,-5.389593075960000257e-03,-1.915802992879999875e-02,1.000000000000000000e+00
6.100821530000000159e-01,-3.879487856199999918e+00,-1.026488900420000183e+00,-8.966947480589999131e+00,2.637133747340000139e-02,-2.793508814649999904e-03,-1.782663352790000294e-02,1.000000000000000000e+00
6.150869949999999697e-01,-3.872538183190000094e+00,-9.882538623069999639e-01,-8.944715190510001079e+00,2.118967100980000129e-02,1.046826504170000026e-02,-1.725023798640000147e-02,1.000000000000000000e+00
6.200913000000000119e-01,-3.849071090630000302e+00,-1.021718032749999949e+00,-8.957964548189998766e+00,3.580688312650000260e-02,8.509622886779999798e-03,-2.222103998059999502e-02,1.000000000000000000e+00
6.250084409999999702e-01,-3.880175253940000069e+00,-1.000118122299999968e+00,-8.943291879710001169e+00,3.018270805480000041e-02,-2.736934693529999817e-03,-2.028832212089999934e-02,1.000000000000000000e+00
6.301058600000000176e-01,-3.848305951469999542e+00,-9.991226084540000274e-01,-8.950346474399999863e+00,4.238612204790000171e-02,8.804308250549999423e-03,-1.569224335249999949e-02,1.000000000000000000e+00
6.350921699999999559e-01,-3.826552384830000264e+00,-1.020258189330000009e+00,-8.924714020489998845e+00,2.217765524979999764e-02,-1.256568357350000033e-02,-2.964683808390000327e-02,1.000000000000000000e+00
6.400869380000000497e-01,-3.928493879169999925e+00,-1.042894749360000040e+00,-8.946017505280000393e+00,3.128572553400000428e-02,3.174718003719999553e-03,-1.258492097259999998e-02,1.000000000000000000e+00
6.450949919999999782e-01,-3.866451849019999720e+00,-1.031109619020000201e+00,-8.953615705329999841e+00,2.732718735929999879e-02,-7.295867428180000287e-03,-2.096953615549999872e-02,1.000000000000000000e+00
6.501775319999999470e-01,-3.916120427550000116e+00,-1.020346379070000031e+00,-8.953243949400000901e+00,2.143856883049999676e-02,-2.195721305909999546e-02,-1.187249552460000086e-02,1.000000000000000000e+00
6.551812710000000095e-01,-3.901082725159999764e+00,-1.023736532970000113e+00,-8.930691341330000199e+00,1.530021335929999775e-02,-8.515236899260000478e-03,-7.998803630469999634e-03,1.000000000000000000e+00
6.600420719999999797e-01,-3.848512579959999957e+00,-1.020343018070000163e+00,-8.940959637369999768e+00,1.085401605810000156e-02,-2.351239556449999987e-03,-1.871272921560000052e-02,1.000000000000000000e+00
6.649924569999999813e-01,-3.849651520859999732e+00,-1.040339731109999999e+00,-8.911263587289999677e+00,2.248194068669999782e-02,-5.565599538390001051e-03,-2.408747561279999880e-02,1.000000000000000000e+00
6.700867259999999659e-01,-3.956823901600000415e+00,-1.004496848840000123e+00,-8.933690523150000118e+00,1.961592212320000320e-02,-1.024786569179999933e-02,-2.518987655639999892e-02,1.000000000000000000e+00
6.750670199999999621e-01,-3.887525908969999389e+00,-1.030808151850000076e+00,-8.916776797749999872e+00,2.122880518440000211e-02,-1.388882845640000002e-02,-2.033515274520000110e-02,1.000000000000000000e+00
6.799808450000000004e-01,-3.884660582659999584e+00,-9.990250663640000139e-01,-8.944033637989999619e+00,1.320324931289999955e-02,4.142721183600000037e-03,-3.297414164989999775e-03,1.000000000000000000e+00
6.851050199999999535e-01,-3.870228737209999714e+00,-1.023781248889999995e+00,-8.938832562210000887e+00,2.278295531870000099e-02,6.626768503339999783e-03,-1.882402226329999914e-02,1.000000000000000000e+00
6.901935639999999816e-01,-3.872879543979999895e+00,-1.032359765210000058e+00,-8.950725244580000961e+00,1.565411314370000057e-02,-3.209516406059999792e-03,-1.173724606629999827e-02,1.000000000000000000e+00
6.950419030000000165e-01,-3.800987150940000614e+00,-1.038636434330000080e+00,-8.975478577569999672e+00,1.724605634809999941e-02,-1.181884901599999970e-03,-2.491873689000000114e-02,1.000000000000000000e+00
7.000868740000000257e-01,-3.883381648769999916e+00,-1.017208519440000014e+00,-8.991085896539999567e+00,2.310067787770000297e-02,5.868620704859999100e-03,-1.789804548029999900e-02,1.000000000000000000e+00
7.050601029999999936e-01,-3.825450268809999610e+00,-9.633188160799999178e-01,-8.948554914809999872e+00,2.786192297939999937e-02,-1.728927716609999707e-02,-3.990747407080000309e-02,1.000000000000000000e+00
7.100746949999999780e-01,-3.943803968769999724e+00,-1.016628381459999897e+00,-8.939870673089998832e+00,1.910604164000000160e-02,-1.742714643479999909e-02,-2.152536809440000129e-02,1.000000000000000000e+00
7.151451500000000072e-01,-3.929854353869999706e+00,-9.750328539450000553e-01,-8.947102962429999806e+00,3.434545919299999972e-02,-1.909866183999999953e-02,-1.419623661790000123e-02,1.000000000000000000e+00
7.201153970000000459e-01,-3.880582081180000475e+00,-9.597635347509999582e-01,-8.960936257469999333e+00,3.846702724700000464e-02,-2.449044585229999751e-02,-2.151124365629999979e-02,1.000000000000000000e+00
7.250154779999999910e-01,-3.914761121899999807e+00,-9.391088692569999896e-01,-8.920995292229999762e+00,4.184008389709999859e-02,-1.823949627579999830e-02,-2.398403733970000049e-02,1.000000000000000000e+00
7.300862110000000404e-01,-4.005804205609999613e+00,-9.566637421050000478e-01,-8.918695198589999151e+00,3.125452622770000244e-02,-3.016065992410000077e-02,-1.800142414869999874e-02,1.000000000000000000e+00
7.351310290000000469e-01,-3.831464999049999598e+00,-1.026998530440000001e+00,-8.875962556799999348e+00,3.181337192650000173e-02,-1.651776581999999868e-02,-2.577921375630000053e-02,1.000000000000000000e+00
7.400980430000000387e-01,-3.894070216040000254e+00,-1.026745432460000051e+00,-8.853059820120000367e+00,1.746082678440000202e-02,-3.925359994169999589e-02,-2.660969458519999928e-02,1.000000000000000000e+00
7.449462089999999703e-01,-3.983110435499999991e+00,-1.077108276869999992e+00,-8.931591505040000101e+00,4.564318805930001055e-02,-1.707589253779999774e-02,-2.100740373129999713e-02,1.000000000000000000e+00
7.500782259999999591e-01,-3.890665083780000089e+00,-1.023435065799999988e+00,-8.881368215239998420e+00,2.820314839480000252e-02,-8.999088779089999685e-03,-2.176173217590000181e-02,1.000000000000000000e+00
7.550464940000000125e-01,-3.893262991319999866e+00,-1.068528372310000085e+00,-8.868004291280000118e+00,2.704753726720000168e-02,-2.316505648200000225e-02,-1.971397362650000040e-02,1.000000000000000000e+00
7.600756690000000093e-01,-3.947734586219999731e+00,-1.076769765629999931e+00,-8.870647499260000401e+00,1.375330053269999998e-02,-1.688678516080000013e-03,-5.216565448790000219e-03,1.000000000000000000e+00
7.650229920000000128e-01,-3.878757788359999736e+00,-1.075717991549999919e+00,-8.880617689130000159e+00,1.995914801959999818e-02,-1.129083102569999929e-03,-1.857123151419999910e-02,1.000000000000000000e+00
7.700097839999999749e-01,-3.917456936849999849e+00,-1.049459880029999903e+00,-8.872328584219999925e+00,1.584151992569999938e-03,-8.035941980780000188e-03,-1.440794393420000152e-02,1.000000000000000000e+00
7.751394710000000243e-01,-3.892821969549999928e+00,-1.061649718710000023e+00,-8.904583671130000155e+00,1.111714728179999910e-02,1.535750925540000129e-05,-2.050956152379999897e-02,1.000000000000000000e+00
7.800574449999999604e-01,-3.901208397360000024e+00,-1.114447608250000110e+00,-8.953475420069999302e+00,3.764534834769999588e-03,1.954303588719999950e-03,-1.673897728320000028e-02,1.000000000000000000e+00
7.851203730000000380e-01,-3.851664029730000660e+00,-1.045270611639999903e+00,-8.911265925369999508e+00,8.180642500520000568e-03,1.362523529680000197e-03,-1.319886930290000045e-02,1.000000000000000000e+00
7.900970870000000312e-01,-3.861474060609999981e+00,-1.045561776610000049e+00,-8.946910654730000800e+00,1.952046528460000055e-02,7.968461140990000524e-03,-7.148887030779999679e-03,1.000000000000000000e+00
7.951158259999999700e-01,-3.844665549150000139e+00,-1.040798873060000185e+00,-8.950246521149999523e+00,1.320642419160000108e-02,-1.366147538650000102e-03,-1.451553404329999734e-02,1.000000000000000000e+00
8.001309890000000147e-01,-3.904826587860000142e+00,-1.034657447689999898e+00,-8.946580399860000199e+00,9.038582444190000620e-03,-2.343744970860000068e-03,-1.433485280720000164e-02,1.000000000000000000e+00
8.050891270000000155e-01,-3.834722831800000176e+00,-1.063540939289999931e+00,-8.963438595680001342e+00,2.117350697519999880e-02,-1.107467338439999810e-02,-2.270603366200000042e-02,1.000000000000000000e+00
8.100876179999999538e-01,-3.863927298980000202e+00,-1.022061439360000046e+00,-8.977123422160000032e+00,2.697987854479999906e-02,-9.062818251549999843e-03,-1.159633137290000046e-02,1.000000000000000000e+00
8.149988129999999886e-01,-3.860544378540000210e+00,-1.066201536800000182e+00,-9.003453795209999555e+00,6.604205816979999422e-03,-3.564761485899999981e-03,-1.603162288670000046e-02,1.000000000000000000e+00
8.202289280000000238e-01,-3.839562673050000097e+00,-1.043908967899999984e+00,-9.020424803750000109e+00,2.393458411100000266e-02,-5.841643083839999709e-03,-8.434563875200000102e-03,1.000000000000000000e+00
8.250876740000000487e-01,-3.830407598949999937e+00,-1.009081327079999868e+00,-9.005859102780000569e+00,1.888674125079999738e-02,-2.962050400670000055e-02,-3.508406504990000535e-02,1.000000000000000000e+00
8.301306090000000193e-01,-4.020205363659999698e+00,-9.355692969540000403e-01,-8.934439295689998062e+00,1.754853129390000072e-02,-1.741723157470000116e-02,-1.306714676320000143e-02,1.000000000000000000e+00
8.351526929999999460e-01,-3.906115458630000425e+00,-9.325012876860000466e-01,-8.982842968849999110e+00,4.086967557669999446e-02,-3.329685330390000364e-02,-3.766810521480000451e-02,1.000000000000000000e+00
8.401318629999999787e-01,-3.805870539069999392e+00,-1.056576141769999921e+00,-8.952535508869999603e+00,2.562301233409999823e-02,-2.449331805109999927e-02,-2.285414934159999550e-02,1.000000000000000000e+00
8.451195790000000096e-01,-3.913184374100000085e+00,-1.008596320049999884e+00,-8.958709813589999627e+00,3.692474216219999994e-02,-2.157055027780000259e-02,-1.821598596869999920e-02,1.000000000000000000e+00
8.501004749999999666e-01,-3.991291111610000275e+00,-1.023615536939999959e+00,-8.949661414739999543e+00,4.463238641620000113e-02,-1.690164580940000175e-02,-2.571826241909999991e-02,1.000000000000000000e+00
8.551865549999999594e-01,-3.893423150309999414e+00,-1.008563148429999945e+00,-8.948427489029999293e+00,3.500580415130000178e-02,-2.195735275749999965e-02,-2.320923842490000069e-02,1.000000000000000000e+00
8.600671739999999899e-01,-3.894167246680000360e+00,-1.012711427219999960e+00,-8.886928771980000974e+00,3.986034914850000027e-02,-2.588540501889999984e-02,-3.124732710419999768e-02,1.000000000000000000e+00
8.651039740000000533e-01,-3.979324779480000185e+00,-1.093391522339999922e+00,-8.894880023239998934e+00,5.586975812910000005e-02,-2.633103355770000098e-02,-3.436605259780000504e-02,1.000000000000000000e+00
8.700708249999999921e-01,-4.001733595169999269e+00,-1.119264726199999949e+00,-8.863491197760000162e+00,4.275268688799999800e-02,-1.920746266840000008e-02,-2.927791513499999887e-02,1.000000000000000000e+00
8.751078620000000141e-01,-3.975280472530000164e+00,-1.068385456709999959e+00,-8.887035739479999918e+00,5.228889733549999669e-02,-2.923331037159999923e-02,-2.875275351109999808e-02,1.000000000000000000e+00
8.801032260000000162e-01,-3.929352834090000357e+00,-1.115165693390000046e+00,-8.901964428539999474e+00,1.945166662340000116e-02,-1.998689025640000214e-02,-1.422649249429999881e-02,1.000000000000000000e+00
8.851326649999999852e-01,-3.793532743280000119e+00,-1.018644251329999806e+00,-8.855576771380000878e+00,1.514562498779999968e-02,-1.023805513979999908e-02,-3.697252273559999830e-02,1.000000000000000000e+00
8.901393909999999465e-01,-4.010226113699999928e+00,-1.107248052130000104e+00,-8.844811047210001220e+00,3.193847462530000070e-02,-4.554592072959999689e-03,-2.193865366279999785e-02,1.000000000000000000e+00
8.950943199999999988e-01,-3.925354412099999912e+00,-1.131585278590000021e+00,-8.885597231110001104e+00,3.147906064990000502e-02,-2.669873880219999877e-03,-2.237267605959999961e-02,1.000000000000000000e+00
9.000452150000000096e-01,-3.843693489240000094e+00,-1.082745405970000130e+00,-8.853054559419998526e+00,3.696230053900000090e-02,-7.753950078040000582e-03,-3.471007198099999858e-02,1.000000000000000000e+00
9.051845400000000375e-01,-3.982508377950000344e+00,-1.112511890940000026e+00,-8.890974832499999536e+00,1.607480645180000070e-02,-6.849126890300000041e-03,-1.866628415879999919e-02,1.000000000000000000e+00
9.100551040000000036e-01,-3.964693027540000081e+00,-1.118833202920000103e+00,-8.932783345180000723e+00,5.415840074419999567e-03,-1.210623234510000042e-02,-9.987187571819999138e-03,1.000000000000000000e+00
9.150951550000000490e-01,-3.938795492960000200e+00,-1.047087305679999858e+00,-8.886914158930000696e+00,9.391596540809999533e-03,-1.005021668970000094e-02,-1.202683709560000043e-02,1.000000000000000000e+00
9.200550159999999478e-01,-3.964351082230000323e+00,-9.972346758160000046e-01,-8.898068590150000290e+00,8.973641321059998982e-03,1.838833559299999927e-04,-3.231014125049999885e-05,1.000000000000000000e+00
9.250500680000000031e-01,-3.932590793100000148e+00,-1.057753076600000064e+00,-8.889887621779999805e+00,1.037643011660000121e-02,-5.078324116770000299e-03,-1.447785180059999940e-02,1.000000000000000000e+00
9.300781609999999588e-01,-3.917136618859999864e+00,-1.079145408720000088e+00,-8.875123767889999016e+00,3.166703134780000234e-02,7.388419471680000199e-04,-2.109513431790000296e-02,1.000000000000000000e+00
9.350063979999999608e-01,-3.924449279959999703e+00,-1.107820152930000024e+00,-8.888165035770001055e+00,2.347445115449999994e-02,1.838508993390000276e-02,-2.179413288830000031e-02,1.000000000000000000e+00
9.401240090000000382e-01,-3.947619143140000286e+00,-1.067442769029999905e+00,-8.901178246599998900e+00,3.340179845690000038e-02,7.082194555550000090e-03,-1.768975518640000105e-02,1.000000000000000000e+00
9.451040229999999598e-01,-3.890491188509999976e+00,-1.109286864480000023e+00,-8.905867281200000818e+00,2.355870604520000217e-02,8.464701473709999868e-03,-1.805167272690000324e-02,1.000000000000000000e+00
9.500356210000000523e-01,-3.896751417950000018e+00,-1.031620929540000065e+00,-8.872502771739998906e+00,1.550575625150000039e-02,1.234698109329999960e-02,-2.429481036959999646e-02,1.000000000000000000e+00
9.550075390000000164e-01,-3.931857510390000421e+00,-1.031851377299999983e+00,-8.888742543400001139e+00,1.689581573009999935e-02,1.666161976750000009e-02,1.463904045520000126e-04,1.000000000000000000e+00
9.599635130000000460e-01,-3.966772171899999755e+00,-1.055236855989999833e+00,-8.875487340510000323e+00,1.586854085330000053e-02,3.105560783300000648e-03,1.339765964079999783e-03,1.000000000000000000e+00
9.650700389999999906e-01,-3.933113940190000157e+00,-1.076657829690000012e+00,-8.870970155339998442e+00,1.204938441510000104e-02,-6.343447137619999919e-03,-7.478235289450000170e-03,1.000000000000000000e+00
9.701109190000000160e-01,-3.972578227830000586e+00,-1.080464236229999875e+00,-8.895044273889999076e+00,1.028376864270000030e-04,6.160990800709999909e-03,8.031115867199999439e-03,1.000000000000000000e+00
9.750998429999999662e-01,-3.893269128790000089e+00,-1.090275436149999999e+00,-8.918402353130000293e+00,-1.822215970609999784e-03,2.255391702060000059e-02,-3.586713690310000188e-03,1.000000000000000000e+00
9.801070120000000552e-01,-3.852960499280000395e+00,-1.075793102620000052e+00,-8.881248972769999028e+00,-6.266328506169999840e-03,2.243211679159999930e-02,-1.972255855800000152e-02,1.000000000000000000e+00
9.849987289999999618e-01,-3.937954073699999835e+00,-1.125070928259999992e+00,-8.950553395149999147e+00,4.844812676310000614e-03,2.845715172589999981e-02,-5.226157605649999274e-03,1.000000000000000000e+00
9.901045019999999974e-01,-3.875496448480000300e+00,-1.111737691699999919e+00,-8.914199056219999306e+00,9.695746935899999738e-03,2.308660931890000115e-02,-1.326300483199999852e-02,1.000000000000000000e+00
9.950673469999999909e-01,-3.906015797639999843e+00,-1.097692069079999833e+00,-8.943886338469999586e+00,9.765570983290000964e-03,1.059288345279999974e-02,-9.939329698679999492e-03,1.000000000000000000e+00
1.000072429999999901e+00,-3.906882351340000170e+00,-1.085763730879999889e+00,-8.931448881699999731e+00,1.238962169740000056e-02,2.216254919769999887e-02,4.315704107280000056e-03,1.000000000000000000e+00
1.005113579000000090e+00,-3.836863935480000265e+00,-1.123559573850000159e+00,-8.902423862750000083e+00,-1.385634206239999902e-02,2.089109271760000025e-02,-1.923157647249999769e-02,1.000000000000000000e+00
1.010051489000000080e+00,-3.913807182169999344e+00,-1.116295355000000100e+00,-8.892586943870000482e+00,9.212058037520001394e-03,3.433177247639999929e-02,-9.568887762729998830e-03,1.000000000000000000e+00
1.015053033999999910e+00,-3.896196998939999823e+00,-1.098505358229999951e+00,-8.887527906910001718e+00,4.345188848669999555e-03,1.372326165439999822e-02,4.682848229999999820e-03,1.000000000000000000e+00
1.020117952999999966e+00,-3.811143803289999799e+00,-1.105677807139999969e+00,-8.878837235460000699e+00,2.657477511089999852e-03,1.520653814079999874e-02,-8.616082370279999972e-03,1.000000000000000000e+00
1.025065812000000021e+00,-3.812577927749999596e+00,-1.132390165239999913e+00,-8.938522765610001031e+00,2.373460680250000232e-02,1.476122811440000113e-02,-1.721506565809999972e-02,1.000000000000000000e+00
1.029991835999999994e+00,-3.840150994330000067e+00,-1.153872952120000184e+00,-8.950077594330000608e+00,-6.548835081050000074e-04,1.936006173490000329e-02,-1.561057753860000015e-02,1.000000000000000000e+00
1.035175246999999965e+00,-3.832210556719999772e+00,-1.167328938279999839e+00,-8.981793167539999345e+00,5.141437053680000119e-03,8.118601515890000453e-03,-4.181507974860000122e-03,1.000000000000000000e+00
1.040136267000000059e+00,-3.820872293369999451e+00,-1.195754822300000075e+00,-8.978456132070000706e+00,-8.634708938189999050e-04,7.994132116439999283e-03,-1.157328672710000034e-02,1.000000000000000000e+00
1.045173190000000085e+00,-3.872497558919999694e+00,-1.207128376160000016e+00,-8.933182573630000789e+00,-1.895557972599999858e-03,1.652933191510000009e-03,-1.097497809680000012e-02,1.000000000000000000e+00
1.050124708000000018e+00,-3.891820391290000014e+00,-1.194974047179999888e+00,-8.913455544369998762e+00,8.333568461240000586e-03,5.537746939810000296e-03,-1.320705469700000044e-02,1.000000000000000000e+00
1.055165753999999900e+00,-3.984407781830000328e+00,-1.164874969260000004e+00,-8.893063329209999424e+00,1.618519891049999911e-04,-5.973412655289999339e-03,5.200998857620000269e-03,1.000000000000000000e+00
1.060069847000000065e+00,-3.960592606480000111e+00,-1.121879365679999907e+00,-8.876412638659999743e+00,-1.050159242000000062e-02,7.579003926369999762e-03,6.963992491359999142e-03,1.000000000000000000e+00
1.065157711999999979e+00,-3.952100672469999854e+00,-1.111243478440000043e+00,-8.889267444059999690e+00,-2.518852427600000096e-02,1.519813202320000013e-03,-1.634848886170000171e-03,1.000000000000000000e+00
1.070082017999999913e+00,-3.867821676069999715e+00,-1.118817274700000031e+00,-8.908145747529999880e+00,-1.104246173050000071e-02,2.199047803879999874e-02,-1.424751989539999909e-02,1.000000000000000000e+00
1.075111319999999981e+00,-3.923511414580000078e+00,-1.079630342690000022e+00,-8.922272472559999557e+00,-2.217653393749999952e-02,1.620359905059999897e-02,-6.706974469129999700e-03,1.000000000000000000e+00
1.080187446999999912e+00,-3.887547244019999404e+00,-1.070539127610000030e+00,-8.962337940960001248e+00,-2.353940531609999970e-02,-3.367904108019999752e-03,-6.503718905149999570e-03,1.000000000000000000e+00
1.085162527999999904e+00,-3.898804843349999771e+00,-1.069990042359999949e+00,-8.892413340870000127e+00,-4.227588884529999598e-03,1.067174226049999973e-02,7.474429905410000761e-03,1.000000000000000000e+00
1.090017014999999923e+00,-3.858117151390000110e+00,-1.116799797389999904e+00,-8.940998800339999164e+00,-1.722485199570000097e-02,5.822817329319999319e-03,8.623038884249999364e-04,1.000000000000000000e+00
1.095176622000000100e+00,-3.890134630159999940e+00,-1.116444335019999956e+00,-8.922693912839999797e+00,-1.487569790329999926e-02,3.281660377979999776e-03,-1.745764166120000044e-02,1.000000000000000000e+00
1.100176320000000096e+00,-3.960413158259999733e+00,-1.107780040120000198e+00,-8.884517034659999979e+00,-1.190329995009999954e-02,8.299220353359998761e-03,-1.041069161149999964e-03,1.000000000000000000e+00
1.105145617000000025e+00,-3.935022696419999466e+00,-1.144583730250000153e+00,-8.874830922419999268e+00,-2.127842977640000133e-02,1.897089555859999763e-02,4.581400193270000927e-03,1.000000000000000000e+00
1.110159298999999988e+00,-3.941570802890000280e+00,-1.176826323010000008e+00,-8.896759845639998332e+00,-1.933702081440000220e-02,2.111011929809999618e-02,4.705983214079999775e-03,1.000000000000000000e+00
1.114978285999999930e+00,-3.924531989800000176e+00,-1.181907937120000085e+00,-8.924821572519999080e+00,-1.567309349779999819e-02,3.119369782509999814e-02,7.655356079339999294e-03,1.000000000000000000e+00
1.120167756000000070e+00,-3.875518075790000072e+00,-1.127353193979999890e+00,-8.927516218430000094e+00,-1.813537254929999815e-02,2.497241273520000443e-02,4.969042725859999614e-03,1.000000000000000000e+00
1.125247351999999923e+00,-3.932648660759999970e+00,-1.126451568970000094e+00,-8.968716828350000725e+00,-2.217369899149999879e-02,2.341630309819999964e-02,2.160189300779999724e-02,1.000000000000000000e+00
1.130117507000000021e+00,-3.840626795149999939e+00,-1.078444566970000018e+00,-8.907821337879999746e+00,-3.005365654830000066e-02,2.002169191840000306e-02,5.214322358369999875e-03,1.000000000000000000e+00
1.135156520000000002e+00,-3.832913152030000159e+00,-1.084668409920000132e+00,-8.925487342949999459e+00,-3.458704799409999947e-02,2.734501846130000038e-02,2.509133191780000497e-03,1.000000000000000000e+00
1.140153578000000056e+00,-3.853151637940000374e+00,-1.132228471869999975e+00,-8.927263704970000546e+00,-1.993482932450000092e-02,5.826658103619999918e-03,5.458805710079999741e-03,1.000000000000000000e+00
1.145008954999999995e+00,-3.817385035769999657e+00,-1.042113170529999966e+00,-8.956759848569999960e+00,-2.916960790750000240e-02,1.306555792689999967e-02,-6.078115664420000175e-03,1.000000000000000000e+00
1.150127260000000096e+00,-3.983485114030000496e+00,-1.133019841439999897e+00,-8.920884817590000182e+00,-3.263374790549999904e-02,2.605334855619999973e-02,1.452332455659999938e-02,1.000000000000000000e+00
1.155199191999999986e+00,-3.817060918380000611e+00,-1.116985529229999941e+00,-8.949097351120000710e+00,-1.790149137379999991e-02,7.175129372630000349e-03,3.436795203019999984e-03,1.000000000000000000e+00
1.160200241999999937e+00,-3.857130186180000475e+00,-1.112998359289999906e+00,-8.912505696300000224e+00,-1.906295493250000084e-02,1.873721927399999918e-02,-1.733306213279999994e-03,1.000000000000000000e+00
1.165098313999999968e+00,-3.921121012319999988e+00,-1.011711748650000020e+00,-8.902865761299999292e+00,-1.962582021950000019e-02,8.358467370270000057e-03,1.131914183500000101e-02,1.000000000000000000e+00
1.169990689000000028e+00,-3.896805486230000337e+00,-1.110001880880000069e+00,-8.855448176559999496e+00,-3.797403350469999439e-02,4.284566268319999621e-02,8.793049491940001586e-03,1.000000000000000000e+00
1.175013859000000105e+00,-3.910432445040000093e+00,-1.101828145970000117e+00,-8.878950048180000110e+00,-3.700843080880000108e-02,4.207467287779999982e-02,5.928027443590000445e-03,1.000000000000000000e+00
1.180073047999999902e+00,-3.862382992139999693e+00,-1.062481566430000024e+00,-8.970007452680000881e+00,-2.960763871670000352e-02,2.656224183740000383e-02,2.207404188809999890e-02,1.000000000000000000e+00
1.185217418999999994e+00,-3.805649589790000231e+00,-1.135098035960000029e+00,-8.975553980890000005e+00,-2.080387622120000168e-02,2.874466218049999758e-02,1.112823560829999912e-02,1.000000000000000000e+00
1.190186882999999973e+00,-3.892971022630000277e+00,-1.128581785930000025e+00,-8.934492487179999998e+00,-2.325707674029999991e-02,2.318872138859999835e-02,1.431247498839999938e-02,1.000000000000000000e+00
1.195085304000000015e+00,-3.847169348660000043e+00,-1.171881194760000078e+00,-8.976854542090000777e+00,-2.783917263150000043e-02,2.264549210669999924e-02,1.019804552199999985e-02,1.000000000000000000e+00
1.200097390999999902e+00,-3.905976050150000045e+00,-1.133882376560000127e+00,-8.994307196679999450e+00,-3.552730754019999687e-02,2.943727560340000243e-02,2.354638464749999813e-02,1.000000000000000000e+00
1.205118166000000102e+00,-3.795212951449999927e+00,-1.083784393630000009e+00,-8.956791997270000749e+00,-2.060740068549999846e-02,4.300770536069999789e-02,6.511492654680000984e-03,1.000000000000000000e+00
1.210127554999999910e+00,-3.937228682030000204e+00,-1.098024808169999922e+00,-8.988763006550000156e+00,-3.150464966890000051e-02,2.975263632830000074e-02,1.779509708290000214e-02,1.000000000000000000e+00
1.215584554000000095e+00,-3.886971782219999394e+00,-1.068235307649999966e+00,-8.972954027520000153e+00,-2.130152657629999849e-02,1.853241212669999929e-02,1.531252730640000025e-02,1.000000000000000000e+00
1.220170165000000084e+00,-3.834571148369999349e+00,-1.024594026579999984e+00,-8.989420009159999836e+00,-2.642600238320000003e-02,3.199649229649999954e-02,1.817340403799999962e-02,1.000000000000000000e+00
1.225035405000000077e+00,-3.816471135799999637e+00,-9.912480026219999685e-01,-8.993784049589999441e+00,-7.541330996899999785e-03,1.447675377129999975e-02,4.801980685440000512e-04,1.000000000000000000e+00
1.230138595999999973e+00,-3.834901110980000638e+00,-1.103027438760000090e+00,-8.983906798689998752e+00,-4.402474500239999568e-03,2.380667813120000004e-02,4.305511247370000173e-04,1.000000000000000000e+00
1.235142795000000016e+00,-3.903830562559999606e+00,-1.031687272779999942e+00,-9.001299832040000837e+00,-8.868658915159999614e-03,2.050387673079999765e-02,1.778733730320000012e-02,1.000000000000000000e+00
1.240065015999999964e+00,-3.845458453090000006e+00,-1.081860951289999928e+00,-9.019332916860001603e+00,-1.061284076420000028e-02,1.532000303270000113e-02,1.409318763760000065e-02,1.000000000000000000e+00
1.245117996999999921e+00,-3.849370365840000030e+00,-9.778919697030000746e-01,-8.957255523130001507e+00,2.629610244179999895e-04,1.735134795310000130e-02,1.943979598579999996e-02,1.000000000000000000e+00
1.250136713999999927e+00,-3.806150232790000310e+00,-9.447889607200000706e-01,-8.981298077499999977e+00,-7.060267962520000613e-03,1.385240443049999895e-02,1.764781540260000137e-03,1.000000000000000000e+00
1.255223771999999904e+00,-3.878556128309999629e+00,-9.900988325859999550e-01,-9.006356530910000657e+00,-8.307883515950000020e-03,2.059989143160000265e-03,5.956476554270000168e-03,1.000000000000000000e+00
1.259989306999999892e+00,-3.872240661549999796e+00,-1.000506683220000026e+00,-8.975050707539999451e+00,8.769324980680000964e-03,1.123161241410000101e-02,3.227919572959999858e-03,1.000000000000000000e+00
1.265067608000000066e+00,-3.823152513259999719e+00,-1.023569725029999988e+00,-9.021886108480000388e+00,1.078756246720000145e-02,1.059733331199999920e-02,-1.624319143590000070e-02,1.000000000000000000e+00
1.270130811000000026e+00,-3.896097630219999441e+00,-1.041169459940000097e+00,-8.996525457249999747e+00,-2.392976544800000469e-03,6.884882692250000533e-03,-1.683954847979999897e-03,1.000000000000000000e+00
1.275139068000000098e+00,-3.846043559499999986e+00,-1.044483991309999915e+00,-8.948882247060000239e+00,3.887928090989999953e-03,1.693260110910000185e-02,9.969417937099999544e-03,1.000000000000000000e+00
1.279999890000000029e+00,-3.812990307940000267e+00,-1.038504332379999839e+00,-8.952018791519998686e+00,2.406936138870000019e-02,-4.494909662749999361e-04,-3.728612326090000127e-03,1.000000000000000000e+00
1.284974464000000038e+00,-3.889365399349999919e+00,-1.045328260120000019e+00,-8.927304621510000260e+00,1.633160188790000120e-02,1.001715846360000037e-02,7.463816553350000223e-03,1.000000000000000000e+00
1.290138557999999991e+00,-3.848740835759999701e+00,-1.033422718269999985e+00,-8.923956480119999313e+00,1.732245087620000110e-02,-4.714035894720000446e-03,4.836933221669999922e-04,1.000000000000000000e+00
1.295065995999999942e+00,-3.831742646949999997e+00,-1.080927762089999966e+00,-8.911942217200000016e+00,1.167710032309999917e-02,3.778269514440000046e-03,-1.065578125420000091e-02,1.000000000000000000e+00
1.300188743999999952e+00,-3.849133342209999586e+00,-1.062035576219999999e+00,-8.925383882580000261e+00,1.916407048699999768e-02,1.462341658770000170e-02,-9.739300236110000689e-03,1.000000000000000000e+00
1.305107723999999969e+00,-3.872894741549999686e+00,-1.103735148639999997e+00,-8.940117341329999689e+00,1.898345723749999756e-02,1.014256291090000033e-02,-5.003600381310000476e-03,1.000000000000000000e+00
1.309958731000000043e+00,-3.827945885009999660e+00,-1.111902088479999939e+00,-8.914334665300000182e+00,-8.088969625529999000e-03,-2.422622404989999579e-03,-1.406718045470000018e-02,1.000000000000000000e+00
1.315102500000000063e+00,-3.862854993570000062e+00,-1.092143787310000169e+00,-8.959218347640000246e+00,-2.343058586119999617e-03,2.161142043769999702e-02,5.140552297229999783e-03,1.000000000000000000e+00
1.320166189999999906e+00,-3.846029823239999867e+00,-1.078521650799999954e+00,-8.907293514610000074e+00,1.169633469539999981e-03,9.855942800639999959e-03,3.142234170810000084e-03,1.000000000000000000e+00
1.325144469000000047e+00,-3.865740193619999765e+00,-1.067867278050000035e+00,-8.924466183210000736e+00,6.383986212310000657e-03,1.477138325570000188e-02,-2.773239510129999700e-03,1.000000000000000000e+00
1.330200030999999949e+00,-3.867712662729999806e+00,-1.105924621510000039e+00,-8.906344251060000161e+00,1.908459700640000164e-03,1.594631560150000169e-02,1.399272028360000128e-02,1.000000000000000000e+00
1.335141780999999916e+00,-3.826859258819999887e+00,-1.128709065570000059e+00,-8.934345772189999479e+00,-2.123293280600000235e-02,-1.288487459529999825e-03,1.767746405679999954e-03,1.000000000000000000e+00
1.340145214000000085e+00,-3.886027194840000476e+00,-1.082386363399999940e+00,-8.952985006210001373e+00,1.554911304269999961e-02,1.151193864640000057e-02,6.036496721210000277e-03,1.000000000000000000e+00
1.345132707999999955e+00,-3.821026314880000552e+00,-1.044207658589999976e+00,-8.923379557020000519e+00,-4.655888304109999723e-03,7.811466697600000751e-03,-2.960663987320000159e-03,1.000000000000000000e+00
1.350091665000000107e+00,-3.825560158919999676e+00,-1.118534000779999982e+00,-8.979679536389999939e+00,3.265943378210000095e-03,1.082240231339999872e-02,3.694677492600000231e-03,1.000000000000000000e+00
1.355054951000000063e+00,-3.847219909800000170e+00,-1.081115832010000055e+00,-8.926745234060000200e+00,-1.223772019150000043e-02,1.033318787809999958e-02,8.964735083280000669e-03,1.000000000000000000e+00
1.360169570000000050e+00,-3.791681270189999786e+00,-1.066106771190000080e+00,-8.968187836040000249e+00,-1.265064626930000047e-02,2.032496500759999828e-03,-5.972930230200000114e-04,1.000000000000000000e+00
1.365016161000000006e+00,-3.861009657959999952e+00,-1.080051417650000012e+00,-8.955563332260000564e+00,-2.929686335850000076e-03,2.416737750169999782e-02,-6.017282605169999715e-03,1.000000000000000000e+00
1.370218562999999889e+00,-3.843514625540000118e+00,-1.041036481210000142e+00,-8.955397912569999619e+00,-6.021058652550000286e-03,2.350997179750000110e-03,1.351463515309999849e-02,1.000000000000000000e+00
1.375073178000000063e+00,-3.774996969640000088e+00,-1.014788525750000003e+00,-8.949390196589998681e+00,-1.172819174829999901e-02,1.617194525899999860e-02,-5.934466142210000072e-03,1.000000000000000000e+00
1.380019529999999994e+00,-3.830927238909999755e+00,-1.019657958420000066e+00,-8.965809416469999960e+00,-8.790117688480000510e-03,3.319159150120000110e-03,-1.201243372630000049e-03,1.000000000000000000e+00
1.385094969000000065e+00,-3.847396435409999871e+00,-9.958940748620001004e-01,-8.978415215539998329e+00,-2.358779311179999821e-03,-2.231902908529999785e-04,-9.413063526150000138e-05,1.000000000000000000e+00
1.390146689999999907e+00,-3.842787480309999726e+00,-9.896472894269999765e-01,-8.933830808399999768e+00,-1.412084326150000145e-02,1.099649444220000133e-02,1.097933575510000141e-02,1.000000000000000000e+00
1.395053588999999983e+00,-3.845318752359999870e+00,-9.766510297310000421e-01,-8.960214372939999450e+00,2.955310279500000022e-03,6.958003621549999768e-03,3.281439421700000150e-03,1.000000000000000000e+00
1.400122472000000062e+00,-3.872749487860000173e+00,-9.741153737739999263e-01,-8.949009088310001303e+00,1.466100662949999973e-02,3.240450751040000236e-04,1.064915442839999959e-03,1.000000000000000000e+00
1.405096818000000081e+00,-3.859388486499999882e+00,-9.836892578049999392e-01,-8.953847175989999130e+00,1.268071308729999853e-02,-1.309938170020000063e-02,-5.609768442810000692e-03,1.000000000000000000e+00
1.410048396999999953e+00,-3.871629251659999937e+00,-1.002555140189999916e+00,-8.932404574989998736e+00,1.501258369539999922e-02,1.111643575130000054e-02,-3.115862142289999720e-03,1.000000000000000000e+00
1.415106769999999958e+00,-3.826164262290000284e+00,-1.021637660989999974e+00,-8.927097116229999685e+00,1.005383767189999868e-02,1.461806707079999976e-03,-9.922794997690000465e-03,1.000000000000000000e+00
1.420066461000000002e+00,-3.863739082930000457e+00,-1.097896067219999994e+00,-8.967529664389999766e+00,7.794960401950000277e-03,8.859159424899998997e-03,-1.106654945759999974e-02,1.000000000000000000e+00
1.425100064000000000e+00,-3.886239376290000269e+00,-1.111182249770000130e+00,-8.984582506000000635e+00,1.170200109479999952e-02,1.366248354320000191e-02,7.060091942549999965e-03,1.000000000000000000e+00
1.430029763999999926e+00,-3.807339442569999566e+00,-1.126650452539999847e+00,-8.961540653110001031e+00,6.059628445659999418e-03,-6.463917670770000755e-04,1.414518151429999815e-02,1.000000000000000000e+00
1.435129593000000092e+00,-3.797413091840000199e+00,-1.132402001800000058e+00,-8.953326951510000242e+00,4.392967093739999604e-04,3.978368826210000077e-03,-1.559041207660000032e-03,1.000000000000000000e+00
1.440087391999999911e+00,-3.820060100199999642e+00,-1.100267107200000094e+00,-8.956732960560001899e+00,2.176174521450000010e-02,1.830493472519999915e-02,-1.277274265889999892e-02,1.000000000000000000e+00
1.445030534000000033e+00,-3.841487503630000244e+00,-1.097729259289999870e+00,-8.929909251050000663e+00,1.217049174009999894e-02,-1.257368829099999837e-03,-2.636864781380000248e-03,1.000000000000000000e+00
1.450190150000000067e+00,-3.831505331060000241e+00,-1.126429064879999942e+00,-8.950916967759999565e+00,-3.147881943729999906e-03,1.237373799089999844e-02,-2.125702099870000004e-03,1.000000000000000000e+00
1.455093613999999924e+00,-3.827562146390000031e+00,-1.027511594529999961e+00,-8.932275395660001394e+00,2.615722641350000030e-02,-1.829556562009999887e-02,-8.276837877929999962e-03,1.000000000000000000e+00
1.460050830999999993e+00,-3.843305074449999914e+00,-1.054907404840000007e+00,-8.933463728660001379e+00,1.322090346370000113e-02,-1.418660860509999818e-03,-2.357324585319999985e-03,1.000000000000000000e+00
1.465098757000000029e+00,-3.796969731989999985e+00,-1.071823468329999862e+00,-8.962104132210001239e+00,2.653747424480000158e-02,1.081412658099999841e-02,-1.779790595169999934e-02,1.000000000000000000e+00
1.470068930999999912e+00,-3.850732886359999885e+00,-1.075137926639999852e+00,-8.932290593219999408e+00,1.120989397170000026e-02,-7.280469872060000951e-04,-5.205719731750000148e-03,1.000000000000000000e+00
1.475069718000000085e+00,-3.843224994949999918e+00,-1.060990231889999968e+00,-8.951171819310001609e+00,1.637781038879999873e-02,1.091435365379999842e-02,-1.840147539039999796e-03,1.000000000000000000e+00
1.480055128000000053e+00,-3.805606335169999799e+00,-1.018495563570000151e+00,-8.979563216529999892e+00,1.073905173689999881e-02,6.653577554970000439e-03,-6.365551613270000429e-03,1.000000000000000000e+00
1.485035263000000105e+00,-3.834569102550000164e+00,-1.028902318229999890e+00,-8.956050238999999635e+00,2.539554983380000117e-02,-2.701648045329999807e-03,-9.598409757020000960e-03,1.000000000000000000e+00
1.490128007999999893e+00,-3.828299228500000151e+00,-1.012397758160000105e+00,-8.969543926819998347e+00,2.342829108240000041e-02,1.652442663910000040e-02,-1.163654029370000086e-02,1.000000000000000000e+00
1.494956436000000055e+00,-3.897163505890000046e+00,-1.008759986179999846e+00,-8.972381780589998357e+00,1.633578538890000098e-02,8.987730368969999717e-03,8.039081469180000411e-03,1.000000000000000000e+00
1.500038401999999937e+00,-3.802418352790000622e+00,-9.979346407790000706e-01,-8.962623187649999323e+00,1.366053149100000114e-02,6.301932502539999738e-03,-2.569697983559999718e-02,1.000000000000000000e+00
1.505044005000000018e+00,-3.866335236899999916e+00,-1.044708009330000076e+00,-8.988642595039999961e+00,1.540600415320000222e-02,-2.241368172689999980e-03,-4.087951034309999544e-03,1.000000000000000000e+00
1.510020933999999926e+00,-3.855281927969999689e+00,-1.082118652379999935e+00,-8.925485589389998253e+00,1.975952088829999870e-02,-2.886590315029999992e-03,-2.973921829829999884e-03,1.000000000000000000e+00
1.515103247999999958e+00,-3.826424374530000172e+00,-1.025190823430000009e+00,-8.942728400610000961e+00,1.917614415290000082e-02,6.866912823169999368e-03,-1.429692003879999909e-02,1.000000000000000000e+00
1.520014953000000002e+00,-3.857947932310000105e+00,-1.084899661399999937e+00,-8.967530833430000570e+00,1.759158819909999866e-02,6.056429352609999685e-03,-6.414163392039999925e-03,1.000000000000000000e+00
1.524995450000000030e+00,-3.811449800500000151e+00,-1.168560525900000036e+00,-9.003444442859999342e+00,2.180933207270000299e-02,-7.973778061569999909e-03,-9.558640420440000715e-03,1.000000000000000000e+00
1.529925516000000041e+00,-3.845443840040000172e+00,-1.059737747610000058e+00,-8.945127862969998844e+00,2.235591039059999993e-02,5.450001452119999749e-03,-6.592446006829999310e-03,1.000000000000000000e+00
1.534916267000000056e+00,-3.886899886020000139e+00,-1.019450745410000136e+00,-8.984459756399999719e+00,2.735472097990000045e-02,4.635029006749999576e-03,-9.055363945660000261e-03,1.000000000000000000e+00
1.540017954000000078e+00,-3.825064484359999906e+00,-1.005685401040000038e+00,-8.881300995220000161e+00,2.769197896120000058e-02,-7.610425353050000348e-03,-1.289590168739999931e-02,1.000000000000000000e+00
1.545106799999999891e+00,-3.883603182569999479e+00,-1.149826891600000067e+00,-8.912087763149999731e+00,2.998816594479999931e-02,-3.121755551550000046e-03,6.390576250850000736e-03,1.000000000000000000e+00
1.550053176000000033e+00,-3.830371066330000129e+00,-1.160665900189999933e+00,-8.933093726299999204e+00,2.215575426820000013e-02,1.873774453999999955e-04,-8.293049409990000537e-03,1.000000000000000000e+00
1.555044612999999964e+00,-3.899833894140000368e+00,-1.034073437260000006e+00,-8.885475650560001881e+00,2.084406837819999941e-02,9.790554177019998843e-04,-1.702674548139999910e-03,1.000000000000000000e+00
1.560005754999999938e+00,-3.817760883349999634e+00,-1.146364549249999865e+00,-8.921832912100001067e+00,1.130103413020000155e-02,-4.458831157540000048e-03,-1.292168535289999962e-02,1.000000000000000000e+00
1.564972779999999952e+00,-3.788433666569999581e+00,-1.153624164990000089e+00,-8.909348109049998854e+00,9.542454965409999032e-03,-2.956525655460000290e-03,-6.193414330479999654e-03,1.000000000000000000e+00
1.570089899999999927e+00,-3.844509189540000094e+00,-1.095412945170000096e+00,-8.932569994690000570e+00,1.400540862229999843e-02,-4.154115915300000614e-03,1.066124159839999808e-02,1.000000000000000000e+00
1.575131983999999985e+00,-3.788035022649999917e+00,-1.079913251290000042e+00,-8.939078645930001343e+00,2.198752388359999713e-02,-2.615242265160000121e-03,-1.458088587970000037e-02,1.000000000000000000e+00
1.579995440000000029e+00,-3.885244227769999448e+00,-1.046687565770000106e+00,-8.954387858739998762e+00,1.883779466149999859e-02,-1.022230461240000027e-02,2.060068538410000146e-03,1.000000000000000000e+00
1.585005309999999890e+00,-3.818068634119999416e+00,-1.050020436520000100e+00,-8.915798892630000694e+00,1.799089461570000173e-02,-1.901478506619999967e-02,-1.490443944930000065e-03,1.000000000000000000e+00
1.590039202999999901e+00,-3.850908242930000558e+00,-1.057986666159999922e+00,-8.894061108069999833e+00,2.308524399999999782e-02,-3.819388803090000267e-04,-1.273328065870000039e-02,1.000000000000000000e+00
1.595023392000000095e+00,-3.843796365099999779e+00,-1.083576230770000093e+00,-8.947575256120000375e+00,2.054889127610000019e-02,-1.051267795260000040e-02,-6.538053043189999587e-03,1.000000000000000000e+00
1.599978660000000108e+00,-3.834086287459999909e+00,-1.111456171339999965e+00,-9.003742549020000041e+00,2.591486647729999981e-02,-2.143182046709999830e-02,-1.120741944760000127e-04,1.000000000000000000e+00
1.605027992999999986e+00,-3.838806593980000237e+00,-1.059307393370000128e+00,-9.019999856340000122e+00,3.616627305749999660e-02,-8.953610435129998740e-03,1.522862818089999910e-02,1.000000000000000000e+00
1.610082479999999983e+00,-3.794778067169999325e+00,-1.031895143370000101e+00,-9.007507454510001565e+00,3.379025310279999694e-02,-1.283676363529999941e-02,1.568451523779999801e-02,1.000000000000000000e+00
1.615040878999999929e+00,-3.741159289700000112e+00,-9.772910081350000278e-01,-8.997569413339999045e+00,4.960651695730000643e-02,-1.746251247819999991e-02,1.671671681109999918e-02,1.000000000000000000e+00
1.620127120000000032e+00,-3.736054952300000398e+00,-9.153389212870000069e-01,-8.998329876319999698e+00,6.433088332410000221e-02,-4.217117279769999616e-02,-2.104113809759999626e-04,1.000000000000000000e+00
1.625193528000000054e+00,-3.810843359040000600e+00,-8.771427538830000037e-01,-9.014281478690000071e+00,5.895095318559999409e-02,-4.438987374310000150e-02,-1.775478757920000150e-02,1.000000000000000000e+00
1.630073882000000030e+00,-3.855888953949999642e+00,-9.009435353829998716e-01,-9.015326603829999286e+00,7.114256173369999658e-02,-6.872406601910001356e-02,-1.191857084629999869e-02,1.000000000000000000e+00
1.635025350999999905e+00,-3.914876272709999494e+00,-1.046019164989999917e+00,-8.905843315800000326e+00,6.481497734789999632e-02,-5.472579598430000331e-02,-1.548012718559999869e-02,1.000000000000000000e+00
1.640012272999999965e+00,-3.838844295649999960e+00,-1.127444817790000053e+00,-8.939522882569999496e+00,8.341936022039998788e-02,-5.263955146069999869e-02,-2.192648127680000072e-02,1.000000000000000000e+00
1.645019513999999905e+00,-3.856227392119999653e+00,-1.184889656349999987e+00,-8.978587649499999657e+00,9.367729723449999546e-02,-4.035322368140000643e-02,-1.760051585729999896e-02,1.000000000000000000e+00
1.650033373999999942e+00,-3.833087924080000430e+00,-1.201309972210000021e+00,-9.062658263850000395e+00,9.238090366130000120e-02,-5.187976360319999924e-02,7.615773007269999867e-03,1.000000000000000000e+00
1.655166059999999995e+00,-3.763504977019999753e+00,-1.193192059139999817e+00,-9.213761263980000393e+00,1.187976971270000015e-01,-5.966311320659999778e-02,1.001221034679999899e-02,1.000000000000000000e+00
1.660066502000000055e+00,-3.880989492940000396e+00,-1.012844771269999944e+00,-9.306417335849999972e+00,1.384465098379999981e-01,-8.166974037889999927e-02,2.180490083990000230e-02,1.000000000000000000e+00
1.665082396000000076e+00,-3.949840618580000573e+00,-8.092320508920000099e-01,-9.201233206319999525e+00,1.502986401320000054e-01,-1.202055439350000060e-01,-2.068480011079999910e-03,1.000000000000000000e+00
1.670092493000000067e+00,-4.036682158949999710e+00,-7.545661755289999606e-01,-9.111566379400001026e+00,1.582450568680000003e-01,-1.416107118130000009e-01,-3.354203701019999734e-02,1.000000000000000000e+00
1.674979063999999962e+00,-4.129935319930000404e+00,-6.209662449870000378e-01,-8.816195778099999103e+00,1.788060665129999893e-01,-1.267730444669999956e-01,-4.647106677289999932e-02,1.000000000000000000e+00
1.679936386999999920e+00,-4.082716764899999795e+00,-6.277884191570000105e-01,-8.636432500669998902e+00,1.829405874009999988e-01,-1.439054161309999968e-01,-7.593511044980000291e-02,1.000000000000000000e+00
1.684998731000000083e+00,-4.045580627940000618e+00,-7.971656193920000355e-01,-8.654522284109999575e+00,1.672632694239999940e-01,-1.068468987940000003e-01,-7.878044247630000552e-02,1.000000000000000000e+00
1.690216516000000002e+00,-4.101111376499999572e+00,-8.682874664499999895e-01,-8.777132180219998858e+00,1.751430928709999946e-01,-6.116795167330000421e-02,-6.994004547599999566e-02,1.000000000000000000e+00
1.695042900000000019e+00,-4.006143228300000025e+00,-9.140241123610000074e-01,-8.814348688930000009e+00,1.700121909380000185e-01,-4.312114417550000356e-02,-7.882203906769999491e-02,1.000000000000000000e+00
1.699975613999999968e+00,-3.857451088699999975e+00,-1.083001353489999818e+00,-9.036948653049998725e+00,1.773532032969999950e-01,-3.595676273109999627e-02,-8.834572881459999694e-02,1.000000000000000000e+00
1.705032858000000040e+00,-4.024574080269999854e+00,-1.309190355079999923e+00,-9.396018111800000128e+00,1.928019523620000120e-01,-4.426819086069998938e-02,-8.885146677489999534e-02,1.000000000000000000e+00
1.710073224999999919e+00,-4.585149569440000406e+00,-1.058335771859999941e+00,-9.381603217480000367e+00,2.539937794209999877e-01,-5.269052088259999767e-02,-1.077024936680000128e-01,1.000000000000000000e+00
1.715041977000000051e+00,-4.728554124030000416e+00,-7.575854502850000172e-01,-9.201947492069999512e+00,2.649328410630000241e-01,-6.339328736069999026e-02,-1.452307850119999855e-01,1.000000000000000000e+00
1.720090365999999982e+00,-4.718772442459999716e+00,-8.451160688950000166e-01,-8.859712848270000052e+00,2.910249233250000178e-01,-6.158221140499999663e-02,-1.739136278629999921e-01,1.000000000000000000e+00
1.725014755999999982e+00,-4.233984600209999449e+00,-1.146449012659999989e+00,-8.416970250060000325e+00,3.072134852410000061e-01,-8.384635671970000134e-03,-1.849550753829999894e-01,1.000000000000000000e+00
1.729935047999999975e+00,-3.736634213490000356e+00,-1.711409658109999787e+00,-8.741172978089998935e+00,3.371566534040000285e-01,4.495707899330000229e-02,-1.751984655860000240e-01,1.000000000000000000e+00
1.735009639999999909e+00,-3.666927055539999980e+00,-1.758151097150000064e+00,-9.020189241429999782e+00,3.347057104110000014e-01,8.012414723630000013e-02,-1.559575796129999969e-01,1.000000000000000000e+00
1.739979594000000018e+00,-3.859174259230000459e+00,-1.530490927040000004e+00,-9.193184339900000168e+00,2.983473241330000247e-01,9.030645340679999133e-02,-1.505364030599999903e-01,1.000000000000000000e+00
1.745009494999999911e+00,-3.780720607980000203e+00,-1.383452107599999925e+00,-8.951058422060000908e+00,2.530684173109999935e-01,7.362414896489999361e-02,-1.610318422320000109e-01,1.000000000000000000e+00
1.749951537999999918e+00,-3.505449084119999448e+00,-1.622892147359999981e+00,-8.589760765870000370e+00,2.058500498530000111e-01,3.501756861809999372e-02,-1.535962522029999944e-01,1.000000000000000000e+00
1.754998467000000062e+00,-3.111167149959999989e+00,-2.020946731930000073e+00,-8.373364917089999082e+00,1.905585676429999986e-01,-2.824880415570000386e-03,-1.385408341880000060e-01,1.000000000000000000e+00
1.759944495999999914e+00,-3.031945144679999871e+00,-2.029584504149999802e+00,-8.375219605039999848e+00,1.996928155420000239e-01,-1.728854700919999973e-02,-1.304228901860000067e-01,1.000000000000000000e+00
1.765005076000000006e+00,-3.267180426229999490e+00,-1.872740330020000066e+00,-8.625034908350000862e+00,1.652825921770000039e-01,-2.233675494790000535e-02,-1.179646626109999985e-01,1.000000000000000000e+00
1.770153411999999982e+00,-3.595168225749999724e+00,-1.619278340779999770e+00,-8.756620722590000128e+00,1.186411678790000035e-01,-5.654350668190000900e-02,-1.163472458720000019e-01,1.000000000000000000e+00
1.775082668999999891e+00,-3.794691557930000236e+00,-1.550883288330000109e+00,-8.748079104209999457e+00,5.752385407689999952e-02,-8.929378539320000085e-02,-8.746028691530000065e-02,1.000000000000000000e+00
1.780080534999999964e+00,-3.780333362230000382e+00,-1.414134830629999895e+00,-8.602045662420000127e+00,3.837752714749999988e-02,-1.127554550769999941e-01,-4.991909116510000188e-02,1.000000000000000000e+00
1.785144333000000083e+00,-3.598220014539999845e+00,-1.629778984259999897e+00,-8.456066581169999097e+00,1.875030249359999762e-02,-9.036041796210000920e-02,-4.397549852730000403e-02,1.000000000000000000e+00
1.790128372000000079e+00,-3.496801082759999790e+00,-1.807309388079999968e+00,-8.586611946450000588e+00,3.413370251660000076e-02,-6.451997905970000002e-02,-3.772645816209999753e-02,1.000000000000000000e+00
1.794999833000000100e+00,-3.669409519999999869e+00,-1.838950580879999963e+00,-8.734486047669999920e+00,2.210421487690000450e-02,-7.871969044210000432e-02,-2.384851686659999678e-02,1.000000000000000000e+00
1.800040800999999968e+00,-3.733962363939999918e+00,-1.826191637070000207e+00,-8.797239148699999234e+00,6.285040639339999763e-03,-6.748307496310000653e-02,-8.157149888580000202e-03,1.000000000000000000e+00
1.805057141999999892e+00,-3.656399816309999995e+00,-1.682131833439999724e+00,-8.752584598939998628e+00,-4.335726052519999624e-02,-9.484019130470000558e-02,3.443150082599999613e-03,1.000000000000000000e+00
1.810088922999999905e+00,-3.729197926010000330e+00,-1.520419322620000013e+00,-8.770776089189999070e+00,-4.936381801959999899e-02,-1.221555992960000059e-01,3.704014047980000446e-02,1.000000000000000000e+00
1.815005366000000064e+00,-3.923405908380000806e+00,-1.361531513819999928e+00,-8.792203492619998784e+00,-6.929989904170000270e-02,-1.413896977900000185e-01,4.470052942630000498e-02,1.000000000000000000e+00
1.820145475999999984e+00,-4.009346408259999883e+00,-1.159088275610000052e+00,-8.816264167170000832e+00,-6.722576171159999614e-02,-1.349284797910000055e-01,3.251808509230000310e-02,1.000000000000000000e+00
1.824998166000000088e+00,-4.116107870099999566e+00,-9.598216946789999149e-01,-8.908779953779999872e+00,-5.685697123409999554e-02,-1.047684103250000054e-01,4.023781418800000120e-02,1.000000000000000000e+00
1.830020235000000106e+00,-3.974260774090000226e+00,-9.020568303879999972e-01,-8.918681170070000164e+00,-4.113507270809999700e-02,-9.543635696169999738e-02,3.708094358439999877e-02,1.000000000000000000e+00
1.835060769000000036e+00,-3.941464127640000203e+00,-1.082863333259999949e+00,-8.897496927739998895e+00,-3.599392250180000197e-02,-8.194187283520000531e-02,4.501370713109999894e-02,1.000000000000000000e+00
1.840015254000000100e+00,-3.804969498569999775e+00,-1.190485211329999959e+00,-8.928989213590000418e+00,-1.907315105200000152e-02,-9.034250676629999866e-02,2.601622790099999971e-02,1.000000000000000000e+00
1.845137355999999951e+00,-3.884575826989999925e+00,-1.074113625100000080e+00,-8.971361205379999149e+00,-2.331294817849999940e-04,-9.009221941230001474e-02,2.287328056989999803e-02,1.000000000000000000e+00
1.850044873000000090e+00,-4.042551050980000227e+00,-8.796200307170000121e-01,-9.097393477140000684e+00,-3.738835686820000427e-03,-1.097638830540000054e-01,2.668495103719999845e-02,1.000000000000000000e+00
1.855208675000000085e+00,-4.071991957259999850e+00,-6.926589507350000563e-01,-8.953088466580000571e+00,-3.551546251400000253e-03,-1.274689137939999939e-01,2.286724001169999909e-02,1.000000000000000000e+00
1.860132086999999990e+00,-4.035185490649999984e+00,-7.448525177010000276e-01,-8.913770017150000058e+00,1.034541334959999948e-02,-9.680902957919999829e-02,2.854297310109999916e-02,1.000000000000000000e+00
1.864997639000000040e+00,-3.928191096830000451e+00,-9.414202880050001054e-01,-8.914811050639999124e+00,4.430288076399999803e-02,-1.006177440289999919e-01,2.256573364140000357e-02,1.000000000000000000e+00
1.870049011000000094e+00,-3.939015857709999846e+00,-1.168865719390000057e+00,-8.962084842989998634e+00,6.252083927389999463e-02,-9.455034136769999153e-02,1.241745660080000035e-03,1.000000000000000000e+00
1.875156865999999978e+00,-4.023449460150000156e+00,-1.329136580039999904e+00,-8.950897678540000513e+00,7.111141085619999969e-02,-9.449218213559999746e-02,-6.402158178390000495e-03,1.000000000000000000e+00
1.880096374999999931e+00,-3.885743993989999812e+00,-1.425513572130000073e+00,-8.759798768099999577e+00,9.014950692649999209e-02,-1.023168638350000076e-01,-1.340872142459999944e-02,1.000000000000000000e+00
1.885088756999999893e+00,-3.398674762790000248e+00,-1.660195311439999877e+00,-8.579339325099999414e+00,6.724756956100000349e-02,-1.056968793270000040e-01,5.325934849680000020e-03,1.000000000000000000e+00
1.890000834999999935e+00,-2.907065257820000248e+00,-2.060266642670000259e+00,-8.696018077589998896e+00,5.632829666140000413e-02,-1.260129362340000059e-01,2.802858129140000168e-02,1.000000000000000000e+00
1.895018864999999941e+00,-2.927758501760000076e+00,-2.306030624749999980e+00,-8.798060986479999457e+00,3.486006334419999853e-02,-1.596813201900000034e-01,4.087326303120000087e-02,1.000000000000000000e+00
1.900098862000000111e+00,-3.321836730049999797e+00,-2.346166966440000223e+00,-8.784190866559999478e+00,-1.339751388880000040e-02,-1.741606444119999930e-01,5.918961390849999948e-02,1.000000000000000000e+00
1.905177230999999916e+00,-3.888434840509999990e+00,-2.083346781740000431e+00,-8.729193201960001147e+00,-6.432180106639999451e-02,-2.238665074109999764e-01,1.022350788120000020e-01,1.000000000000000000e+00
1.910116737999999925e+00,-3.754750300420000020e+00,-1.794499152470000025e+00,-8.577513863239998315e+00,-1.277791410679999795e-01,-2.638963162899999881e-01,1.214089319109999954e-01,1.000000000000000000e+00
1.915009688999999904e+00,-3.612682839649999700e+00,-1.706950048359999972e+00,-8.698823198130000378e+00,-1.304662823680000083e-01,-2.443278878929999731e-01,1.547026932239999875e-01,1.000000000000000000e+00
1.920041274999999992e+00,-3.615754502180000607e+00,-1.574531582680000152e+00,-8.968925502659999438e+00,-1.385910511020000124e-01,-2.152410894629999960e-01,1.395378112790000014e-01,1.000000000000000000e+00
1.925118357999999974e+00,-4.091584546480000029e+00,-1.388740423270000246e+00,-9.124366824260000897e+00,-1.258544623850000044e-01,-1.912010461089999891e-01,1.412772834300000113e-01,1.000000000000000000e+00
1.930153967999999942e+00,-4.418323222729999777e+00,-1.283457363410000163e+00,-8.928462559369998885e+00,-1.469710916279999835e-01,-1.940435767170000103e-01,1.253024637700000110e-01,1.000000000000000000e+00
1.935196217000000107e+00,-4.339320413160000278e+00,-1.303386491109999934e+00,-8.845877215139999805e+00,-1.628162860869999951e-01,-2.058685868980000278e-01,1.294479668140000039e-01,1.000000000000000000e+00
1.940144808999999970e+00,-4.262540832600000051e+00,-1.351237498819999994e+00,-8.698171456229999876e+00,-1.357111185790000063e-01,-2.154467254879999794e-01,1.461378037930000096e-01,1.000000000000000000e+00
1.945055540000000027e+00,-4.006522583009999749e+00,-1.433048936069999835e+00,-8.870878969930000579e+00,-1.245820671319999851e-01,-1.896314769980000092e-01,1.209399774669999983e-01,1.000000000000000000e+00
1.950047400000000097e+00,-3.951557943899999703e+00,-1.426385971049999979e+00,-9.145598412860000082e+00,-1.064806133510000086e-01,-1.745990663769999840e-01,1.350661665200000028e-01,1.000000000000000000e+00
1.955043069000000022e+00,-4.149581977419999568e+00,-1.258769496879999839e+00,-9.119445734470000176e+00,-8.730208873749999154e-02,-1.514063477519999867e-01,1.264385581019999982e-01,1.000000000000000000e+00
1.960036689000000054e+00,-4.361831812440000178e+00,-1.211829247329999859e+00,-8.968321691549999031e+00,-8.078784495589999559e-02,-1.573776602749999975e-01,1.644665449859999962e-01,1.000000000000000000e+00
1.965006975999999961e+00,-4.331994600319999833e+00,-1.254981210510000000e+00,-8.895757975120000438e+00,-7.062671333549999653e-02,-1.716465204950000101e-01,1.547012627119999928e-01,1.000000000000000000e+00
1.970059079999999962e+00,-4.383387810690000386e+00,-1.085031763339999955e+00,-8.924714605010001023e+00,-4.856066033239999497e-02,-1.754422932860000006e-01,1.554055511949999913e-01,1.000000000000000000e+00
1.975126383000000097e+00,-4.322220517539999918e+00,-8.888483892460000702e-01,-8.903194847119999977e+00,-4.688147827980000681e-02,-1.631660312409999869e-01,1.619363278150000029e-01,1.000000000000000000e+00
1.980168085000000078e+00,-4.241289078000000323e+00,-9.307337665570000196e-01,-8.926027441180000466e+00,-2.641969546680000142e-02,-1.600980460639999936e-01,1.353051513430000019e-01,1.000000000000000000e+00
1.985063373000000020e+00,-4.280506697409999894e+00,-9.030521981000000364e-01,-8.885855589789999343e+00,-2.545124664900000333e-02,-1.523612886669999944e-01,1.319859176869999928e-01,1.000000000000000000e+00
1.990081103000000073e+00,-4.281412121809999860e+00,-1.024500795340000048e+00,-8.898254468110000204e+00,-1.414246484639999912e-02,-1.586331874130000041e-01,1.317729651929999968e-01,1.000000000000000000e+00
1.995044596999999920e+00,-4.226877690809999422e+00,-1.159081480550000043e+00,-8.761468162619999944e+00,-4.269776865839999824e-03,-1.706628054379999981e-01,1.278594881300000041e-01,1.000000000000000000e+00
2.000066608000000024e+00,-4.182343260299999699e+00,-1.317526660139999972e+00,-8.770104473540000001e+00,1.460753381250000024e-02,-1.693172901870000080e-01,1.261352151629999974e-01,1.000000000000000000e+00
2.005019841000000191e+00,-3.940269364900000237e+00,-1.570073288100000131e+00,-8.848373123610000945e+00,8.988082408910001014e-03,-1.826246678829999970e-01,1.287690401079999991e-01,1.000000000000000000e+00
2.010007776000000135e+00,-3.773007841650000138e+00,-1.533005686340000118e+00,-8.881822973269999366e+00,-7.229448296130000159e-03,-1.740601956839999964e-01,1.464523971079999820e-01,1.000000000000000000e+00
2.015057398000000166e+00,-3.633991877400000181e+00,-1.819225305190000253e+00,-8.900128445289999135e+00,-2.088673412800000004e-02,-1.995391249659999866e-01,1.782263517379999995e-01,1.000000000000000000e+00
2.020036558000000149e+00,-3.375180782220000175e+00,-2.357154370529999987e+00,-8.708119434269999459e+00,-3.417736664409999625e-02,-2.071460932490000184e-01,1.886253207920000063e-01,1.000000000000000000e+00
2.025112217999999853e+00,-3.218604319110000223e+00,-2.725296485779999944e+00,-8.679052329739999294e+00,-9.704091399910001747e-02,-2.282254546880000123e-01,2.414985299109999872e-01,1.000000000000000000e+00
2.029935490000000176e+00,-3.535388587569999519e+00,-2.275406207780000134e+00,-8.788020069460001693e+00,-1.360796540979999913e-01,-2.327446788549999979e-01,2.814654111859999919e-01,1.000000000000000000e+00
2.034990308999999886e+00,-4.275681469210000252e+00,-2.088814691760000120e+00,-8.831371719930000808e+00,-2.201232761140000105e-01,-2.787241041660000196e-01,3.286330103869999908e-01,1.000000000000000000e+00
2.040031518000000155e+00,-4.718093228030000752e+00,-1.758190552380000105e+00,-8.631778537389999784e+00,-2.751079201699999643e-01,-2.896223664279999888e-01,3.452801406379999993e-01,1.000000000000000000e+00
2.045085255000000046e+00,-5.067073546700000541e+00,-7.205172639979999794e-01,-8.618225228330000931e+00,-3.535697460170000306e-01,-2.850078642370000304e-01,3.184303045269999966e-01,1.000000000000000000e+00
2.050075019999999970e+00,-5.120099618969999433e+00,5.103448928420000197e-01,-8.855546960760001696e+00,-3.938688337799999828e-01,-2.740590274329999798e-01,2.244493067259999974e-01,1.000000000000000000e+00
2.055125604000000106e+00,-4.876550974840000663e+00,6.261391906450000100e-01,-8.752845880219998875e+00,-4.113876521589999724e-01,-2.710865736010000249e-01,7.305487990379999630e-02,1.000000000000000000e+00
2.059987159999999928e+00,-4.502269041659999971e+00,-2.213318986769999830e-01,-8.639092659790000184e+00,-4.173300862309999859e-01,-2.856654822830000384e-01,-4.471902921799999348e-02,1.000000000000000000e+00
2.065069692999999873e+00,-4.342934219750000047e+00,-1.147509554570000034e+00,-8.478304716460000279e+00,-3.775401115420000120e-01,-2.753725349900000285e-01,-1.017293483019999917e-01,1.000000000000000000e+00
2.070017368999999885e+00,-4.630431311189999732e+00,-1.856981181479999909e+00,-8.466561671699999181e+00,-3.263439536089999815e-01,-2.847998440269999820e-01,-8.634602278470000780e-02,1.000000000000000000e+00
2.075071454999999787e+00,-4.636505370410000104e+00,-2.163689315479999653e+00,-8.540258191550000433e+00,-3.137081265450000211e-01,-2.863128185269999681e-01,-1.319459360089999915e-02,1.000000000000000000e+00
2.079990640000000113e+00,-4.324916332499999960e+00,-2.315254964690000250e+00,-8.718332785250000327e+00,-3.334071934219999811e-01,-2.455423921350000094e-01,9.226400405169998820e-02,1.000000000000000000e+00
2.084961627999999845e+00,-4.242239218329999950e+00,-2.220521648159999639e+00,-8.597231540139999240e+00,-3.276517689229999641e-01,-1.979590654369999814e-01,1.955257505180000022e-01,1.000000000000000000e+00
2.090078967999999815e+00,-4.458488352119999831e+00,-1.685714952629999708e+00,-8.627443723049999846e+00,-3.408472537989999940e-01,-1.831440776590000097e-01,2.652844190599999985e-01,1.000000000000000000e+00
2.095122491000000142e+00,-4.338646751690000691e+00,-1.383529410620000011e+00,-8.737190630449999773e+00,-3.384784758089999790e-01,-1.684892177580000205e-01,2.982759773729999897e-01,1.000000000000000000e+00
2.100043499999999952e+00,-4.304172235150000247e+00,-1.223416151679999953e+00,-8.926900132360000129e+00,-3.253850936890000378e-01,-1.629860252140000187e-01,3.147623240949999901e-01,1.000000000000000000e+00
2.105080490999999832e+00,-4.199119330790000326e+00,-1.194001621950000036e+00,-8.926201628699999446e+00,-3.024968504910000022e-01,-1.711348146200000198e-01,3.243312239649999706e-01,1.000000000000000000e+00
2.109999200999999935e+00,-4.115573617099999915e+00,-1.322963736629999776e+00,-8.807555960049999300e+00,-2.758668661120000087e-01,-1.769281774760000092e-01,3.398712575439999939e-01,1.000000000000000000e+00
2.115143449000000064e+00,-4.142486758459999585e+00,-1.163854394039999907e+00,-8.858640835119999224e+00,-2.653094530110000071e-01,-1.901557147500000100e-01,3.454100191589999924e-01,1.000000000000000000e+00
2.120013627000000067e+00,-4.400147806830000619e+00,-9.075376729510000740e-01,-8.882637212260000581e+00,-2.681322991849999782e-01,-2.092281579969999805e-01,3.692480325699999955e-01,1.000000000000000000e+00
2.125039096000000072e+00,-4.485036167300000542e+00,-7.143925705720000074e-01,-8.751058996810000323e+00,-2.767390012739999738e-01,-2.058069258929999812e-01,3.643057346340000113e-01,1.000000000000000000e+00
2.129983651999999950e+00,-4.422576203999999400e+00,-6.787649384829999022e-01,-8.603370189030000503e+00,-2.690929770470000260e-01,-1.922009438280000149e-01,3.480398654940000114e-01,1.000000000000000000e+00
2.134999520000000039e+00,-4.417903828270000055e+00,-9.232977713369999728e-01,-8.528894501499999947e+00,-2.411297559739999929e-01,-1.807341426610000190e-01,3.512262403959999779e-01,1.000000000000000000e+00
2.140066344000000065e+00,-4.483084156449999469e+00,-9.703913117489999518e-01,-8.497033382330000606e+00,-2.327373772859999967e-01,-1.666408926249999811e-01,3.579970598219999744e-01,1.000000000000000000e+00
2.145030805000000207e+00,-4.620192825769999345e+00,-9.226876035490000350e-01,-8.550998196749999281e+00,-2.149017453189999982e-01,-1.549851596360000139e-01,3.501203954219999637e-01,1.000000000000000000e+00
2.149968986999999832e+00,-4.707628240380000051e+00,-9.807701554880000616e-01,-8.558000768989998619e+00,-2.409893572329999956e-01,-1.570640057330000006e-01,3.497570455070000417e-01,1.000000000000000000e+00
2.155042690000000150e+00,-4.642039915919999871e+00,-7.525503787270000355e-01,-8.529493636430000691e+00,-2.731519937519999996e-01,-1.501371115450000071e-01,3.728644847869999612e-01,1.000000000000000000e+00
2.160165459999999982e+00,-4.827122050290000743e+00,-6.121588518159999381e-01,-8.619298410519999010e+00,-2.833971083160000126e-01,-1.485088020560000055e-01,3.742456138130000332e-01,1.000000000000000000e+00
2.165081316000000200e+00,-4.728723927639999935e+00,-7.511190307489999940e-01,-8.559977622019999899e+00,-2.637978792189999977e-01,-1.031655967239999971e-01,3.693932294849999742e-01,1.000000000000000000e+00
2.170093535999999990e+00,-4.685482459540000200e+00,-5.254446641550000185e-01,-8.710045433889998634e+00,-2.577728927140000015e-01,-1.037512719630000052e-01,3.722095787529999811e-01,1.000000000000000000e+00
2.175002779000000164e+00,-4.609622916440000218e+00,-4.541384004399999785e-01,-8.847073731449999201e+00,-2.187144309279999976e-01,-1.097430735830000059e-01,3.451774120330000084e-01,1.000000000000000000e+00
2.180009356999999870e+00,-4.718655245829999956e+00,-5.241986461490000249e-01,-8.856859212399999848e+00,-2.041273713109999777e-01,-1.194953098890000065e-01,3.450965285300000018e-01,1.000000000000000000e+00
2.184991829999999968e+00,-4.721288516939999624e+00,-6.087902521660000232e-01,-9.015746290550000097e+00,-1.789828389879999926e-01,-1.520462334160000151e-01,3.399871885779999769e-01,1.000000000000000000e+00
2.190067212999999846e+00,-4.373940767909999749e+00,-5.753250953390000033e-01,-8.971426671830000643e+00,-1.647979766129999968e-01,-1.673785895109999866e-01,3.589152395729999778e-01,1.000000000000000000e+00
2.195112638999999977e+00,-4.367636114799999802e+00,-7.787057605289999795e-01,-9.126108114970000074e+00,-1.465269923209999992e-01,-1.632323563099999930e-01,3.513331413270000536e-01,1.000000000000000000e+00
2.200066276999999904e+00,-4.480979000869999673e+00,-5.503348848589999509e-01,-9.028335138480001021e+00,-1.485907435419999978e-01,-1.877291500569999994e-01,3.529917001719999892e-01,1.000000000000000000e+00
2.205073715000000156e+00,-4.650698438670000101e+00,-1.671658808620000158e-01,-8.950360502919998851e+00,-1.565946638579999994e-01,-2.083407193419999914e-01,3.438205122950000470e-01,1.000000000000000000e+00
2.210028808000000122e+00,-4.690146359699999934e+00,-4.412601411020000142e-01,-8.904443385880000505e+00,-1.556915044779999813e-01,-2.255236953499999975e-01,3.165369331840000022e-01,1.000000000000000000e+00
2.215001674999999892e+00,-4.761435233890000340e+00,-5.427003713930000917e-01,-8.682067878169998920e+00,-1.274211704730000005e-01,-2.335415482519999919e-01,3.091874718670000188e-01,1.000000000000000000e+00
2.220054465000000032e+00,-4.724246489959999629e+00,-5.275415999009999135e-01,-8.579593007599999765e+00,-1.148314923049999908e-01,-2.275441139939999857e-01,2.830363512040000029e-01,1.000000000000000000e+00
2.225016457999999808e+00,-4.973163675380000370e+00,-4.033718340709999683e-01,-8.484231768429999931e+00,-1.185634434219999950e-01,-2.270220518109999919e-01,2.653394937519999996e-01,1.000000000000000000e+00
2.229970917999999802e+00,-5.217756860119999729e+00,-3.985615477120000305e-01,-8.575242411170000523e+00,-1.230523288250000014e-01,-2.106997072700000084e-01,2.526188194750000338e-01,1.000000000000000000e+00
2.235091240000000035e+00,-5.219008906010000004e+00,-2.030593973460000090e-01,-8.533134623280000497e+00,-1.405683755869999996e-01,-1.739495992660000101e-01,2.304822653530000098e-01,1.000000000000000000e+00
2.240060621000000030e+00,-5.068022810249999566e+00,3.854328664099999913e-02,-8.590615921389998633e+00,-1.618407368660000067e-01,-1.671366095540000041e-01,2.088697105649999775e-01,1.000000000000000000e+00
2.245038511999999820e+00,-4.871894088949999535e+00,-2.493637510090000037e-02,-8.586846924249998736e+00,-1.215294152500000086e-01,-1.480018049479999986e-01,1.542818993329999888e-01,1.000000000000000000e+00
2.249962850999999819e+00,-4.816400749780000545e+00,-2.096802402580000002e-01,-8.846202209310000342e+00,-9.797611832619999850e-02,-1.572216898200000101e-01,1.445357948540000048e-01,1.000000000000000000e+00
2.255013719999999999e+00,-4.685732927169999229e+00,-1.830163792099999964e-01,-9.011152533019998856e+00,-7.876212894919999707e-02,-1.451756954189999949e-01,1.327642947440000054e-01,1.000000000000000000e+00
2.260087239000000192e+00,-4.502952055480000659e+00,7.799753923059999511e-03,-9.300966084710001525e+00,-4.971488192680000029e-02,-1.809170842170000071e-01,1.064499691130000036e-01,1.000000000000000000e+00
2.264966013000000000e+00,-4.296946375550000141e+00,-2.390761748840000145e-01,-9.566502688750000871e+00,-4.151994734999999576e-02,-2.202599197630000227e-01,8.072672784329999740e-02,1.000000000000000000e+00
2.270166670000000053e+00,-4.148751664080000623e+00,-1.333978868980000010e-01,-9.906667540539999095e+00,1.952679455280000032e-02,-2.770718932149999758e-01,9.399233013389998725e-02,1.000000000000000000e+00
2.275044138000000160e+00,-3.828096691659999884e+00,-2.984210931749999851e-01,-1.029825161389999977e+01,2.076427638529999842e-02,-3.485172688959999876e-01,9.458214789629999786e-02,1.000000000000000000e+00
2.280022831000000139e+00,-3.960673855030000023e+00,-4.500794073730000067e-01,-1.083710948450000089e+01,6.390351057050000505e-02,-4.447741806509999951e-01,9.209441393610000304e-02,1.000000000000000000e+00
2.285064755000000059e+00,-3.905806246549999639e+00,-5.020462163779999543e-01,-1.103816280280000051e+01,8.762870728970000023e-02,-5.842925310130000494e-01,1.005718857049999887e-01,1.000000000000000000e+00
2.290045365000000110e+00,-3.633419045950000204e+00,-6.625165451240000447e-01,-1.106763556549999983e+01,1.019240021710000055e-01,-7.023175954820000122e-01,8.901964873079999674e-02,1.000000000000000000e+00
2.295032334000000063e+00,-3.715571259459999887e+00,-5.359612358640000185e-01,-1.129582472789999947e+01,1.061350256200000036e-01,-8.687465786929999823e-01,1.103130131959999954e-01,1.000000000000000000e+00
2.300019580999999924e+00,-3.783022747440000000e+00,-2.680693739270000320e-01,-1.129224160869999949e+01,1.104533523320000016e-01,-9.998233318329999841e-01,1.333727538589999928e-01,1.000000000000000000e+00
2.305141083000000091e+00,-3.842003928719999628e+00,-1.611190384450000013e-01,-1.136392035900000153e+01,1.126971468330000004e-01,-1.182652473449999908e+00,1.140988543630000046e-01,1.000000000000000000e+00
2.309983121000000139e+00,-3.709184773290000070e+00,-4.901939025529999938e-01,-1.155284367900000042e+01,1.446058601139999789e-01,-1.340815782550000002e+00,7.763712108139998735e-02,1.000000000000000000e+00
2.314997749000000216e+00,-3.457141272549999922e+00,-4.242551937540000040e-01,-1.192988835489999921e+01,1.824755221609999922e-01,-1.499886989589999997e+00,5.299818143249999947e-02,1.000000000000000000e+00
2.320059763000000164e+00,-3.361741454929999762e+00,-3.890217851470000321e-01,-1.247568917650000131e+01,2.259428352120000094e-01,-1.695470571520000025e+00,5.074412375690000310e-02,1.000000000000000000e+00
2.325047188000000098e+00,-3.366968834190000148e+00,2.901955732790000367e-02,-1.299863636130000089e+01,2.324533611540000044e-01,-1.910095930100000006e+00,9.207665920260000442e-03,1.000000000000000000e+00
2.330104507999999797e+00,-3.030909079629999781e+00,3.670981591629999818e-01,-1.339383745609999821e+01,2.459458112719999923e-01,-2.163664340970000044e+00,-4.848071187730000620e-02,0.000000000000000000e+00
2.335088321999999827e+00,-3.119848761320000108e+00,4.549846054739999923e-01,-1.386611360730000087e+01,2.579326629639999702e-01,-2.475074529650000077e+00,-1.095520257950000076e-01,0.000000000000000000e+00
2.340092137000000072e+00,-2.957604773969999989e+00,7.443566970080000011e-01,-1.406634859490000089e+01,2.658441662789999826e-01,-2.774698257449999872e+00,-2.022619992489999852e-01,0.000000000000000000e+00
2.344989577000000214e+00,-2.604709035419999985e+00,7.522857912399999458e-02,-1.424770586349999846e+01,3.095892369750000150e-01,-3.085300445560000160e+00,-2.571870684620000125e-01,0.000000000000000000e+00
2.349971802999999859e+00,-2.674499195479999702e+00,5.777724519589999552e-01,-1.408144796440000057e+01,3.588866889480000211e-01,-3.409965991970000054e+00,-3.170907795430000231e-01,0.000000000000000000e+00
2.355109506999999880e+00,-2.465966919680000036e+00,5.343283008989999638e-01,-1.406919170940000008e+01,4.137312471869999952e-01,-3.747506141660000178e+00,-3.687267601489999658e-01,0.000000000000000000e+00
2.360096914000000101e+00,-2.577261056520000260e+00,9.026873833759999632e-01,-1.416806826319999857e+01,4.809032380580000043e-01,-4.076272487639999831e+00,-4.223089516160000167e-01,0.000000000000000000e+00
2.364987032999999794e+00,-2.549406834920000087e+00,7.763038139540000548e-01,-1.416284029940000089e+01,5.439502000810000348e-01,-4.394990921019999774e+00,-4.291235804559999645e-01,0.000000000000000000e+00
2.370006594999999994e+00,-2.133516003270000017e+00,8.227868212520000890e-01,-1.440800865369999961e+01,6.090127825739999334e-01,-4.725583076480000422e+00,-4.430924057960000106e-01,0.000000000000000000e+00
2.375066916000000194e+00,-1.356942140209999925e+00,6.986695162620000232e-01,-1.412394738190000076e+01,7.170993089680000043e-01,-5.005246162409999755e+00,-4.336717128750000039e-01,0.000000000000000000e+00
2.379960536000000015e+00,-1.321818804379999879e+00,-7.115137271999999458e-01,-1.489830678380000073e+01,8.229148983959999608e-01,-5.348754882809999778e+00,-4.368602037430000529e-01,0.000000000000000000e+00
2.385056418000000011e+00,-1.193986205189999872e+00,-1.235636458570000151e+00,-1.451242413689999999e+01,9.039060473440000409e-01,-5.741269588469999796e+00,-4.101548790929999688e-01,0.000000000000000000e+00
2.390034696999999930e+00,-3.604222250630000346e-01,-1.032319433199999859e+00,-1.486164323280000055e+01,9.562118649480000343e-01,-6.124280452729999880e+00,-3.622615635399999978e-01,0.000000000000000000e+00
2.395100735999999841e+00,1.850505336530000045e-01,-9.430451127279999568e-01,-1.444482534940000029e+01,9.500383138660000171e-01,-6.633540153500000258e+00,-2.276164889339999942e-01,0.000000000000000000e+00
2.399969916999999953e+00,5.924340875829999797e-01,-1.711374879060000076e+00,-1.400553143039999959e+01,9.499316811560000184e-01,-7.159550189970000034e+00,-7.091877609489999346e-02,0.000000000000000000e+00
2.405022991000000054e+00,1.236067890520000170e-02,-1.184424011599999993e+00,-1.408448747819999980e+01,9.398469924930000774e-01,-7.740216255189999117e+00,1.516006886959999911e-01,0.000000000000000000e+00
2.410027131000000100e+00,-4.514039339750000046e-01,-3.228884597840000481e+00,-1.540991658200000103e+01,9.192330837250000108e-01,-8.359217643739999204e+00,3.534360826019999902e-01,0.000000000000000000e+00
2.415074719000000147e+00,-4.975816016520000495e-01,-6.634227586349999761e+00,-1.438170984479999959e+01,9.425066113469999785e-01,-8.871908187869999907e+00,5.309694409369999368e-01,0.000000000000000000e+00
2.420117869999999893e+00,-2.811346875770000420e+00,-7.185776011719998912e+00,-1.550988619180000150e+01,8.583616018299999872e-01,-9.138731002810001058e+00,6.441060900689999924e-01,0.000000000000000000e+00
2.425117999999999885e+00,-7.347865100769999991e+00,-8.183954105870000717e+00,-1.556098977150000096e+01,5.447887778279999482e-01,-9.145189285280000746e+00,6.863531470300000548e-01,0.000000000000000000e+00
2.430021828000000106e+00,-1.335318512769999977e+01,-8.865613596750000269e+00,-1.580463018559999888e+01,1.756844222550000001e-01,-9.148120880129999577e+00,8.152314424510000990e-01,0.000000000000000000e+00
2.435123601999999998e+00,-1.880246409409999941e+01,-7.670618799039999658e+00,-1.335469202520000032e+01,-2.074435800309999967e-01,-9.147688865660001056e+00,8.903384804729999047e-01,0.000000000000000000e+00
2.440048919000000094e+00,-1.917380266729999860e+01,-1.067447445200000011e+01,-1.206893676009999972e+01,-3.460675179959999959e-01,-9.152356147769999950e+00,1.130713462829999960e+00,0.000000000000000000e+00
2.445017774000000088e+00,-1.950249919959999900e+01,-9.482731934129999374e+00,-1.317280401070000018e+01,-2.395223081109999763e-01,-9.154442787169999818e+00,1.372019290919999968e+00,0.000000000000000000e+00
2.449995283999999884e+00,-2.170832231420000014e+01,-7.057455921279999878e+00,-1.296740184959999986e+01,-2.623132169249999812e-01,-8.932870864869999039e+00,1.791491866109999664e+00,0.000000000000000000e+00
2.455035785999999831e+00,-2.147441535869999996e+01,-8.306335453910000055e+00,-1.495669584440000044e+01,-3.740581572059999971e-01,-8.141341209410001056e+00,2.117342233660000073e+00,0.000000000000000000e+00
2.459920498999999872e+00,-1.985301710310000090e+01,-9.456305114980001036e+00,-1.792182809130000010e+01,-6.833545565610000816e-01,-7.614684104920000252e+00,2.305962324140000241e+00,0.000000000000000000e+00
2.465150158999999785e+00,-2.361380522239999635e+01,-1.188145837819999961e+01,-2.046074451180000153e+01,-1.059976339339999907e+00,-7.259304046629999618e+00,2.267791271210000126e+00,0.000000000000000000e+00
2.470072242000000085e+00,-2.800266678830000089e+01,-1.434769183989999952e+01,-1.932516227260000008e+01,-1.399909019469999905e+00,-6.835977554319999427e+00,2.195630311970000026e+00,0.000000000000000000e+00
2.474992047999999834e+00,-3.712018184699999779e+01,-1.629191335180000166e+01,-2.355991931840000220e+01,-1.680005788799999955e+00,-6.666354179380000744e+00,1.979694604870000152e+00,0.000000000000000000e+00
2.480153653999999985e+00,-4.233095834670000102e+01,-1.743676610829999873e+01,-2.021615249609999765e+01,-1.824012517929999744e+00,-5.589158058169998888e+00,1.955402255059999872e+00,0.000000000000000000e+00
2.485046629999999812e+00,-3.327076851880000419e+01,-1.634085069349999841e+01,-2.441742929719999822e+01,-1.986817121509999895e+00,-3.993661403659999998e+00,2.144254446029999706e+00,0.000000000000000000e+00
2.490049674999999851e+00,-1.974636056299999964e+01,-1.504584127779999925e+01,-2.407593524269999818e+01,-2.149748086929999857e+00,-2.776234865189999734e+00,2.285186529159999758e+00,0.000000000000000000e+00
2.495073678999999878e+00,-5.621928027869999234e+00,-1.516795725289999908e+01,-1.866353142420000211e+01,-2.560523986820000264e+00,-1.056890726090000010e+00,2.472300767899999752e+00,0.000000000000000000e+00
2.500042393999999835e+00,2.641024912809999847e+01,-2.497057639000000151e+01,-1.359275142420000115e+01,-2.851792097089999700e+00,3.262198686600000119e+00,2.973050117490000144e+00,0.000000000000000000e+00
2.505124931000000110e+00,-4.970831199229999697e+01,8.656161283490000358e-01,-2.054358763020000112e+01,-5.068006038670000102e+00,-1.870396375659999944e+00,3.073166370390000512e+00,0.000000000000000000e+00
2.510073853000000188e+00,-4.623156644010000349e+01,-2.597358088140000021e+01,-2.431906361550000284e+01,-6.195715904240000071e+00,-2.981775522229999975e+00,2.492953062059999780e+00,0.000000000000000000e+00
2.515001468999999990e+00,-3.929526963160000008e+01,-2.568343824380000129e+01,-2.785862422809999828e+01,-6.153895854950000022e+00,-1.989191412929999903e+00,3.478964567180000689e+00,0.000000000000000000e+00
2.519986273999999860e+00,-2.595644036150000034e+01,-9.373754842060000314e+00,-2.487113284989999684e+01,-5.718537330630001136e+00,-6.268364787100000335e-01,3.119935512540000122e+00,0.000000000000000000e+00
2.524980504000000181e+00,-1.692120026589999782e+01,-1.115342701229999989e+01,-1.905023473980000048e+01,-6.223577022549999782e+00,-3.045511543750000216e-01,3.158507585529999773e+00,0.000000000000000000e+00
2.529936999999999880e+00,-2.347591417059999941e+01,-1.675377098490000094e+01,-1.580187474940000136e+01,-6.218573093409999863e+00,2.005148649220000134e+00,3.282073497769999904e+00,0.000000000000000000e+00
2.535002185000000186e+00,-1.717291526529999857e+01,-2.390023965309999809e+01,-1.731986173030000131e+01,-6.242541790009998870e+00,3.429078340529999824e+00,3.973347187039999895e+00,0.000000000000000000e+00
2.540128628999999805e+00,-1.543156025859999936e+01,-2.093473097410000250e+01,-1.816862375450000044e+01,-6.387676715850000519e+00,4.126763820649999914e+00,4.586757183069999577e+00,0.000000000000000000e+00
2.544977536000000207e+00,-1.295408761000000020e+01,-2.010098531730000104e+01,-2.096415814410000067e+01,-6.798826217650000281e+00,4.172876358029999899e+00,4.907210826870000098e+00,0.000000000000000000e+00
2.550058262999999936e+00,-9.966224475880000711e+00,-1.942122026180000205e+01,-2.009832691169999919e+01,-7.167474269869999581e+00,3.928416967390000014e+00,4.666164398190000284e+00,0.000000000000000000e+00
2.555037641999999831e+00,-8.018572989529999973e+00,-2.344360413860000136e+01,-1.884517393950000042e+01,-7.085516929630000682e+00,3.670711278919999820e+00,4.594048500059999540e+00,0.000000000000000000e+00
2.560119740999999838e+00,-8.275802368480000837e+00,-2.369578792460000116e+01,-1.606274920690000130e+01,-6.883712291719999321e+00,3.614819288250000096e+00,4.709026813510000409e+00,0.000000000000000000e+00
2.565062401000000047e+00,-8.947052109030000366e+00,-2.400832944090000254e+01,-1.394441031450000068e+01,-6.702393531799999415e+00,3.843107938769999787e+00,4.871124267579999945e+00,0.000000000000000000e+00
2.569976696999999977e+00,-7.570480846980000678e+00,-2.508608726769999819e+01,-1.185705458930000056e+01,-6.730632781980000701e+00,4.458174705510000280e+00,4.896502494809999995e+00,0.000000000000000000e+00
2.574973363999999876e+00,-4.159512419810000416e+00,-2.678893046530000177e+01,-1.076260866259999993e+01,-6.710266113280000333e+00,5.095166683199999547e+00,4.636412143710000322e+00,0.000000000000000000e+00
2.580090949000000133e+00,-1.599387499259999901e+00,-2.694702726979999952e+01,-9.331779740639998266e+00,-6.789646625519999645e+00,5.636966228489999509e+00,4.307117462159999910e+00,0.000000000000000000e+00
2.585012273999999888e+00,4.863945468030000246e-02,-2.600500711619999805e+01,-9.947934785960001136e+00,-6.940988063810000774e+00,6.028361320499999287e+00,3.891902446750000077e+00,0.000000000000000000e+00
2.589986049000000179e+00,2.520291799590000270e+00,-2.618093651459999904e+01,-9.934659124799999574e+00,-7.135352134700000626e+00,6.072533130650000999e+00,3.379409074779999855e+00,0.000000000000000000e+00
2.594994773999999893e+00,3.769020525569999780e+00,-2.670181799899999930e+01,-9.282850582300000042e+00,-7.210196971889998530e+00,5.895370006560000320e+00,2.827304363249999675e+00,0.000000000000000000e+00
2.600080328999999857e+00,4.667095154460000117e+00,-2.695706701780000358e+01,-8.204773022010000361e+00,-7.122962474819999557e+00,5.608365058899999589e+00,2.212321281429999953e+00,0.000000000000000000e+00
2.605117867000000142e+00,5.027881938520000205e+00,-2.591777306939999903e+01,-7.307015203989998930e+00,-6.864547729489999917e+00,5.398538589480001093e+00,1.532928347589999962e+00,0.000000000000000000e+00
2.610107090000000074e+00,5.086321267999999840e+00,-2.395607786010000240e+01,-6.193445474559999830e+00,-6.458587646479999833e+00,5.322305202479999942e+00,7.982798814770000195e-01,0.000000000000000000e+00
2.615034382000000157e+00,5.008005856180000492e+00,-2.234617130499999860e+01,-4.941473821130000665e+00,-5.943705081940000134e+00,5.414012908940000202e+00,5.076107382770000259e-02,0.000000000000000000e+00
2.620049296999999999e+00,4.748555586310000187e+00,-2.173642612669999963e+01,-4.231548897489999739e+00,-5.247552394869999581e+00,5.613389968869999969e+00,-6.161574721339999616e-01,0.000000000000000000e+00
2.625042999999999793e+00,4.580482746669999550e+00,-2.154199544149999923e+01,-4.062465127240000307e+00,-4.521807670590000328e+00,5.938232421880000445e+00,-1.199940323829999933e+00,0.000000000000000000e+00
2.630002977000000186e+00,4.818070144300000024e+00,-2.251578319070000234e+01,-3.952867565190000043e+00,-3.829092264180000260e+00,6.277345180510000233e+00,-1.777821183199999933e+00,0.000000000000000000e+00
2.635056941999999847e+00,4.547901788799999956e+00,-2.452409285170000075e+01,-4.083848107009999673e+00,-3.268645286559999530e+00,6.505992889400000756e+00,-2.264685630800000293e+00,0.000000000000000000e+00
2.640145743999999794e+00,4.196185615430000126e+00,-2.697731953219999923e+01,-4.399731042719999152e+00,-2.936749696729999748e+00,6.680140972140000244e+00,-2.675844430920000239e+00,0.000000000000000000e+00
2.645172554000000176e+00,4.048751074669999284e+00,-2.923964370170000038e+01,-4.105703964990000010e+00,-2.851126193999999892e+00,6.764720916749999091e+00,-2.971052646640000461e+00,0.000000000000000000e+00
2.649971305000000221e+00,4.135696952189999998e+00,-3.116342682119999807e+01,-3.907819632190000281e+00,-2.983156204219999719e+00,6.854337215419999296e+00,-3.163765430450000249e+00,0.000000000000000000e+00
2.655044409999999910e+00,3.993188469659999740e+00,-3.158146752440000071e+01,-3.603448270580000390e+00,-3.321537971499999742e+00,6.925060749050000020e+00,-3.340241432190000470e+00,0.000000000000000000e+00
2.660064118999999838e+00,3.611944296249999908e+00,-3.077675857699999895e+01,-3.246882611349999781e+00,-3.688551425930000516e+00,7.027044296260000600e+00,-3.486086606980000280e+00,0.000000000000000000e+00
2.665053136000000045e+00,3.580282499049999512e+00,-2.900495348679999807e+01,-2.594096455989999939e+00,-3.941335678100000184e+00,7.163209438320000011e+00,-3.590565919880000401e+00,0.000000000000000000e+00
2.670121970999999927e+00,3.059516749959999782e+00,-2.682829216929999916e+01,-2.053035668499999744e+00,-3.959769487380000452e+00,7.312603473660000297e+00,-3.763333082200000401e+00,0.000000000000000000e+00
2.675121288999999791e+00,2.090881268900000034e+00,-2.498790629499999838e+01,-1.404343066070000035e+00,-3.693739175799999774e+00,7.488684177399999697e+00,-4.014273166659999781e+00,0.000000000000000000e+00
2.680127155000000094e+00,1.771823794809999741e+00,-2.387330956059999920e+01,-1.057305405899999995e+00,-3.231343984599999608e+00,7.652307510380000011e+00,-4.325530529019999904e+00,0.000000000000000000e+00
2.685149673000000181e+00,1.924490098740000210e+00,-2.319536236820000141e+01,-1.133573383670000156e+00,-2.703504085540000101e+00,7.794993400569999231e+00,-4.593490600590000028e+00,0.000000000000000000e+00
2.690076213999999855e+00,1.820238866150000190e+00,-2.245303593489999727e+01,-1.577156962750000169e+00,-2.170617818829999823e+00,7.940450668330000461e+00,-4.822404861449999913e+00,0.000000000000000000e+00
2.694984418000000215e+00,8.934980416830000660e-01,-2.192300083769999830e+01,-1.939657418859999760e+00,-1.730504035949999908e+00,8.060004234310001792e+00,-4.929872035980000788e+00,0.000000000000000000e+00
2.700067359999999805e+00,3.669993749630000301e-02,-2.140404593739999939e+01,-1.962417093809999846e+00,-1.341543436050000038e+00,8.191987991330000440e+00,-4.989906787869998972e+00,0.000000000000000000e+00
2.705091642000000185e+00,-9.618247781299998911e-01,-2.093048033090000004e+01,-2.072142081640000022e+00,-9.786825776100001040e-01,8.285856246950000781e+00,-5.015143871309999390e+00,0.000000000000000000e+00
2.710023490000000201e+00,-1.906935737350000215e+00,-2.060296804000000037e+01,-2.277192506670000061e+00,-6.259793639180000202e-01,8.326066017149999610e+00,-5.021707057950000497e+00,0.000000000000000000e+00
2.715060552999999821e+00,-2.904313036499999612e+00,-2.023304284069999781e+01,-2.715307591209999760e+00,-3.143534064290000041e-01,8.373032569890000332e+00,-5.043558597559999690e+00,0.000000000000000000e+00
2.720028611000000041e+00,-4.077691630209999474e+00,-1.993523829020000093e+01,-3.293545578320000278e+00,-2.124685421589999831e-02,8.385711669919999167e+00,-5.059588432309999995e+00,0.000000000000000000e+00
2.724998256000000119e+00,-5.761046575710000006e+00,-1.947423990440000097e+01,-4.116197594209999977e+00,2.187457084659999995e-01,8.426763534550000045e+00,-5.141914367680000097e+00,0.000000000000000000e+00
2.729983380000000182e+00,-7.910888859880000012e+00,-1.995797619170000203e+01,-5.036216051619999412e+00,4.353134334089999724e-01,8.467558860780000529e+00,-5.293285369869999535e+00,0.000000000000000000e+00
2.734968864999999916e+00,-9.850566298620000438e+00,-2.153751332760000281e+01,-6.175602359349999126e+00,5.004876852039999990e-01,8.528543472289999983e+00,-5.507255554199999459e+00,0.000000000000000000e+00
2.740062088000000173e+00,-1.138178451699999982e+01,-2.345231585280000175e+01,-7.084218840519999283e+00,3.682732582090000317e-01,8.632910728449999738e+00,-5.733198642729999683e+00,0.000000000000000000e+00
2.745031319000000192e+00,-1.228634032460000114e+01,-2.441187400119999751e+01,-7.846898910529999327e+00,1.033090054989999930e-02,8.762575149539999941e+00,-5.965992450709999950e+00,0.000000000000000000e+00
2.750000908000000077e+00,-1.301497140999999935e+01,-2.445633039800000219e+01,-8.539117789349999654e+00,-5.499640107150000068e-01,8.793593406679999447e+00,-6.121184349059999974e+00,0.000000000000000000e+00
2.755030904999999919e+00,-1.397739839180000132e+01,-2.430787352850000005e+01,-8.844892880279999758e+00,-1.171854972839999842e+00,8.769652366639999030e+00,-6.158419609069999190e+00,0.000000000000000000e+00
2.759971332000000110e+00,-1.528501360650000152e+01,-2.304404134139999982e+01,-9.495056578180001594e+00,-1.587354063989999897e+00,8.731279373169998692e+00,-6.108702659609999586e+00,0.000000000000000000e+00
2.765016936999999952e+00,-1.715710044109999899e+01,-2.038019505740000170e+01,-1.041397175050000001e+01,-1.733681440350000047e+00,8.616159439089999594e+00,-6.017978668209999604e+00,0.000000000000000000e+00
2.770130931999999824e+00,-1.986319713640000018e+01,-1.638124466320000039e+01,-1.207575228530000011e+01,-1.584540367130000016e+00,8.484373092649999393e+00,-5.936084270479999425e+00,0.000000000000000000e+00
2.775121105000000199e+00,-2.254439904440000220e+01,-1.548288478759999975e+01,-1.402480077900000133e+01,-1.121717095379999973e+00,8.442113876339998768e+00,-5.746773242949999805e+00,0.000000000000000000e+00
2.780032895000000170e+00,-2.640139479050000304e+01,-1.619881771949999916e+01,-1.627133233609999863e+01,-4.656142294410000049e-01,8.391845703119999555e+00,-5.510148048400000498e+00,0.000000000000000000e+00
2.785070351999999971e+00,-3.017607816409999799e+01,-1.681523696869999895e+01,-1.853335489230000022e+01,2.080272436140000181e-01,8.416152954099999306e+00,-5.234074115749999478e+00,0.000000000000000000e+00
2.790101149999999919e+00,-3.320621392129999805e+01,-1.842147506450000094e+01,-2.061625305349999948e+01,6.730756759639999753e-01,8.397080421449999221e+00,-4.893273830410000080e+00,0.000000000000000000e+00
2.794933370999999944e+00,-3.538458438079999979e+01,-2.028810947890000094e+01,-2.248879698409999861e+01,9.059056639669998967e-01,8.258941650389999722e+00,-4.526867866519999062e+00,0.000000000000000000e+00
2.800016857000000137e+00,-3.791302032389999965e+01,-2.040072814230000020e+01,-2.493498602110000206e+01,1.014369845389999858e+00,7.965887069699999934e+00,-4.116015434269999496e+00,0.000000000000000000e+00
2.805003503000000009e+00,-4.139070578729999994e+01,-1.926363900559999820e+01,-2.641702490579999818e+01,1.089023351670000084e+00,7.480100154880000574e+00,-3.806790113450000401e+00,0.000000000000000000e+00
2.810117897000000031e+00,-4.552946680329999651e+01,-1.808763941570000000e+01,-2.643118436409999816e+01,1.218134880070000037e+00,6.844979286189999179e+00,-3.611043930050000128e+00,0.000000000000000000e+00
2.815072393999999978e+00,-4.920697458180000439e+01,-1.842929129119999843e+01,-2.486213355090000121e+01,1.425477623939999994e+00,6.051781654360000040e+00,-3.513289451600000390e+00,0.000000000000000000e+00
2.820099953999999798e+00,-5.190308413609999860e+01,-2.010596310569999901e+01,-2.180441069860000169e+01,1.643101215360000200e+00,5.273900032040000241e+00,-3.458984375000000000e+00,0.000000000000000000e+00
2.825076927000000016e+00,-5.365918896819999873e+01,-2.152234849170000075e+01,-1.732263236410000218e+01,1.725223064419999952e+00,4.553462982180000118e+00,-3.327228069309999814e+00,0.000000000000000000e+00
2.830141477000000183e+00,-5.515643477439999742e+01,-2.340282087730000171e+01,-1.266327160330000012e+01,1.680316805839999983e+00,3.828182220460000007e+00,-3.004807710650000185e+00,0.000000000000000000e+00
2.835134091000000023e+00,-5.641692583430000241e+01,-2.439955695590000317e+01,-6.670355715310000377e+00,1.637771964070000141e+00,3.244879007340000232e+00,-2.483222484590000168e+00,0.000000000000000000e+00
2.840065946999999813e+00,-5.552170484130000006e+01,-2.262775186580000053e+01,1.427653799030000059e-01,1.726934790609999881e+00,2.810117244720000240e+00,-1.772914886470000173e+00,0.000000000000000000e+00
2.845114852000000027e+00,-5.218714306969999939e+01,-1.699806255630000251e+01,6.700927963709998991e+00,1.997930645940000138e+00,2.375354290009999758e+00,-9.760352969169999726e-01,0.000000000000000000e+00
2.850171033000000076e+00,-4.750927517689999746e+01,-8.959664922360000006e+00,1.124316515089999946e+01,2.468103647229999975e+00,1.875311970709999887e+00,-3.899870216849999904e-01,0.000000000000000000e+00
2.855157371000000222e+00,-4.317589175250000011e+01,-3.512760283919999615e+00,1.256257017210000093e+01,3.049011707310000041e+00,1.304410338400000091e+00,-1.269727349279999862e-01,0.000000000000000000e+00
2.860052404000000159e+00,-4.049278196510000072e+01,-2.854166026800000200e+00,1.006607835029999976e+01,3.503764152530000064e+00,4.521254599090000492e-01,-3.835264742369999813e-01,0.000000000000000000e+00
2.864992843000000011e+00,-4.060223719609999904e+01,-5.719882790669998940e+00,8.766860377049999542e+00,3.522841215130000148e+00,-6.888933181759999691e-01,-1.132169127460000091e+00,0.000000000000000000e+00
2.870030201000000059e+00,-3.965160352790000076e+01,-1.020824459530000006e+01,7.288478261299999872e+00,2.904115915299999795e+00,-1.840372800829999989e+00,-1.889289736750000115e+00,0.000000000000000000e+00
2.875115489000000135e+00,-3.598864099210000234e+01,-1.307468733530000016e+01,5.355932574140000568e+00,1.682663679120000033e+00,-2.987004518510000040e+00,-2.467683315279999956e+00,0.000000000000000000e+00
2.880077249999999811e+00,-3.269737124969999797e+01,-1.243688744439999994e+01,4.573266531680000746e+00,4.763397574419999531e-02,-3.830107688899999641e+00,-2.621380090709999777e+00,0.000000000000000000e+00
2.885045792000000109e+00,-1.911879681939999998e+01,-2.789558822340000077e+00,-2.596968095130000265e+01,-1.977825403209999777e+00,-4.697151660919999472e+00,-3.031926155089999853e+00,0.000000000000000000e+00
2.890101641999999860e+00,5.260732663009999754e+00,3.890560162099999886e+00,-2.311378883139999729e+01,-3.857174873349999977e+00,-5.500731945040000959e+00,-3.629494667049999901e+00,0.000000000000000000e+00
2.895110328999999982e+00,4.038585186870000143e+01,3.563711654189999933e+01,-4.266751669850000184e+01,-5.126616001130000377e+00,-4.094708919530000379e+00,-4.349658966059999798e+00,0.000000000000000000e+00
2.900076902999999984e+00,6.573814677160000031e+01,6.129386785430000373e+01,-5.717869346570000033e+01,-6.333787441250000150e+00,-4.120712757109999735e+00,-5.246245384219999863e+00,0.000000000000000000e+00
2.905135565000000142e+00,2.746410702389999869e+01,6.333399888689999813e+01,-2.001512606589999876e+01,-6.381794452669999451e+00,-6.480617523190000284e+00,-5.803995609279999357e+00,0.000000000000000000e+00
2.910058319000000004e+00,-5.534176562279999700e+01,2.552346395500000042e+01,-2.593524793579999876e+00,-5.083137989040000804e+00,-8.756281852719999037e+00,-5.393350124359999498e+00,0.000000000000000000e+00
2.914911351000000206e+00,-6.264593245159999668e+01,-1.942198189389999996e+00,-1.584082962619999968e+01,-4.872618615629999983e-01,-8.950682640080000141e+00,-4.885733127590000002e+00,0.000000000000000000e+00
