t,ax,ay,az,wx,wy,wz,zv
5.001595999999999646e-03,-2.519692664649999969e+00,5.839620273140000428e-02,-9.468467261939998991e+00,-3.392907092350000171e-03,6.160785444079999555e-03,1.683481968939999868e-04,1.000000000000000000e+00
1.017756400000000006e-02,-2.484382574080000072e+00,7.019655347330000517e-02,-9.470380402079999982e+00,2.651796210560000092e-03,6.773818284270000795e-03,-2.312892582269999997e-03,1.000000000000000000e+00
1.514419200000000076e-02,-2.500897071029999807e+00,4.048641549880000606e-02,-9.474434645910001507e+00,6.136454176159999302e-03,-6.252327002579999814e-03,-5.165621638300000110e-03,1.000000000000000000e+00
2.016321000000000085e-02,-2.494300449240000273e+00,2.600703425640000024e-02,-9.494846734819999412e+00,1.600824063640000211e-03,-1.348571572450000047e-02,-7.258779369289999547e-03,1.000000000000000000e+00
2.504077299999999881e-02,-2.523328975330000112e+00,5.715874249149999892e-02,-9.475510750710000707e+00,-4.374672193080000361e-03,-1.212606788609999972e-03,-2.809160156180000138e-03,1.000000000000000000e+00
3.018606000000000067e-02,-2.525046300640000130e+00,7.762829720949999956e-02,-9.448127069219999896e+00,1.673417724670000009e-02,-1.220172503960000087e-03,8.933986537160001689e-04,1.000000000000000000e+00
3.515694800000000036e-02,-2.519807815470000101e+00,3.102455874100000163e-02,-9.471731232170000681e+00,-2.578822663050000467e-03,-4.752106964589999753e-03,3.338291542599999828e-03,1.000000000000000000e+00
4.014476399999999945e-02,-2.492273619590000155e+00,7.743797140230000708e-02,-9.460717670720001138e+00,-2.762289950620000056e-03,-2.973920665679999960e-03,1.902673160659999968e-03,1.000000000000000000e+00
4.510401599999999678e-02,-2.523871411640000062e+00,5.749234466030000990e-02,-9.442886830479999105e+00,-4.770977888260000306e-03,-7.904516533019999985e-03,-6.423820741469999989e-04,1.000000000000000000e+00
5.019786600000000071e-02,-2.491407650409999786e+00,5.013394928809999235e-02,-9.451209837669999558e+00,4.390953108670000472e-03,5.186507478359999104e-03,1.540294149890000146e-03,1.000000000000000000e+00
5.505357400000000095e-02,-2.523731710909999926e+00,8.931520960560002109e-02,-9.476531910449999430e+00,2.533190650870000091e-03,5.368976853790000201e-04,-8.619122672829999292e-04,1.000000000000000000e+00
6.016504899999999822e-02,-2.517268067849999902e+00,3.092369674900000143e-02,-9.485870816680000317e+00,9.340004995469998808e-03,3.859629854559999858e-03,-2.782520838079999628e-03,1.000000000000000000e+00
6.522263600000000050e-02,-2.527508599099999920e+00,4.771296921879999986e-02,-9.474914538380000195e+00,3.002368845050000078e-03,-4.921067506069999598e-03,-5.429368466140000252e-03,1.000000000000000000e+00
7.015838400000000419e-02,-2.544859546870000155e+00,7.630026804269998686e-02,-9.463659569389998083e+00,-7.347100879999999591e-03,-4.189973697070000294e-03,8.952756412329999219e-03,1.000000000000000000e+00
7.503079199999999893e-02,-2.487954879610000170e+00,3.809402905309999809e-02,-9.478978134560000157e+00,6.469064392149999169e-03,1.052259933200000181e-03,-4.184897057709999896e-03,1.000000000000000000e+00
7.996735700000000280e-02,-2.546817987469999878e+00,7.024932940669999237e-02,-9.476664596919999184e+00,1.102813798929999818e-02,1.448725908989999950e-02,9.910131804650000251e-03,1.000000000000000000e+00
8.517510799999999938e-02,-2.499023093849999988e+00,7.291226500569999991e-02,-9.443319376679999877e+00,-2.051662653679999990e-03,1.828139182180000145e-03,3.124799113720000041e-04,1.000000000000000000e+00
9.002058400000000071e-02,-2.484808690540000420e+00,5.703261819410000016e-02,-9.483156297029999848e+00,7.607811596239999995e-03,3.996551036829999216e-03,-6.348312832420000169e-03,1.000000000000000000e+00
9.512666699999999809e-02,-2.507707043309999495e+00,3.924207799349999776e-02,-9.483758939089998563e+00,1.067325472829999851e-02,1.732287555930000014e-02,-9.409294463689999929e-03,1.000000000000000000e+00
1.001351679999999966e-01,-2.520893272609999958e+00,1.038163209060000008e-01,-9.439239413890000208e+00,1.463469862939999894e-02,-7.527931593360000966e-04,3.344323486090000240e-04,1.000000000000000000e+00
1.051356259999999959e-01,-2.529783266029999922e+00,3.813413501790000049e-02,-9.470873154039999520e+00,1.004686113449999862e-02,3.165442030880000028e-03,1.280699763449999994e-02,1.000000000000000000e+00
1.101466470000000003e-01,-2.447268941219999938e+00,6.510907587490000203e-02,-9.499598313260001703e+00,2.456037094820000266e-03,-6.486955564470000234e-03,2.300104824830000172e-03,1.000000000000000000e+00
1.151553649999999956e-01,-2.485556294029999780e+00,6.925485674299999839e-02,-9.446201069589999832e+00,-9.652820415790000844e-03,-6.130567751820000313e-03,-5.047296173869999722e-03,1.000000000000000000e+00
1.200237940000000031e-01,-2.487644206220000154e+00,3.331262857900000457e-02,-9.475781968859999793e+00,-1.144427713010000118e-02,-1.499773934479999872e-04,-1.105760037900000055e-02,1.000000000000000000e+00
1.251264450000000028e-01,-2.548511347379999847e+00,6.547484501389999600e-02,-9.480101585630000827e+00,4.377745091919999984e-03,-1.440529804679999831e-02,2.023766050119999924e-03,1.000000000000000000e+00
1.300187439999999917e-01,-2.474839085190000176e+00,5.358268780270000059e-02,-9.461059031510000494e+00,-6.971299182619999230e-03,-5.920990370210000783e-03,6.531670223919998916e-04,1.000000000000000000e+00
1.349644510000000130e-01,-2.507704997479999864e+00,1.635262548510000094e-02,-9.520352347480001143e+00,7.441699039189999740e-03,-8.382508531209999919e-03,-6.312445737420000792e-03,1.000000000000000000e+00
1.401605489999999954e-01,-2.540499013579999854e+00,1.555764146579999979e-02,-9.477227491499998990e+00,6.265841075220000009e-04,-1.941110705960000108e-03,4.463605582709999874e-04,1.000000000000000000e+00
1.449858089999999933e-01,-2.547345226210000035e+00,3.963301353990000137e-02,-9.448469599050000056e+00,1.209335634479999973e-03,4.070019349460000160e-05,5.444487556819999421e-03,1.000000000000000000e+00
1.499459639999999871e-01,-2.475274261729999647e+00,2.372352414579999985e-02,-9.481847552510000554e+00,9.895102120940000440e-03,-5.175555124880000524e-03,-3.910154104229999518e-03,1.000000000000000000e+00
1.551045640000000003e-01,-2.532612936500000078e+00,5.127408206680000857e-02,-9.481680379249999291e+00,1.373733021320000004e-02,3.546580672259999970e-03,-1.125419884920000023e-02,1.000000000000000000e+00
1.599712399999999868e-01,-2.519624860109999975e+00,1.081838775990000001e-01,-9.486813065970000736e+00,1.047460362320000102e-02,8.973816409709999345e-03,-5.237407982350000303e-03,1.000000000000000000e+00
1.649747360000000107e-01,-2.501087332900000071e+00,7.520493338689999974e-02,-9.451792021470000194e+00,1.118406560270000100e-02,4.231857601549999484e-04,-1.194527652110000115e-02,1.000000000000000000e+00
1.700011590000000128e-01,-2.497120182840000258e+00,1.892610411870000037e-02,-9.485458728750000290e+00,-3.635478904469999911e-03,5.472629331050000469e-03,-8.985757827759999899e-03,1.000000000000000000e+00
1.750309190000000070e-01,-2.562009419119999798e+00,5.983316759880000918e-02,-9.448764198080001009e+00,6.750096566979999109e-03,8.322523906830000054e-03,6.096041761340000552e-03,1.000000000000000000e+00
1.799869100000000000e-01,-2.518938339149999983e+00,2.535428998570000286e-02,-9.455098077280000624e+00,1.954546570780000062e-02,-8.892138488590000875e-03,-1.083706319329999848e-02,1.000000000000000000e+00
1.849601379999999962e-01,-2.570955234379999954e+00,3.108305887910000134e-02,-9.472401094249999431e+00,1.052051782610000097e-02,-5.180219188329999828e-03,8.535090833899999785e-03,1.000000000000000000e+00
1.900084400000000007e-01,-2.494083007099999971e+00,3.594005903969999666e-02,-9.454964806289998691e+00,5.291612353180001095e-03,5.515085533259999825e-03,-3.901536110790000157e-03,1.000000000000000000e+00
1.951152740000000052e-01,-2.507603875190000053e+00,5.256996252969999700e-02,-9.457477665889999940e+00,2.910417737439999902e-03,2.124166581779999858e-03,-9.311299771069999828e-03,1.000000000000000000e+00
1.999942700000000018e-01,-2.485966336140000177e+00,4.659351846859999952e-02,-9.455430670229999279e+00,1.262454036620000095e-02,-8.120335638520000121e-03,-1.908827945590000144e-02,1.000000000000000000e+00
2.051266900000000004e-01,-2.562008250069999882e+00,3.709957922219999510e-02,-9.457428566049999930e+00,-2.103332895790000195e-03,-3.638472175230000449e-03,4.333076067270000276e-03,1.000000000000000000e+00
2.101211679999999971e-01,-2.494671912899999899e+00,3.361985191430000297e-02,-9.442244440919999704e+00,-7.596170995380000825e-03,-6.161957979199998887e-03,-4.844006616619998861e-04,1.000000000000000000e+00
2.151428549999999940e-01,-2.503751291420000413e+00,4.770261222159999370e-02,-9.467193004219998542e+00,-3.663782728840000481e-03,1.423152163619999721e-03,-4.252542741599999940e-03,1.000000000000000000e+00
2.201695090000000132e-01,-2.529513801440000265e+00,7.407068692630000561e-02,-9.455821130849999534e+00,3.497339785099999685e-03,-5.940491333600000923e-03,-9.293213486669999260e-03,1.000000000000000000e+00
2.250923989999999986e-01,-2.495599549140000040e+00,3.913316055919999897e-02,-9.492387066710000099e+00,1.425431389360000065e-02,-8.180027827619999747e-03,-1.366310380399999962e-02,1.000000000000000000e+00
2.300461480000000059e-01,-2.541239895069999921e+00,2.736834007170000152e-02,-9.482404017349999492e+00,-3.734194673600000139e-03,-4.161847755310000077e-03,-9.462494635949999806e-04,1.000000000000000000e+00
2.351162440000000020e-01,-2.490354926490000231e+00,3.797247589950000085e-02,-9.482131045630000088e+00,6.435491959560000032e-04,9.711778722700001309e-03,5.561779253180001038e-04,1.000000000000000000e+00
2.401564399999999988e-01,-2.481948917189999992e+00,1.761867706520000090e-02,-9.494147646639998328e+00,1.263419864699999971e-03,2.319263294340000083e-03,1.857834169640000012e-03,1.000000000000000000e+00
2.451550859999999943e-01,-2.505805593600000325e+00,1.776433489690000186e-02,-9.494154076380000973e+00,-1.815536059440000377e-02,-3.027918748560000112e-03,-5.417553242300000675e-03,1.000000000000000000e+00
2.501229710000000273e-01,-2.471980188620000352e+00,3.929019601810000012e-02,-9.472249118560000625e+00,1.067882496860000051e-02,-8.384309709070000144e-03,-1.935908757150000062e-02,1.000000000000000000e+00
2.551512409999999731e-01,-2.550673493849999751e+00,4.272295151240000644e-02,-9.497819613149999896e+00,8.362009190019999844e-03,-8.133187890050000771e-03,-5.388168618079999979e-03,1.000000000000000000e+00
2.599895079999999803e-01,-2.521233464349999842e+00,7.397552402269999550e-02,-9.464345213570000581e+00,-1.630315324289999821e-03,-5.963461473580000498e-03,-1.161297876389999831e-02,1.000000000000000000e+00
2.649487589999999781e-01,-2.512738315470000039e+00,1.298348697869999803e-03,-9.469222464219999580e+00,3.085165517399999862e-04,-1.261714193970000196e-02,-1.118296384809999884e-02,1.000000000000000000e+00
2.701628520000000089e-01,-2.517733639540000290e+00,-9.434262643819999600e-03,-9.461558213200000012e+00,-5.060833878819999236e-03,-1.630141516220000005e-03,5.137033760549999765e-03,1.000000000000000000e+00
2.750295520000000105e-01,-2.472622870440000398e+00,5.104814152349999856e-02,-9.480055408400000161e+00,2.138129668310000120e-03,-3.859539981929999922e-03,1.368486089629999958e-03,1.000000000000000000e+00
2.801195269999999793e-01,-2.542809336349999949e+00,6.672033329670000457e-02,-9.469655010419998575e+00,9.552403353149999804e-03,7.649077102540000582e-03,1.645028963689999790e-02,1.000000000000000000e+00
2.851728490000000060e-01,-2.472526424329999806e+00,5.623880093519999929e-02,-9.443366138430000944e+00,-3.856755211019999665e-04,-1.056707650420000109e-02,-3.743809415030000236e-03,1.000000000000000000e+00
2.901862479999999800e-01,-2.559294899459999773e+00,-2.011059662900000281e-02,-9.474638644049999670e+00,8.192320819940000288e-05,3.220160957429999988e-03,1.352997776120000092e-02,1.000000000000000000e+00
2.951749189999999801e-01,-2.437446635379999726e+00,2.261477745259999825e-02,-9.459593050610001441e+00,1.947830431159999764e-02,-6.988329347220000737e-03,-7.768849842250000193e-03,1.000000000000000000e+00
2.999376429999999760e-01,-2.550103000490000049e+00,7.028754709180000393e-02,-9.469228309439998270e+00,-2.287446754050000228e-03,-6.185407284649999289e-03,3.128512064000000138e-03,1.000000000000000000e+00
3.051901799999999776e-01,-2.500699502629999849e+00,4.403202481689999503e-02,-9.470063006700000230e+00,-1.150525291450000100e-03,1.132308319210000025e-02,2.114034723490000101e-04,1.000000000000000000e+00
3.101701769999999914e-01,-2.513417822170000093e+00,3.091968272760000150e-02,-9.476875024799999991e+00,1.713968440889999945e-02,-1.028315979059999871e-03,-6.098549347369999936e-04,1.000000000000000000e+00
3.150926640000000223e-01,-2.528215870589999970e+00,1.193060436679999753e-02,-9.468624498330001416e+00,2.956602256750000073e-04,1.605111174289999961e-03,1.024041790519999995e-02,1.000000000000000000e+00
3.201897269999999796e-01,-2.488641985090000119e+00,1.922362804379999790e-02,-9.457454285009999850e+00,3.865096252409999742e-03,1.112383417789999940e-02,-7.550862617790000779e-03,1.000000000000000000e+00
3.251559560000000237e-01,-2.489999537180000111e+00,3.478547532730000280e-02,-9.430062420219998742e+00,5.708058364689999782e-03,-4.981406964360000130e-04,-4.963090643290000124e-03,1.000000000000000000e+00
3.301960360000000261e-01,-2.473134327099999918e+00,4.519816881969999228e-02,-9.456875023820000337e+00,1.007774751629999903e-02,-1.429940294470000151e-02,-2.385958097880000201e-03,1.000000000000000000e+00
3.349951400000000246e-01,-2.516346861359999743e+00,-1.236172693470000139e-02,-9.513536822239998969e+00,-8.734331466260000787e-03,-4.809091798960000302e-03,1.862196996809999811e-02,1.000000000000000000e+00
3.401289410000000180e-01,-2.451786710899999999e+00,-1.692985797579999938e-02,-9.493118303590000195e+00,-5.522273480889999982e-03,-8.672067895530001166e-03,4.872746765609999725e-03,1.000000000000000000e+00
3.451303059999999978e-01,-2.470573536699999906e+00,4.863759608340000040e-02,-9.475728777369999634e+00,-6.936565972859999596e-03,7.011825218799999995e-03,1.265799393880000191e-03,1.000000000000000000e+00
3.502032740000000088e-01,-2.525942080440000126e+00,8.581270877680000075e-02,-9.461425526730000257e+00,4.825382493439999386e-03,1.212777476760000007e-02,5.947486497459999284e-04,1.000000000000000000e+00
3.551822530000000033e-01,-2.519493050429999936e+00,7.867565997110001486e-02,-9.462493448220000047e+00,2.584731439129999992e-03,-1.490060705690000008e-03,-4.646398127080000537e-03,1.000000000000000000e+00
3.601426839999999907e-01,-2.491902448189999841e+00,5.480547106329999862e-02,-9.455147761639999260e+00,9.019014425580000605e-03,-5.905388854439999786e-03,-3.399489214640000114e-03,1.000000000000000000e+00
3.650060969999999738e-01,-2.535837159250000195e+00,2.962909492779999820e-02,-9.477653607960000670e+00,5.346158519390000786e-03,1.012578699739999886e-02,2.062297239899999954e-02,1.000000000000000000e+00
3.701504050000000157e-01,-2.504846977700000199e+00,7.886940157810000407e-02,-9.442075514099999012e+00,3.303334815430000108e-04,7.386882789430000533e-03,5.505601875479998984e-03,1.000000000000000000e+00
3.750588999999999729e-01,-2.507245563270000144e+00,1.575624076929999992e-02,-9.452222814099998871e+00,1.809593522920000018e-03,-1.681607402860000114e-02,-1.075247768310000004e-02,1.000000000000000000e+00
3.800375340000000102e-01,-2.520422440229999950e+00,1.305545851960000087e-02,-9.482512738420000531e+00,-1.503518130630000088e-02,1.489579211919999984e-03,-1.181734446439999808e-02,1.000000000000000000e+00
3.849899889999999769e-01,-2.562408647569999864e+00,4.180095042980000453e-02,-9.463367892970000028e+00,1.024535298350000116e-02,-1.235741842539999844e-02,3.907920792699999882e-03,1.000000000000000000e+00
3.899458900000000172e-01,-2.500869013980000055e+00,-3.344502278700000469e-02,-9.494189147689999331e+00,-5.212455522270001071e-03,-1.607613638039999751e-02,-5.694410298020000614e-03,1.000000000000000000e+00
3.951721599999999945e-01,-2.571861535570000079e+00,1.274905990830000058e-01,-9.464694757660000235e+00,-2.200301177800000063e-02,3.214697819199999803e-03,6.402730941770000232e-03,1.000000000000000000e+00
3.999921220000000055e-01,-2.537920979779999975e+00,7.531295120549999500e-02,-9.457561837040000086e+00,-1.714576780799999950e-02,-2.922582905739999886e-03,-1.264463458210000023e-02,1.000000000000000000e+00
4.051982570000000061e-01,-2.549202252249999745e+00,1.649041967070000170e-02,-9.492466561680000581e+00,6.794108776380000366e-05,-6.653421558439999613e-03,7.688980549569999524e-03,1.000000000000000000e+00
4.101851180000000152e-01,-2.438679392050000061e+00,1.299906174709999918e-01,-9.412530855179999989e+00,-5.199622828510000287e-03,1.096643973139999929e-02,-1.049648039039999996e-03,1.000000000000000000e+00
4.151495049999999742e-01,-2.516522510180000172e+00,-5.620612250830000350e-02,-9.498605795089998693e+00,2.189660212030000285e-03,-7.641181815420000113e-03,1.482705120000000175e-02,1.000000000000000000e+00
4.201587290000000086e-01,-2.492895843139999901e+00,1.346379409529999960e-01,-9.449062304239999932e+00,-1.954977400600000151e-02,-2.005684375759999791e-02,4.438325762750000222e-03,1.000000000000000000e+00
4.251421790000000089e-01,-2.555010354009999762e+00,1.168211201010000005e-01,-9.466579840760001474e+00,-1.413821801539999826e-02,-1.880946941669999969e-02,5.353975575420000460e-04,1.000000000000000000e+00
4.300208699999999995e-01,-2.467225103050000090e+00,1.665315193479999928e-02,-9.462256132340000292e+00,8.046288974580000433e-03,4.298064392060000662e-03,-6.852723658080000016e-03,1.000000000000000000e+00
4.349061029999999883e-01,-2.492740944840000417e+00,2.184129402070000055e-03,-9.485932776000000288e+00,-1.719991303979999733e-02,-1.580292731520000285e-02,-2.602637046949999970e-03,1.000000000000000000e+00
4.401668369999999775e-01,-2.482076927490000084e+00,-2.174558426950000053e-02,-9.505783139369999191e+00,-1.121221389620000002e-02,7.378864102069999757e-03,-8.286676369609998621e-03,1.000000000000000000e+00
4.451400160000000272e-01,-2.551758366480000095e+00,6.348156143800000317e-02,-9.432484678930000754e+00,-2.617688104509999919e-02,-1.817720569670000161e-02,1.623299671340000007e-03,1.000000000000000000e+00
4.501855759999999762e-01,-2.490309041520000211e+00,-2.853875382429999635e-02,-9.468578321100000750e+00,-1.090479898269999933e-03,3.514157142489999358e-03,-2.917118370530000140e-03,1.000000000000000000e+00
4.551552569999999798e-01,-2.507356330170000369e+00,5.436985155850000001e-02,-9.503033548410000364e+00,-6.163541693239999938e-03,-1.630250737069999928e-02,9.190187789499999066e-03,1.000000000000000000e+00
4.600081560000000014e-01,-2.523311439670000045e+00,5.126737833140000006e-02,-9.470493214810000282e+00,3.979074303059999818e-03,-4.078828264030000608e-03,3.219101345170000041e-03,1.000000000000000000e+00
4.650051960000000095e-01,-2.562340550770000114e+00,4.914097446169999467e-02,-9.450727607110000150e+00,-1.330560538919999935e-03,-1.088194921610000088e-02,5.567422136659999111e-03,1.000000000000000000e+00
4.699401910000000071e-01,-2.530486738130000024e+00,5.355200497010000060e-02,-9.477912551150000198e+00,8.141238358800000205e-04,-3.629325889049999938e-03,7.533536292609999997e-03,1.000000000000000000e+00
4.750719150000000113e-01,-2.481684713299999956e+00,-1.562589124630000062e-02,-9.483340421419999444e+00,6.396920420229999620e-03,-8.330734446640000387e-03,4.781936295329999691e-03,1.000000000000000000e+00
4.801744550000000000e-01,-2.482929744920000292e+00,5.710047296559999513e-02,-9.474745611550000390e+00,-5.317345261570000266e-03,4.542062059039999808e-03,-1.075515802949999870e-02,1.000000000000000000e+00
4.852043209999999940e-01,-2.568807116429999926e+00,1.034473871289999930e-01,-9.493209489010000723e+00,-1.410808786749999898e-02,2.052126452329999882e-03,7.665848825130000196e-04,1.000000000000000000e+00
4.901976149999999754e-01,-2.528503163099999895e+00,4.773838222130000891e-02,-9.463483628310001450e+00,-7.431982085109999081e-03,-1.612794771789999998e-02,4.747789353130000374e-04,1.000000000000000000e+00
4.951539050000000053e-01,-2.536143740980000061e+00,3.834322032449999969e-03,-9.444549210730000866e+00,1.539434026930000012e-02,-3.191041294490000024e-03,1.228433568029999902e-02,1.000000000000000000e+00
5.001720640000000273e-01,-2.480605101370000121e+00,-3.250221181190000169e-02,-9.512788634219999651e+00,-1.604166754989999740e-04,-2.368767745789999990e-03,4.531376063819999786e-03,1.000000000000000000e+00
5.051588299999999476e-01,-2.548811207109999977e+00,7.259488331930000204e-02,-9.469040093389999413e+00,-6.461133249100001023e-03,4.448843188579999774e-03,2.516377903520000334e-02,1.000000000000000000e+00
5.101746329999999885e-01,-2.520912269580000142e+00,9.904773653090000185e-02,-9.445879582550000819e+00,-8.253600448369998940e-03,-3.545845393089999947e-03,1.961972378190000171e-02,1.000000000000000000e+00
5.149960139999999464e-01,-2.461889294979999754e+00,6.902579266089998999e-02,-9.474592466819999004e+00,7.479006890210000182e-03,-8.799567818639998998e-03,-1.081698853520000198e-02,1.000000000000000000e+00
5.202006900000000211e-01,-2.482192078300000215e+00,8.222437456180000867e-03,-9.476366490750001148e+00,2.664769301190000449e-03,3.119293600319999853e-03,-1.310326717789999859e-02,1.000000000000000000e+00
5.251631629999999884e-01,-2.574943134970000269e+00,1.195326600649999904e-02,-9.477384143360000124e+00,-9.648179402570000555e-04,4.014377016570000109e-03,7.527763023970000279e-03,1.000000000000000000e+00
5.301481869999999930e-01,-2.508366383999999893e+00,1.261785849019999850e-01,-9.464504788050000172e+00,-1.467962632890000346e-03,1.216936763379999897e-02,4.933516494930000398e-03,1.000000000000000000e+00
5.349756599999999640e-01,-2.470902038000000189e+00,1.309507494740000111e-01,-9.458856553029999503e+00,-9.087067097430000587e-03,-9.784540161489999749e-03,-1.183501165359999996e-02,1.000000000000000000e+00
5.401592459999999818e-01,-2.581874395540000311e+00,-2.992518951429999977e-02,-9.505726440750001061e+00,-2.626883564519999752e-03,1.115950290109999927e-03,1.255580782889999941e-02,1.000000000000000000e+00
5.450405329999999937e-01,-2.472805241270000121e+00,2.255161027259999784e-02,-9.464897002239998969e+00,-2.366077899929999728e-02,-2.720647724349999769e-03,1.171827036889999847e-02,1.000000000000000000e+00
5.500084170000000272e-01,-2.518923433849999949e+00,7.418203834630000826e-02,-9.435936280689999123e+00,1.316128671170000049e-02,-1.084874570370000096e-02,1.306726364420000060e-03,1.000000000000000000e+00
5.552090349999999619e-01,-2.523443833879999598e+00,8.229859057549999968e-02,-9.444273316400000340e+00,-7.852850481870000260e-03,-1.597933471200000191e-02,1.277903374279999900e-02,1.000000000000000000e+00
5.601258719999999691e-01,-2.525542267460000101e+00,-2.486870984229999984e-02,-9.471171260200000219e+00,-2.461677230890000137e-02,1.467467099429999901e-02,8.537658490239999690e-03,1.000000000000000000e+00
5.650185460000000104e-01,-2.531239602319999893e+00,-1.150412144140000072e-02,-9.449068733980000800e+00,-4.430846311149999432e-03,5.649471655490000480e-03,-5.468311253940000109e-03,1.000000000000000000e+00
5.700005540000000481e-01,-2.531277888510000018e+00,1.641886734149999860e-01,-9.462935346769999256e+00,-1.216049678620000074e-02,-1.120638102290000097e-02,1.308557670560000011e-02,1.000000000000000000e+00
5.750658189999999781e-01,-2.467595689930000002e+00,6.522051405980000549e-02,-9.493084401319999088e+00,-9.624218568209998506e-03,-1.568610593680000095e-02,-3.517281031239999443e-03,1.000000000000000000e+00
5.801658370000000176e-01,-2.548042268559999712e+00,-3.443715051340000277e-02,-9.479308973949999384e+00,-6.521091330800000800e-03,-1.616019383069999815e-02,1.184250460940000117e-03,1.000000000000000000e+00
5.851645479999999511e-01,-2.506348906690000433e+00,3.897405187419999972e-02,-9.505760927539999017e+00,-3.113921498879999774e-03,-2.755784429610000190e-03,-1.655125524850000070e-04,1.000000000000000000e+00
5.900238180000000332e-01,-2.506519879349999869e+00,5.130631296910000139e-02,-9.454596557489999498e+00,-1.326426398010000125e-02,-9.854119271040000932e-03,-6.436766125260000087e-04,1.000000000000000000e+00
5.952038219999999935e-01,-2.492725455009999980e+00,3.444485889579999849e-02,-9.473902146469999508e+00,-1.541716512290000184e-03,-1.464368123559999998e-02,-2.220679540190000079e-03,1.000000000000000000e+00
6.001248729999999476e-01,-2.565187172370000379e+00,3.505714785850000403e-02,-9.440272264069999864e+00,-1.196621684360000019e-03,-1.035989727820000195e-03,-1.255325973029999993e-02,1.000000000000000000e+00
6.049975819999999782e-01,-2.559559980140000413e+00,-3.415976062739999736e-02,-9.439311894600001196e+00,5.511619965549999700e-04,1.665863394739999781e-02,7.841351442039999967e-03,1.000000000000000000e+00
6.101563140000000329e-01,-2.516207452890000251e+00,7.251583586689999694e-02,-9.488584167289999982e+00,4.502785741350000411e-04,3.724595066159999603e-03,-9.923453908410001349e-04,1.000000000000000000e+00
6.151671819999999791e-01,-2.502758480989999867e+00,1.142601470390000040e-01,-9.471291671710000415e+00,-5.981226451689998849e-03,-3.630835562939999789e-02,-1.142823323610000011e-02,1.000000000000000000e+00
6.201834680000000155e-01,-2.560195355429999875e+00,1.068602939950000046e-02,-9.491339018959999763e+00,-1.263620797539999991e-03,1.681420393290000009e-02,-4.445945844050000657e-03,1.000000000000000000e+00
6.251478099999999705e-01,-2.565102124440000075e+00,8.621487810319999195e-03,-9.459959545830001204e+00,-1.162157487120000186e-02,1.521086785939999983e-03,-1.036990550349999951e-03,1.000000000000000000e+00
6.300389220000000012e-01,-2.558164141869999852e+00,8.098091383930000609e-02,-9.467526766220000667e+00,-2.356539189350000086e-04,1.488009840249999820e-02,1.772470772269999981e-02,1.000000000000000000e+00
6.349990479999999549e-01,-2.486670977279999750e+00,1.021949941809999901e-01,-9.497022909810000968e+00,-6.895446684209999809e-03,4.040726926179999574e-03,-8.376510813830000124e-03,1.000000000000000000e+00
6.399855340000000226e-01,-2.576592948000000050e+00,7.646325375180000605e-02,-9.451181780619998918e+00,-1.784949563440000123e-02,2.053891308609999931e-03,5.732321180399999917e-03,1.000000000000000000e+00
6.449807760000000334e-01,-2.509207803259999814e+00,8.076422061510001027e-02,-9.483660739419999430e+00,1.475205877800000055e-03,-1.323976647110000106e-02,1.048663165419999946e-02,1.000000000000000000e+00
6.500005170000000554e-01,-2.507148240379999837e+00,5.851676037119999535e-02,-9.448513438189998226e+00,-7.218946237119999373e-03,9.396051988010000952e-03,7.346675731239999535e-03,1.000000000000000000e+00
6.551343880000000119e-01,-2.508693131729999859e+00,6.458949984699999258e-02,-9.440912900060000723e+00,-1.108315680179999992e-02,5.631806328889999921e-03,-3.486428875480000310e-03,1.000000000000000000e+00
6.599803400000000542e-01,-2.565259945349999793e+00,1.632083069089999838e-02,-9.529414190329999812e+00,-2.282875217499999790e-02,1.012526918200000112e-03,3.628498641769999956e-03,1.000000000000000000e+00
6.649583319999999853e-01,-2.534165134379999795e+00,5.822905687040000333e-02,-9.489702942190000101e+00,-1.966607384379999782e-02,8.588436990979999089e-03,4.441080614920000363e-03,1.000000000000000000e+00
6.702499830000000491e-01,-2.545522102440000101e+00,7.042377722480000490e-02,-9.457413952999999651e+00,5.452890880409999412e-03,-1.958467531949999868e-03,8.140575140709999796e-03,1.000000000000000000e+00
6.750302999999999720e-01,-2.501110713779999717e+00,1.877508740859999692e-02,-9.508799856849998733e+00,-1.047971472139999985e-02,2.727988176050000191e-04,-2.760978648440000349e-03,1.000000000000000000e+00
6.801454380000000466e-01,-2.550542853209999627e+00,7.733163408419999052e-02,-9.493747833669999636e+00,3.209192771460000083e-03,-1.157264318320000082e-02,-8.697070181370000069e-03,1.000000000000000000e+00
6.849985920000000172e-01,-2.515046592410000059e+00,7.381515496239998697e-02,-9.465471002730000194e+00,1.435446087270000025e-02,1.052806433290000114e-02,-5.266865715379999945e-03,1.000000000000000000e+00
6.900020119999999979e-01,-2.555803842480000032e+00,-1.430121623050000131e-02,-9.489006192099999737e+00,4.596915561709999723e-03,7.995585910979999267e-03,3.543618367979999885e-03,1.000000000000000000e+00
6.951856450000000187e-01,-2.505298813120000023e+00,6.785710507450000428e-02,-9.472197680639999007e+00,-3.551369300110000186e-03,-1.986301131550000099e-02,-4.765142686670000363e-03,1.000000000000000000e+00
6.999884819999999674e-01,-2.534466163149999840e+00,6.296453356030000392e-02,-9.484333524109999303e+00,-1.368445716799999989e-02,-7.348643150180000569e-03,6.009127013390000438e-03,1.000000000000000000e+00
7.051041449999999600e-01,-2.468834584080000116e+00,3.577408907239999769e-02,-9.470618887010001430e+00,-8.845729753380000620e-04,5.387749522920000540e-03,-2.359252981840000152e-02,1.000000000000000000e+00
7.102275890000000480e-01,-2.569428170940000200e+00,4.661784919219999490e-02,-9.458494733980000291e+00,-5.057474132630000035e-03,6.846846081319999527e-03,-6.681948434560000885e-03,1.000000000000000000e+00
7.151686320000000263e-01,-2.553460201959999676e+00,7.519843514750000624e-02,-9.465118536030001195e+00,9.893384762110001701e-03,1.464718952779999958e-02,-1.081925816829999894e-02,1.000000000000000000e+00
7.201680550000000292e-01,-2.538256203089999996e+00,4.869169175759999885e-02,-9.487574697989998640e+00,5.206590052689999588e-03,2.013839781279999977e-02,-2.216462511570000109e-03,1.000000000000000000e+00
7.251448689999999697e-01,-2.542409815630000125e+00,6.675507581650000355e-02,-9.469296113980000484e+00,7.617443334310000473e-03,3.794595599170000073e-03,-4.745926707980000175e-04,1.000000000000000000e+00
7.301769190000000354e-01,-2.520685767340000272e+00,6.063648333829999709e-02,-9.481701422040000438e+00,2.248031552880000190e-03,5.715652368959999591e-03,-7.261296268549999279e-04,1.000000000000000000e+00
7.351735280000000206e-01,-2.552040982809999914e+00,2.840445992009999615e-02,-9.501313885010000959e+00,7.968449965120000256e-03,2.249396871780000046e-03,7.395970635119999970e-03,1.000000000000000000e+00
7.401675920000000408e-01,-2.489782971819999968e+00,6.419067782170000125e-02,-9.477376544580000228e+00,-3.131202654909999526e-03,4.653735551979999024e-03,-1.256092567930000006e-03,1.000000000000000000e+00
7.449930120000000100e-01,-2.564896080470000062e+00,1.023980059400000087e-01,-9.465392092280000114e+00,-8.661247557030000857e-04,3.515753429379999805e-03,2.262299694120000274e-02,1.000000000000000000e+00
7.500445980000000068e-01,-2.497900811820000122e+00,5.712009554809999862e-02,-9.471253093260001421e+00,7.176245097069999974e-03,1.590951159600000053e-02,1.623433083300000052e-02,1.000000000000000000e+00
7.551479970000000153e-01,-2.473319328270000117e+00,7.258586432920000053e-02,-9.471337264419998903e+00,5.582579760809999259e-04,1.591982133690000162e-02,-3.172880038620000311e-03,1.000000000000000000e+00
7.601340610000000275e-01,-2.543690503100000111e+00,7.881908702980000569e-02,-9.444687157899998908e+00,-1.908188685769999929e-03,5.851732566950000082e-03,5.456688813869999509e-03,1.000000000000000000e+00
7.651692970000000260e-01,-2.513828156529999802e+00,1.670495861220000142e-02,-9.476348370580000235e+00,2.210638485850000001e-03,2.165628038349999909e-02,-2.912639640270000066e-03,1.000000000000000000e+00
7.701075569999999981e-01,-2.488836046359999887e+00,2.760831370690000272e-02,-9.450398521280000352e+00,1.111953239889999778e-02,1.030778512360000119e-03,-2.023936435579999985e-02,1.000000000000000000e+00
7.750623920000000444e-01,-2.558348266259999892e+00,5.243733085959999957e-02,-9.465078788539999621e+00,5.426661577080000264e-03,6.087837740780000298e-03,1.107965828849999954e-03,1.000000000000000000e+00
7.798941999999999819e-01,-2.542312785000000019e+00,3.797520442940000018e-02,-9.495388002089999446e+00,5.909374449399999209e-03,-1.919845491650000111e-02,3.747250186280000686e-03,1.000000000000000000e+00
7.849765619999999888e-01,-2.501928752159999991e+00,3.340932128600000023e-02,-9.463809207000000612e+00,5.920640658589999827e-03,2.470801584420000141e-03,-2.606458263469999589e-03,1.000000000000000000e+00
7.899932269999999646e-01,-2.542442256599999784e+00,2.261946276090000263e-02,-9.476638293429999749e+00,1.408866606649999964e-02,-1.272508408869999809e-03,7.929290644819999775e-03,1.000000000000000000e+00
7.951683910000000299e-01,-2.554812493350000047e+00,2.628146043379999547e-02,-9.473722113730000061e+00,1.488621346649999892e-02,1.027759630229999922e-02,1.504826452579999772e-02,1.000000000000000000e+00
7.999740429999999680e-01,-2.524413555699999812e+00,7.994652929030000854e-02,-9.460767939610001065e+00,1.302756601940000198e-03,7.357378490270000300e-03,2.855235477910000007e-03,1.000000000000000000e+00
8.051526930000000304e-01,-2.486630937529999752e+00,4.548475807559999862e-02,-9.432427395780001333e+00,9.906637482350001342e-03,9.943437762559999803e-04,1.656581880520000081e-03,1.000000000000000000e+00
8.102096399999999532e-01,-2.464557637410000002e+00,1.055910846269999953e-01,-9.493899809360000219e+00,5.205652210859999449e-03,7.820912636820000555e-03,-7.337902672589999634e-03,1.000000000000000000e+00
8.151274680000000217e-01,-2.533588211280000113e+00,-4.020821961189999932e-02,-9.461213345290000021e+00,-1.013689301910000035e-02,5.978287197649999329e-03,-1.279267203059999969e-02,1.000000000000000000e+00
8.201494959999999779e-01,-2.512706166770000138e+00,-4.133687201540000439e-02,-9.432883907380000821e+00,9.049798361959997955e-03,2.158317249269999915e-03,-2.631889190519999620e-03,1.000000000000000000e+00
8.249866430000000195e-01,-2.503515729100000087e+00,1.007489874910000027e-01,-9.514566165289998878e+00,-5.022721830759999811e-03,7.398437708619999380e-03,-5.253772251310000023e-03,1.000000000000000000e+00
8.300115129999999786e-01,-2.519713122919999826e+00,8.946566006010001071e-02,-9.451891974710001421e+00,-3.857003175650000094e-04,-1.422682683910000100e-02,-9.381874464450001144e-03,1.000000000000000000e+00
8.350184969999999707e-01,-2.533419576709999621e+00,4.273020780360000520e-02,-9.497670560070000434e+00,1.026043016460000123e-02,1.275583915410000158e-02,-1.367943827060000110e-02,1.000000000000000000e+00
8.399645510000000037e-01,-2.499967681220000237e+00,7.358255178289999088e-02,-9.481725971960001331e+00,5.553755909199999856e-05,7.631855085490000384e-03,-4.866473376749999753e-03,1.000000000000000000e+00
8.451371659999999952e-01,-2.511552612820000085e+00,1.087868530269999953e-02,-9.451987251780000321e+00,8.766241371630000348e-03,-7.375456858430000547e-03,-1.602089265359999933e-03,1.000000000000000000e+00
8.501538789999999457e-01,-2.528181968320000195e+00,-8.224942223810000758e-03,-9.471350123900000639e+00,8.124960586430000561e-03,-3.561780322340000245e-03,-3.464529057959999693e-03,1.000000000000000000e+00
8.551372050000000113e-01,-2.509770990099999821e+00,5.145890058180000587e-02,-9.432263729660000706e+00,6.091838702560001088e-03,9.164807386700000655e-03,3.524827072399999966e-03,1.000000000000000000e+00
8.599988119999999459e-01,-2.465251464890000133e+00,7.743365142020000591e-02,-9.445055991210001167e+00,-2.024966478350000154e-02,-1.143110799599999844e-03,-3.992796409880000337e-04,1.000000000000000000e+00
8.649546000000000179e-01,-2.474542148070000280e+00,-9.483120453959999197e-03,-9.458492980409999973e+00,-3.794432850550000366e-04,-1.895694527780000110e-03,-3.980859182780000123e-03,1.000000000000000000e+00
8.699916629999999707e-01,-2.454974985550000266e+00,-1.720602059409999732e-02,-9.516390458110000949e+00,5.549577064810000231e-03,7.894529961050000821e-03,-5.482447799300000854e-03,1.000000000000000000e+00
8.750339280000000164e-01,-2.495526191649999781e+00,1.429530936280000095e-02,-9.466537170660000555e+00,3.717169631270000451e-03,-4.710567183789999418e-03,-6.721451878549999925e-03,1.000000000000000000e+00
8.801476070000000540e-01,-2.525965461309999771e+00,3.207210873230000037e-02,-9.479410680760000929e+00,8.236937224859998408e-03,-6.885966751720000792e-03,9.769985917959999808e-04,1.000000000000000000e+00
8.851675239999999834e-01,-2.540549282459999780e+00,9.778976322589999493e-02,-9.453078554150000201e+00,1.718403398990000011e-02,3.654942847789999661e-03,6.319588050250000456e-03,1.000000000000000000e+00
8.901524219999999987e-01,-2.489755791549999930e+00,7.704279807230000887e-02,-9.502630228300001036e+00,4.186398349699999889e-03,1.975449733439999921e-03,-4.459389019759999644e-04,1.000000000000000000e+00
8.951531360000000159e-01,-2.507893798050000012e+00,1.791602974370000087e-02,-9.463934879199999983e+00,1.120123267170000138e-02,-7.752281613649999494e-03,3.837617114190000319e-04,1.000000000000000000e+00
8.999944859999999824e-01,-2.513272860739999892e+00,1.556490574850000023e-02,-9.463706915669998665e+00,5.391308106480000202e-03,-4.535194952039999991e-03,2.769704442469999987e-04,1.000000000000000000e+00
9.049087730000000551e-01,-2.557827164999999958e+00,6.638136539960000360e-02,-9.510025014730000947e+00,4.827141296119999252e-03,-2.955126343290000353e-03,1.286993268879999854e-02,1.000000000000000000e+00
9.100086739999999619e-01,-2.547100019280000183e+00,4.418436583440000370e-02,-9.474493098099999955e+00,2.043526619670000253e-04,7.960814982649999649e-03,6.439860910180000321e-03,1.000000000000000000e+00
9.151356219999999819e-01,-2.533195412570000027e+00,4.171168754400000206e-02,-9.477419214680001147e+00,-5.278133321550000992e-03,-6.979297846560000677e-03,2.655778313059999930e-03,1.000000000000000000e+00
9.201697469999999823e-01,-2.578722068990000338e+00,3.381518040680000364e-02,-9.431749350389999620e+00,-2.201579511170000374e-03,9.834044612939999656e-04,1.720468141140000032e-02,1.000000000000000000e+00
9.251673099999999650e-01,-2.480052143660000041e+00,6.182116764480000137e-02,-9.468374322960000811e+00,2.589714946230000075e-03,-1.663045585160000117e-02,1.334701385350000116e-02,1.000000000000000000e+00
9.299923429999999991e-01,-2.445695408290000206e+00,1.091995802800000033e-02,-9.447215215069999061e+00,-4.893746227029999868e-03,-4.283850081260000102e-03,-1.695815660060000230e-02,1.000000000000000000e+00
9.349513109999999516e-01,-2.543503163830000080e+00,-1.306940712989999864e-02,-9.467520336479999798e+00,-2.051593968640000234e-03,2.156891860069999785e-04,6.038264371449999883e-03,1.000000000000000000e+00
9.399138460000000528e-01,-2.484767189479999860e+00,8.112551907499999590e-03,-9.492802661769999872e+00,-4.114219627809999748e-04,3.969471435990000203e-04,4.460308700799999479e-04,1.000000000000000000e+00
9.451532150000000465e-01,-2.518146604250000031e+00,-1.899191648859999831e-02,-9.470634669099998959e+00,-1.034416165200000015e-02,-1.674623042349999980e-02,3.141775494440000090e-03,1.000000000000000000e+00
9.501539799999999536e-01,-2.496058398829999803e+00,-5.112311102250000766e-02,-9.467193004219998542e+00,1.347632613029999850e-02,1.149521674959999920e-02,1.027046237140000120e-03,1.000000000000000000e+00
9.551587919999999787e-01,-2.502795305870000320e+00,-8.082820064580000310e-03,-9.447983276839998723e+00,-1.009228639299999952e-02,9.615351445970000792e-04,-5.204325541849999862e-03,1.000000000000000000e+00
9.601534170000000090e-01,-2.570631701509999978e+00,3.938924051239999641e-02,-9.475859125750000445e+00,7.432266720569999374e-04,1.394356600940000086e-02,3.983119502659999804e-03,1.000000000000000000e+00
9.651527960000000350e-01,-2.509024847909999689e+00,9.248679797960000781e-02,-9.506222699840000345e+00,-4.451399203390001003e-03,3.569717053320000354e-03,5.334129557010000577e-03,1.000000000000000000e+00
9.700159630000000366e-01,-2.522617612189999914e+00,1.022719318749999995e-01,-9.486408576819998828e+00,7.458886597310000581e-03,-6.689483299850001140e-03,-3.076244611289999961e-04,1.000000000000000000e+00
9.750909779999999971e-01,-2.539453596179999995e+00,8.083587021230000114e-02,-9.485999996020000324e+00,-3.748481627549999935e-03,-6.458223797380000485e-04,-1.811432652180000082e-03,1.000000000000000000e+00
9.801107510000000023e-01,-2.540681384410000021e+00,6.578045863070000610e-02,-9.431535415379999066e+00,-1.173138432199999880e-02,-5.907148122789999609e-03,6.415078416470000253e-03,1.000000000000000000e+00
9.849758739999999735e-01,-2.497054424129999894e+00,3.295941752740000341e-02,-9.508345098819999563e+00,-1.685328781600000173e-02,8.670286275450000621e-03,-1.881138770839999768e-03,1.000000000000000000e+00
9.899466909999999897e-01,-2.515212888890000276e+00,1.599250063549999962e-02,-9.537367195159999866e+00,2.445739461110000169e-03,-1.687835343179999725e-02,8.052779361610000117e-03,1.000000000000000000e+00
9.950900550000000289e-01,-2.540911393770000082e+00,4.159424431000000033e-02,-9.485995904369998399e+00,-1.221847161649999847e-02,-2.401799149809999770e-02,5.753069184720000125e-03,1.000000000000000000e+00
9.999463699999999733e-01,-2.578049868809999978e+00,1.132436360730000036e-01,-9.469851409769999506e+00,-7.080182433129999717e-03,-1.385710109029999852e-02,2.257016720249999976e-03,1.000000000000000000e+00
1.005155213999999964e+00,-2.550613872620000055e+00,7.131670747649999920e-02,-9.478503502780000645e+00,-1.087996829300000128e-02,-5.967045202850000500e-03,1.613847911360000165e-02,1.000000000000000000e+00
1.010152484000000017e+00,-2.535211428559999813e+00,5.473623261889999647e-02,-9.490100417069999850e+00,-9.355903603139998064e-04,-5.684442818160000306e-03,-2.389680128540000188e-03,1.000000000000000000e+00
1.014992874999999906e+00,-2.577148828320000362e+00,3.811766337369999758e-02,-9.480834576080001241e+00,1.835087314250000157e-03,-1.395361777400000100e-02,7.052084431050000511e-03,1.000000000000000000e+00
1.019987267999999947e+00,-2.526045540809999768e+00,7.038861001320000088e-02,-9.454238830099999547e+00,8.397531695659999837e-03,-5.017891060560000609e-03,1.111181220039999824e-03,1.000000000000000000e+00
1.025170525999999915e+00,-2.501464057259999763e+00,7.839624024150000647e-02,-9.475662141880000888e+00,-1.469484344120000098e-02,-1.090009044860000033e-02,1.585199730470000052e-03,1.000000000000000000e+00
1.030165116000000047e+00,-2.502057054719999840e+00,9.287329481280000298e-02,-9.457496370589998591e+00,1.242552977059999987e-02,-8.608433417979999974e-03,-4.205439705399999749e-03,1.000000000000000000e+00
1.035158395000000064e+00,-2.528330436880000143e+00,3.780347829140000282e-02,-9.494366842350000724e+00,1.096951588990000004e-02,-4.720103926959999877e-03,8.385623805220000088e-03,1.000000000000000000e+00
1.040122224000000095e+00,-2.503435941859999847e+00,5.833147606530000168e-02,-9.472110002350000002e+00,2.340598264710000171e-03,-9.691175073389998729e-03,-7.987083867189999353e-03,1.000000000000000000e+00
1.045147950999999908e+00,-2.521920277570000035e+00,5.702978691610000039e-02,-9.479640982380001191e+00,1.085036061699999957e-02,9.394069202240000471e-03,-8.244930766520001258e-03,1.000000000000000000e+00
1.050167617000000053e+00,-2.543296827599999865e+00,4.998787361460000495e-02,-9.467728426269999886e+00,5.624657031149999167e-03,-9.114022366700001362e-03,3.573872847479999879e-03,1.000000000000000000e+00
1.055167211000000105e+00,-2.517616442900000084e+00,1.041805579579999953e-02,-9.508879351819999215e+00,1.113312784579999909e-02,1.339123770589999846e-02,-3.248752094809999845e-03,1.000000000000000000e+00
1.060045754999999978e+00,-2.510537590559999810e+00,9.561138143209999690e-03,-9.459540443639999907e+00,1.252886559810000022e-02,-9.181907400490000107e-03,-1.995938364419999980e-04,1.000000000000000000e+00
1.064954960999999978e+00,-2.484353640250000161e+00,2.967869252350000334e-02,-9.469377362519999508e+00,1.439713221039999949e-02,-2.130759321150000121e-02,-7.908300496640000010e-03,1.000000000000000000e+00
1.069993530999999942e+00,-2.494259532710000116e+00,3.538000715430000137e-02,-9.504718140489998746e+00,1.575650088490000017e-02,-8.404167369010000221e-03,-1.910937204959999719e-02,1.000000000000000000e+00
1.075036434999999901e+00,-2.553999423400000079e+00,3.090244161520000130e-02,-9.475811194960000350e+00,1.972870528699999931e-02,-7.547196466479999533e-03,-4.119335208090000103e-03,1.000000000000000000e+00
1.079952798000000103e+00,-2.557136552380000261e+00,5.030071155660000015e-02,-9.439719890880001074e+00,-8.900813991199999940e-04,-2.221052302050000298e-03,4.750911146399999785e-03,1.000000000000000000e+00
1.085054446000000006e+00,-2.516937228470000232e+00,1.915141904090000152e-02,-9.465724100710000144e+00,4.904879257079999659e-03,-1.995910424739999727e-03,-7.167864590879999796e-03,1.000000000000000000e+00
1.090008735000000062e+00,-2.524194067729999880e+00,6.201962195949999729e-02,-9.450050730760001017e+00,2.166418125849999942e-03,-2.026415802539999894e-02,-2.809911733490000080e-03,1.000000000000000000e+00
1.095063016999999972e+00,-2.525042501250000182e+00,5.734605892419999268e-02,-9.448262678300000772e+00,-6.129025015979999193e-03,4.448211286220000484e-03,-7.816968485710000525e-03,1.000000000000000000e+00
1.099944857000000109e+00,-2.532605045459999538e+00,5.345939934980000613e-02,-9.479632214549999603e+00,5.786681082100000525e-03,6.607439368960000246e-03,-2.333509502929999833e-03,1.000000000000000000e+00
1.105126064000000019e+00,-2.520202075479999859e+00,2.370462079920000048e-02,-9.482913135920000514e+00,1.018990948800000025e-02,1.902937889099999948e-03,-4.643599968399999937e-03,1.000000000000000000e+00
1.110160508000000101e+00,-2.494757545359999718e+00,3.524474285250000366e-02,-9.521347788250000832e+00,-5.031000357120000120e-03,3.311260603370000128e-03,-1.683547906579999781e-02,1.000000000000000000e+00
1.115096968000000022e+00,-2.509193774729999937e+00,2.950785230150000313e-02,-9.480705981259999859e+00,-4.334124736490000025e-03,-5.405533593150001030e-04,-1.526292064230000065e-03,1.000000000000000000e+00
1.120145044999999895e+00,-2.506157768040000011e+00,1.131592274589999919e-01,-9.451566396020000482e+00,5.992607329970000164e-04,9.121271781620001601e-03,-7.165921851989999827e-03,1.000000000000000000e+00
1.124972317999999971e+00,-2.516372872579999864e+00,6.483156040799999131e-02,-9.395514838449999573e+00,-5.969109945000000347e-03,-8.882874622940000603e-03,-1.205958193169999991e-03,1.000000000000000000e+00
1.130179990000000023e+00,-2.462484922790000308e+00,3.899487089990000266e-02,-9.476530741410000402e+00,-1.279247365890000092e-02,5.246701650319999556e-03,-4.771407693619999731e-04,1.000000000000000000e+00
1.134964622999999895e+00,-2.458927522569999802e+00,-2.533955820749999796e-02,-9.500284541960001050e+00,3.473319811750000112e-04,-6.727548316119999559e-05,-1.615501195190000017e-02,1.000000000000000000e+00
1.139923854999999930e+00,-2.543395319540000088e+00,-2.418919629569999882e-02,-9.507276008279999857e+00,-1.260498818010000015e-02,-2.470879256729999890e-02,8.186414837840000000e-03,1.000000000000000000e+00
1.145165718999999971e+00,-2.506935766669999843e+00,1.703956382969999961e-01,-9.439727489670000082e+00,1.857378706340000185e-02,-1.118510868399999990e-02,-2.670690417289999733e-03,1.000000000000000000e+00
1.149920102999999916e+00,-2.513199503240000077e+00,2.251528771709999932e-02,-9.478446219640000336e+00,-5.429060198369999556e-03,-1.012016832829999886e-02,-3.064307151360000109e-03,1.000000000000000000e+00
1.155158861000000092e+00,-2.529154612740000196e+00,2.258066968709999608e-02,-9.481292256719999756e+00,4.269533324989999157e-03,-1.232159789649999934e-02,-8.137562312189998773e-03,1.000000000000000000e+00
1.160148170999999895e+00,-2.554532215100000059e+00,7.311560555800000749e-02,-9.418178505680000256e+00,8.414768613869999525e-03,8.398475125430000451e-03,-4.646470304579999877e-03,1.000000000000000000e+00
1.164955151000000022e+00,-2.523672089679999786e+00,-1.014664127620000002e-02,-9.531415593280000209e+00,-1.768472976980000125e-02,-1.129883341490000095e-02,1.276853401209999961e-02,1.000000000000000000e+00
1.169937688999999947e+00,-2.457030164509999892e+00,-4.623264013380000426e-02,-9.432689261589999319e+00,-9.503228589890000411e-03,-1.789850648489999983e-04,5.806668661529999255e-03,1.000000000000000000e+00
1.174947922000000089e+00,-2.432363779159999684e+00,-1.047116166449999983e-02,-9.541683889319999778e+00,-4.477347247300000367e-03,3.409422934059999654e-04,1.020116172729999826e-02,1.000000000000000000e+00
1.180126419999999898e+00,-2.485008012499999808e+00,1.518038053500000151e-01,-9.516627773989998929e+00,-5.358048714700000374e-03,-1.872541010379999774e-02,1.053374726329999822e-04,1.000000000000000000e+00
1.185135507999999893e+00,-2.541636200909999754e+00,-1.092561738719999981e-01,-9.457755313789999008e+00,1.024128869179999866e-02,5.962582305069999769e-03,2.785241464150000051e-03,1.000000000000000000e+00
1.189931845999999904e+00,-2.596122116600000140e+00,4.524430951640000254e-02,-9.492102989070000163e+00,9.334627538919998760e-03,-2.463286742570000229e-02,9.457221254709997915e-03,1.000000000000000000e+00
1.194941390999999964e+00,-2.574079211619999974e+00,2.416952896070000134e-01,-9.467471821160000189e+00,-1.853638095779999934e-03,-1.486073900009999942e-02,8.371517062189999872e-03,1.000000000000000000e+00
1.199922563000000109e+00,-2.458375149380000124e+00,3.285485660790000290e-03,-9.483169741030000210e+00,6.926105357709999751e-03,-1.530717778950000003e-02,2.431797096509999943e-03,1.000000000000000000e+00
1.205158852000000058e+00,-2.508532680470000109e+00,6.317794798209999674e-02,-9.440266418849999397e+00,1.083249878139999969e-02,-2.384569123390000225e-02,1.530079077929999941e-02,1.000000000000000000e+00
1.210154009000000030e+00,-2.509887602210000068e+00,-2.328617048320000184e-03,-9.460536468939999111e+00,1.314054708930000254e-03,-2.480481192470000013e-02,1.609306409959999906e-02,1.000000000000000000e+00
1.215115109999999943e+00,-2.533953537459999961e+00,8.540199995089998997e-02,-9.371820074610001328e+00,-1.327979192139999882e-02,-2.491933107380000026e-02,1.048231404270000104e-02,1.000000000000000000e+00
1.220167210000000058e+00,-2.517297878469999972e+00,3.524596212860000091e-03,-9.340805927659999952e+00,-2.812970243389999875e-02,-2.582279220220000046e-02,6.731924600899999271e-03,1.000000000000000000e+00
1.225335158999999896e+00,-2.463546706799999875e+00,-7.286190935819999992e-02,-9.495078790009999992e+00,-3.943374846129999757e-03,-2.348601259290000048e-02,-8.192982524630000596e-03,1.000000000000000000e+00
1.230163351000000072e+00,-2.395112199129999730e+00,1.440394823589999929e-01,-9.539181551110001323e+00,-5.589084699750000371e-03,-2.540296316149999803e-02,-2.602926222610000076e-03,1.000000000000000000e+00
1.235111397999999916e+00,-2.468848320340000235e+00,7.270213851949999806e-02,-9.552953471349999504e+00,2.577804261820000088e-03,-2.853124402459999986e-02,1.923638582229999713e-02,1.000000000000000000e+00
1.240150150999999923e+00,-2.433454058609999748e+00,3.473280899169999686e-02,-9.419240581950001356e+00,3.854056820270000162e-03,-3.149995207790000362e-02,5.213282071050000591e-03,1.000000000000000000e+00
1.245143418000000057e+00,-2.581338388970000342e+00,-1.029089054709999979e-01,-9.557411619799999869e+00,7.577809039499999212e-03,-4.837358742950000068e-02,1.768605411050000117e-02,1.000000000000000000e+00
1.250120604999999996e+00,-2.472506550590000352e+00,-1.890037465239999825e-01,-9.443137590370000112e+00,-1.132817566390000030e-02,-1.199534349140000088e-02,1.071661990139999819e-02,1.000000000000000000e+00
1.254961906999999988e+00,-2.619718388499999939e+00,3.828908446429999946e-01,-9.519010869740000658e+00,-7.411130703989999256e-03,-4.096560925250000013e-02,1.935801096259999812e-02,1.000000000000000000e+00
1.260112893999999928e+00,-2.596244866200000168e+00,2.347749705579999790e-01,-9.456862748860000778e+00,-4.435780865610000406e-04,-3.327151387929999649e-02,1.184462942180000006e-02,1.000000000000000000e+00
1.264965906000000029e+00,-2.598752465100000020e+00,-2.092307520580000135e-02,-9.458199550419999824e+00,-1.665014715399999962e-04,-9.061470627780000148e-03,-1.381968264470000065e-03,1.000000000000000000e+00
1.270014238999999989e+00,-2.465644848120000177e+00,6.465786150859999248e-02,-9.545181668310000589e+00,1.115856412800000051e-02,-2.477913722399999880e-02,-1.173698622729999960e-02,1.000000000000000000e+00
1.275118546000000075e+00,-2.446175008500000025e+00,1.732793793229999921e-02,-9.480566280530000611e+00,-1.940956339239999998e-03,-4.264456033709999871e-02,1.222365722060000069e-02,1.000000000000000000e+00
1.280191566000000059e+00,-2.382267330599999955e+00,-1.624084572010000005e-01,-9.487008296280000863e+00,7.495185825970000423e-03,-3.269702941179999933e-02,1.369836833329999767e-02,1.000000000000000000e+00
1.285104188999999897e+00,-2.450221799669999978e+00,-1.465528260199999988e-01,-9.466297516679999191e+00,-1.724223606290000224e-02,-3.859994560480000531e-02,1.948514208200000097e-02,1.000000000000000000e+00
1.290155927000000036e+00,-2.553948862259999952e+00,-6.149302253589999934e-02,-9.449987017869998951e+00,-1.486445311460000019e-03,-2.937782183290000085e-02,1.176912430670000106e-02,1.000000000000000000e+00
1.295146974999999978e+00,-2.595168469139999878e+00,1.453466285679999859e-01,-9.466837030389999796e+00,6.225695367899999368e-03,-4.535833001140000126e-02,2.248341590170000251e-02,1.000000000000000000e+00
1.299949918999999898e+00,-2.503679395220000270e+00,9.033977601350000330e-02,-9.477599247420000594e+00,3.054038854320000398e-03,-3.499130159619999458e-02,1.475066225979999868e-02,1.000000000000000000e+00
1.305128653999999999e+00,-2.568099844949999877e+00,1.727565952739999744e-01,-9.601597967530000943e+00,5.102913361039999700e-03,-2.481926977630000142e-02,7.420097477729999287e-03,1.000000000000000000e+00
1.310125833999999934e+00,-2.504792032640000166e+00,8.986518990489998637e-02,-9.532468317200001096e+00,4.591722041369999778e-03,-4.586817324160000209e-02,1.752481330190000031e-04,1.000000000000000000e+00
1.315119928999999965e+00,-2.666850434300000128e+00,-1.161741457000000088e-01,-9.467185989960000825e+00,2.097570104519999850e-03,-3.889680653810000110e-02,2.393178641799999923e-02,1.000000000000000000e+00
1.320134890999999921e+00,-2.567033092500000002e+00,8.725910819280000008e-02,-9.450465156779999987e+00,1.195023581389999950e-02,-2.533420361579999738e-02,1.251710206270000014e-02,1.000000000000000000e+00
1.325134633000000006e+00,-2.565106216090000224e+00,1.190555098230000053e-01,-9.487653023920000095e+00,5.191586911680000360e-03,-3.635057061909999915e-02,-2.784885000440000431e-04,1.000000000000000000e+00
1.330167815000000031e+00,-2.616805131409999596e+00,1.596644009239999995e-01,-9.479969483679999698e+00,-1.003116834910000067e-02,-4.138418287040000060e-02,-1.006357371809999931e-03,1.000000000000000000e+00
1.335116412000000086e+00,-2.703030585700000099e+00,1.010468379259999994e-01,-9.419572005860000985e+00,-1.696521602569999940e-02,-2.174439467490000069e-02,-5.147800780829999735e-03,1.000000000000000000e+00
1.339955003000000033e+00,-2.644109025659999723e+00,7.417950846250000174e-02,-9.320940366719998593e+00,9.381615673189999021e-04,-1.904895715420000177e-02,1.243998389689999866e-02,1.000000000000000000e+00
1.345159602999999926e+00,-2.528015087320000021e+00,-1.081316176889999918e-02,-9.487315170269999598e+00,3.295869566500000004e-03,-2.093455009159999811e-02,1.199492253359999913e-02,1.000000000000000000e+00
1.350008775000000050e+00,-2.515955231690000460e+00,-2.865528830949999953e-02,-9.480509581910000705e+00,-7.540851831440000506e-03,-2.652657404540000041e-02,1.380691956729999947e-02,1.000000000000000000e+00
1.354997347999999935e+00,-2.517225397759999872e+00,3.080273725049999939e-02,-9.493284307810000655e+00,-1.097771897909999989e-02,-3.992911428209999780e-02,2.710700267930000150e-03,1.000000000000000000e+00
1.359981448999999953e+00,-2.611748140280000019e+00,1.144988237659999852e-01,-9.460461065610001441e+00,-6.251141894609998917e-03,-5.131249129769999834e-02,1.858777552840000166e-02,1.000000000000000000e+00
1.364938704999999919e+00,-2.595817872959999661e+00,8.376684563029999919e-02,-9.447633148219999555e+00,-5.429035052659999215e-03,-2.382533252240000288e-02,1.450592745099999956e-02,1.000000000000000000e+00
1.369937645999999898e+00,-2.658484172490000130e+00,-1.307696481529999934e-02,-9.526538342629999434e+00,1.186820026490000013e-02,-3.739585727450000369e-02,1.584620401260000006e-02,1.000000000000000000e+00
1.375131773999999973e+00,-2.470411039610000081e+00,1.274023910759999878e-01,-9.448551432110001258e+00,-2.535451669249999800e-03,-2.738003060219999785e-02,3.523356281220000171e-05,1.000000000000000000e+00
1.379956661000000029e+00,-2.639230313700000163e+00,8.199979029199999658e-02,-9.523335162680000465e+00,-1.441721431910000101e-02,-1.975009962920000126e-02,6.984184496099999674e-03,1.000000000000000000e+00
1.384932150999999889e+00,-2.669902223079999803e+00,1.069921835960000039e-01,-9.389540440219999340e+00,-5.802677012979999029e-03,-3.304827585819999913e-02,2.326133288440000377e-02,1.000000000000000000e+00
1.389988105999999890e+00,-2.614000595379999847e+00,1.112347896020000060e-01,-9.457007710290000091e+00,-3.404200309889999967e-03,-3.244261071090000226e-02,1.211830182000000035e-03,1.000000000000000000e+00
1.395206825000000039e+00,-2.666412042879999778e+00,1.422980911850000030e-01,-9.439458025069999536e+00,-1.053010486070000105e-02,-3.564532846209999412e-02,7.997780106959999358e-03,1.000000000000000000e+00
1.399915432000000015e+00,-2.596948338290000269e+00,1.086726566299999891e-01,-9.462842992310001478e+00,2.074727672150000215e-04,-1.603081636130000015e-02,-3.868246451019999657e-03,1.000000000000000000e+00
1.405122897999999898e+00,-2.644701146330000086e+00,1.067548859750000051e-01,-9.416974975109999590e+00,-9.246268309650000281e-03,-2.341234683990000426e-02,-4.864686634390000177e-04,1.000000000000000000e+00
1.410114539999999916e+00,-2.678485634769999901e+00,4.348026811909999623e-02,-9.460666232799999520e+00,7.258611731230000512e-06,-6.495617330069999515e-03,-5.963991861790000123e-04,1.000000000000000000e+00
1.414948711000000081e+00,-2.584308344690000148e+00,1.189873216910000003e-01,-9.356541256930000827e+00,-2.543634502219999875e-03,-5.147259216760000089e-03,-1.591396052390000020e-03,1.000000000000000000e+00
1.419947024000000058e+00,-2.641271171880000157e+00,3.370422627909999691e-02,-9.462581711030001230e+00,2.157414564860000213e-03,-2.271716296670000038e-02,1.401709299529999876e-02,1.000000000000000000e+00
1.424939192999999937e+00,-2.569538353320000024e+00,-9.262623841629999411e-03,-9.476776240599999568e+00,-2.938994206489999907e-03,-3.256872296329999666e-02,-3.659703303130000095e-03,1.000000000000000000e+00
1.429945739000000104e+00,-2.655791572400000078e+00,-6.953883391670000365e-03,-9.491812481689999359e+00,-1.257717050610000081e-02,-9.072745218870000364e-03,1.409485843029999880e-02,1.000000000000000000e+00
1.434931438000000004e+00,-2.609193487359999786e+00,4.210171434150000030e-02,-9.463210072060000755e+00,-1.264248043300000022e-03,-1.393553055820000164e-02,2.433364046739999818e-03,1.000000000000000000e+00
1.439973398000000016e+00,-2.548812376149999892e+00,1.146798885549999980e-01,-9.425654540650000968e+00,1.127520017330000020e-02,-1.637358590959999902e-02,3.338760463519999805e-03,1.000000000000000000e+00
1.445184688999999967e+00,-2.585360776349999945e+00,7.302055681889998984e-02,-9.453445049369999964e+00,-1.371579524130000019e-02,5.217891186479999520e-03,-7.395778782669999545e-03,1.000000000000000000e+00
1.449944410000000072e+00,-2.652532862869999786e+00,2.671734936670000157e-02,-9.450250052719999516e+00,-9.331259876490000105e-03,-2.471149712799999842e-02,7.814950309690000402e-03,1.000000000000000000e+00
1.455147449999999898e+00,-2.623516027219999991e+00,8.289505863130000596e-02,-9.412893843280000894e+00,-1.665467163549999834e-03,-1.481835916639999938e-02,1.545517984779999805e-02,1.000000000000000000e+00
1.460155572999999984e+00,-2.589767486880000025e+00,9.528519652639999560e-02,-9.494034249389999403e+00,-1.490247715259999939e-02,-2.967260777949999768e-03,4.653552547100000755e-03,1.000000000000000000e+00
1.465020734999999963e+00,-2.617101191740000221e+00,1.361828871069999947e-01,-9.435123210739998711e+00,-1.046094577759999929e-02,-1.892700791360000037e-02,1.553208846600000019e-02,1.000000000000000000e+00
1.470035406999999905e+00,-2.591943077350000291e+00,1.230270438020000107e-01,-9.453409978060001606e+00,5.407137796279999631e-03,-1.711385697129999897e-02,1.245449529959999965e-03,1.000000000000000000e+00
1.475133350999999982e+00,-2.626177063120000099e+00,5.528165547399999796e-02,-9.448083814600000352e+00,-1.613904908300000177e-02,-1.139920204879999940e-02,3.253853647040000265e-03,1.000000000000000000e+00
1.480130672000000036e+00,-2.635626736249999880e+00,6.692840938969998876e-02,-9.480136072420000559e+00,2.538907807320000317e-03,-2.272257208820000277e-02,5.861242301760000682e-03,1.000000000000000000e+00
1.485132085999999907e+00,-2.576556123130000042e+00,1.025449127309999986e-01,-9.475317858480000410e+00,7.760304491970000315e-03,-5.506630055609999450e-03,-6.100116297600000244e-03,1.000000000000000000e+00
1.490189202000000046e+00,-2.621584182379999906e+00,9.762712001010000196e-02,-9.489874791629999251e+00,-1.070489874109999866e-03,-1.045208238070000073e-02,9.716881439090000600e-03,1.000000000000000000e+00
1.495079634999999962e+00,-2.559048815749999761e+00,2.941287662750000087e-02,-9.533801611639999507e+00,1.177257858219999970e-03,-8.688732050360000467e-04,-1.484328415239999973e-03,1.000000000000000000e+00
1.500081130000000096e+00,-2.588539698649999998e+00,6.788609370699999479e-02,-9.488593519640000196e+00,3.872859757389999439e-03,-1.719462685290000167e-02,-3.184566739950000038e-04,1.000000000000000000e+00
1.504901953999999931e+00,-2.604089149960000071e+00,1.179625360879999890e-01,-9.486911265639998092e+00,3.734685014929999686e-03,-7.922429591420001443e-03,-6.061858497560000843e-03,1.000000000000000000e+00
1.509924417999999990e+00,-2.625570913920000304e+00,9.431941110109999526e-02,-9.466694991569999829e+00,1.665943861010000041e-02,3.309478983280000203e-03,3.252571215850000308e-03,1.000000000000000000e+00
1.515144073000000091e+00,-2.630883341120000107e+00,1.669757833830000093e-01,-9.477575866539998728e+00,3.275751369070000179e-03,-8.996421471239999385e-03,-1.220412272959999975e-02,1.000000000000000000e+00
1.520154996000000036e+00,-2.649684779959999847e+00,9.962580128030000537e-02,-9.405725266819999320e+00,7.354030851269999919e-03,-2.196946414189999974e-03,6.484035402539999569e-03,1.000000000000000000e+00
1.525118978000000070e+00,-2.595512752529999911e+00,1.027294663839999900e-01,-9.454971236030001336e+00,1.559884566810000074e-02,-6.029487587510000760e-03,2.998014679180000235e-03,1.000000000000000000e+00
1.530000207000000056e+00,-2.562495156809999841e+00,5.197503341040000252e-02,-9.410410209769999312e+00,5.377940367909999665e-03,1.005396340039999871e-02,-1.828445121650000213e-02,1.000000000000000000e+00
1.534910792000000024e+00,-2.652129250500000257e+00,5.291336000670000123e-02,-9.451329664650000240e+00,9.492925368249999218e-03,6.138468161230000494e-04,-8.559315465390000474e-03,1.000000000000000000e+00
1.539941181000000103e+00,-2.673487680350000062e+00,2.822885904130000012e-02,-9.428865319389998945e+00,1.442608237270000086e-02,-3.101317910479999690e-03,-2.147318795320000018e-03,1.000000000000000000e+00
1.545339978999999975e+00,-2.628137549540000339e+00,-1.005300132610000008e-02,-9.433616897829999459e+00,1.004190556699999931e-02,5.554611794649999545e-03,6.443850696089999976e-03,1.000000000000000000e+00
1.550155734000000063e+00,-2.638894213619999984e+00,4.623483209080000295e-02,-9.399880632449999496e+00,-8.263422176239999459e-03,-3.406344214449999810e-03,7.608674466609999937e-03,1.000000000000000000e+00
1.555127160999999925e+00,-2.558527422220000069e+00,4.519959815840000200e-02,-9.495786061500000486e+00,1.501569617540000033e-02,1.491154171530000017e-02,-3.061706433069999976e-03,1.000000000000000000e+00
1.560114465999999922e+00,-2.615705353470000105e+00,8.242850969860000820e-02,-9.468815052460000103e+00,4.444933962080000606e-03,-3.897591028360000275e-03,-1.929246354849999774e-03,1.000000000000000000e+00
1.565149278999999893e+00,-2.576031514729999916e+00,9.555342814169999477e-02,-9.458563707559999756e+00,1.575299538670000069e-02,1.334358938039999958e-03,-1.419070735570000102e-02,1.000000000000000000e+00
1.569939176000000103e+00,-2.622300513949999967e+00,8.582449967930000367e-02,-9.481294010279999185e+00,3.605937585229999909e-03,1.160476263610000017e-02,-5.334345623850000623e-04,1.000000000000000000e+00
1.575037719000000003e+00,-2.603379540379999746e+00,7.719152692720000243e-03,-9.442067915310000004e+00,4.198916256430000084e-03,-1.702936179940000086e-02,-5.041763186449999858e-03,1.000000000000000000e+00
1.580163503999999941e+00,-2.600521228340000324e+00,1.796901916469999944e-02,-9.476804882170000610e+00,1.388327591119999961e-02,5.505325272680000256e-03,1.099077984690000065e-02,1.000000000000000000e+00
1.585087541999999905e+00,-2.583125272380000226e+00,1.241738757499999957e-01,-9.445942126400000305e+00,1.109160296620000097e-02,-1.104465872049999881e-02,7.479208521539999766e-03,1.000000000000000000e+00
1.590195742999999995e+00,-2.605396725419999893e+00,5.766144044980000410e-02,-9.446978483709999708e+00,1.508122403170000098e-02,-2.613451797519999835e-03,1.328047364950000076e-04,1.000000000000000000e+00
1.595114292000000100e+00,-2.597469147290000002e+00,2.527690933400000145e-02,-9.459951362530000907e+00,1.579599827530000014e-02,-1.581397280100000149e-02,1.103164907539999975e-02,1.000000000000000000e+00
1.600014526000000048e+00,-2.593526254890000438e+00,3.217097513009999771e-02,-9.496389288089998715e+00,7.152080652300000585e-04,-8.157600648699999193e-03,9.554805234070000777e-03,1.000000000000000000e+00
1.604967873999999961e+00,-2.564664609799999884e+00,7.523180312760001376e-02,-9.465880168049999099e+00,1.723442785440000222e-02,2.664939500389999685e-03,-3.189698560159999908e-03,1.000000000000000000e+00
1.610119426000000020e+00,-2.675375978319999959e+00,6.268356576099999578e-02,-9.428286642719999833e+00,5.342599935830000257e-03,-2.708077430729999985e-02,1.057282462720000177e-02,1.000000000000000000e+00
1.615140132999999922e+00,-2.601910052350000058e+00,8.533909078250000169e-02,-9.415757416010000824e+00,1.568325608970000049e-02,1.326482743020000049e-03,-5.599822849039999724e-03,1.000000000000000000e+00
1.620165681000000024e+00,-2.606940155470000242e+00,8.877864591029999142e-02,-9.425676167960000740e+00,-1.149731315670000226e-02,-9.425138123330000298e-03,-1.309240981939999854e-02,1.000000000000000000e+00
1.625125369000000042e+00,-2.663376620709999809e+00,5.300736756620000323e-02,-9.443929033010000751e+00,4.242230788800000190e-04,-4.008422605690000091e-03,-1.892422558739999955e-03,1.000000000000000000e+00
1.630162496999999933e+00,-2.618337455540000303e+00,4.492282704369999352e-02,-9.408604037130000819e+00,1.421185908839999942e-03,1.262900140140000085e-02,-4.520479589699999759e-03,1.000000000000000000e+00
1.634861134999999965e+00,-2.567609431079999727e+00,-3.872282162610000272e-02,-9.436585684510001570e+00,1.145768538120000082e-02,-2.992310561239999982e-03,-1.299987547100000043e-02,1.000000000000000000e+00
1.639929420999999943e+00,-2.601873811990000007e+00,4.778343607260000098e-02,-9.473070371819998670e+00,-2.016862563319999984e-04,-8.153110742570000152e-03,-2.739411545919999934e-03,1.000000000000000000e+00
1.644952460000000061e+00,-2.629908943129999788e+00,4.823058161849999581e-02,-9.440697796000000253e+00,7.417344022539999575e-03,-1.140457764270000167e-02,-1.927406294270000075e-03,1.000000000000000000e+00
1.649988422999999926e+00,-2.624391933270000088e+00,1.488603951420000050e-02,-9.438545001880001450e+00,-5.689860321580000185e-03,-1.929358765479999988e-02,4.342989996079999956e-03,1.000000000000000000e+00
1.654926187000000048e+00,-2.583504627090000394e+00,7.441393827289999319e-02,-9.439909860489999360e+00,1.287511177360000161e-02,1.403441466389999948e-02,6.116592325269999859e-03,1.000000000000000000e+00
1.659930080000000086e+00,-2.570956111160000113e+00,4.793596431979999656e-02,-9.478862399219998736e+00,-1.986468397080000045e-02,-9.590696543460000209e-03,-2.442945493390000049e-03,1.000000000000000000e+00
1.664904613999999894e+00,-2.634152279789999884e+00,3.776449113810000091e-02,-9.438035883319999542e+00,9.167240001260000895e-03,1.040510367599999965e-02,-4.428615793590000467e-03,1.000000000000000000e+00
1.669929071000000098e+00,-2.583185770400000081e+00,2.070811271429999836e-02,-9.461053770810000429e+00,-4.827379249040000125e-03,-2.195164328439999906e-03,-3.292415989559999839e-03,1.000000000000000000e+00
1.675017167999999890e+00,-2.618032919630000066e+00,1.263051338909999995e-02,-9.441277057189999766e+00,-6.715722382069999261e-03,-2.165485871960000277e-03,4.591888748109999863e-03,1.000000000000000000e+00
1.680150865000000104e+00,-2.606173262750000053e+00,2.077460664579999783e-02,-9.453861813479999654e+00,-2.367033157500000179e-03,1.832670066509999984e-03,1.685123145579999968e-02,1.000000000000000000e+00
1.685108639999999935e+00,-2.525087509430000043e+00,2.439572888549999818e-02,-9.442344978690000445e+00,1.359557500110000023e-03,-5.910658277570000028e-03,-5.477096885439998973e-03,1.000000000000000000e+00
1.689997181999999931e+00,-2.575092188050000175e+00,4.905635578499999844e-02,-9.483935464700000040e+00,-6.172825582330000033e-03,-1.122400444000000094e-02,-8.265756070609999590e-03,1.000000000000000000e+00
1.695131830000000006e+00,-2.620475636609999714e+00,8.967966813699999873e-02,-9.467171961430000948e+00,2.287014154719999807e-03,-8.811545558269999728e-04,6.952273659409998960e-03,1.000000000000000000e+00
1.699926805999999901e+00,-2.592589850820000041e+00,5.402169114130000310e-02,-9.467846499689999362e+00,-2.711297711360000084e-03,9.215460158879999406e-03,3.387947799639999709e-03,1.000000000000000000e+00
1.704931320000000028e+00,-2.590814950099999958e+00,9.315937261199999653e-02,-9.473442127739998497e+00,-3.490432864059999892e-04,6.286184303460000400e-03,8.383795619009998951e-03,1.000000000000000000e+00
1.710167792000000020e+00,-2.627182148509999760e+00,1.068507384320000059e-01,-9.425454049639998999e+00,1.643736846750000003e-03,6.981587037439999054e-03,4.650248214600001019e-03,1.000000000000000000e+00
1.715129466999999908e+00,-2.583692258620000182e+00,8.392221885510001145e-02,-9.455658049249999308e+00,-3.425233764570000377e-03,-7.379030343149999699e-03,-1.172799710179999941e-02,1.000000000000000000e+00
1.719944676999999977e+00,-2.639443664190000316e+00,1.075218791589999945e-01,-9.473977549789999841e+00,1.086465548719999993e-02,-6.485490128399999839e-03,4.757175222039999873e-03,1.000000000000000000e+00
1.725098918999999897e+00,-2.600764973970000060e+00,7.194871720310000440e-02,-9.462863450580000446e+00,-3.059467708230000213e-04,-1.009640656409999983e-02,-5.854154005650000518e-04,1.000000000000000000e+00
1.729939252000000094e+00,-2.588531515340000144e+00,7.423446265329999849e-02,-9.460245377039999681e+00,-6.289981305600001078e-03,-1.295740995559999977e-02,4.329134710130000049e-03,1.000000000000000000e+00
1.734907278000000108e+00,-2.610589910149999859e+00,2.799965339530000041e-02,-9.454299620380000491e+00,1.219615340230000055e-03,3.342981450260000369e-03,5.805809982120000226e-03,1.000000000000000000e+00
1.739943355000000080e+00,-2.567926241949999966e+00,3.752111083619999454e-02,-9.447634901789999873e+00,-1.199507736600000010e-03,6.545591168109998921e-03,-7.061653770509999754e-03,1.000000000000000000e+00
1.744941384000000095e+00,-2.633376911500000084e+00,9.022051984830000218e-03,-9.452646592469999831e+00,-1.325261592859999955e-02,-1.722441241149999872e-02,3.898479044440000233e-04,1.000000000000000000e+00
1.749894078999999936e+00,-2.648284850040000027e+00,2.943089634140000355e-02,-9.435753909860000732e+00,9.183824993669998868e-03,-2.247029356660000185e-02,9.533408097920000393e-03,1.000000000000000000e+00
1.754924560999999938e+00,-2.586466691770000104e+00,8.166947149219999647e-02,-9.436853395529999133e+00,-1.043199282139999941e-02,-1.423216518010000063e-02,-2.127920743079999980e-04,1.000000000000000000e+00
1.760037743999999904e+00,-2.598943896020000199e+00,3.279590666199999616e-02,-9.442896767349999720e+00,6.378104444590000123e-03,-2.995628630739999906e-03,3.921642899509999829e-03,1.000000000000000000e+00
1.764927981000000035e+00,-2.610755037590000160e+00,6.882192695210000155e-02,-9.416022204429999931e+00,-5.519385915250000704e-03,6.933338940140000399e-03,-1.448621158489999967e-03,1.000000000000000000e+00
1.769861203000000049e+00,-2.647419757640000260e+00,2.439389312150000086e-02,-9.469045938609999880e+00,-1.829132996499999858e-02,8.070856332779999254e-03,5.943790078160000184e-03,1.000000000000000000e+00
1.774914035999999973e+00,-2.610523859179999739e+00,4.590028464049999285e-02,-9.443945399620000458e+00,7.164823822680000363e-03,-1.623181812469999888e-02,1.181943994020000048e-02,1.000000000000000000e+00
1.779918896999999944e+00,-2.537260177790000348e+00,6.440094587180000829e-02,-9.484884728249999952e+00,-9.813467040659999002e-03,7.295565679669999484e-03,5.446227267380000618e-03,1.000000000000000000e+00
1.784922160000000035e+00,-2.538098089920000078e+00,1.038802621209999888e-01,-9.463366723929999225e+00,-1.117545459419999956e-02,-4.087190609429999615e-03,-6.245194002989999660e-03,1.000000000000000000e+00
1.789982873999999891e+00,-2.631874982499999849e+00,6.868434511229999651e-02,-9.425983041950001251e+00,-8.301525376740000878e-03,5.680881440640000004e-05,6.458183750510000654e-03,1.000000000000000000e+00
1.794927903999999907e+00,-2.609619311549999932e+00,1.257969423410000044e-02,-9.449409510249999755e+00,6.780665833499999878e-03,9.694185107950000629e-03,7.320855744180000853e-03,1.000000000000000000e+00
1.799885237000000027e+00,-2.580627610350000101e+00,4.864348240150000169e-02,-9.407761741079999851e+00,-1.875941175969999966e-03,-1.326186209919999991e-02,-9.293654933569999235e-03,1.000000000000000000e+00
1.804911946999999905e+00,-2.554749657249999917e+00,3.722761006569999531e-02,-9.472153256969999546e+00,-1.636510714890000153e-03,-7.086734287439998801e-03,-1.732530817390000311e-02,1.000000000000000000e+00
1.810172091999999955e+00,-2.653652514550000063e+00,3.374680047890000339e-02,-9.471462936620000050e+00,-4.105407744650000669e-03,-5.548993591220000368e-03,1.345113385470000054e-02,1.000000000000000000e+00
1.815145929999999908e+00,-2.549405665870000171e+00,3.488109488860000051e-02,-9.476348370580000235e+00,-1.461767032739999875e-02,2.592143602670000154e-03,-7.092408835890001012e-03,1.000000000000000000e+00
1.819926479000000041e+00,-2.607933258159999657e+00,8.612636870269999023e-02,-9.454775421189999918e+00,-6.284830160439998890e-03,8.380490355189999796e-03,1.485981699079999899e-02,1.000000000000000000e+00
1.825184117999999911e+00,-2.576934893309999808e+00,5.993488810740000422e-02,-9.467032260699999924e+00,-4.673741292210000474e-03,-1.345636323090000121e-02,9.183370508250000841e-03,1.000000000000000000e+00
1.829988484000000026e+00,-2.580160577359999596e+00,3.255174775869999759e-02,-9.472612106659999753e+00,-4.113269504159999465e-03,-7.159731350840001056e-03,1.866856357079999971e-03,1.000000000000000000e+00
1.834943444999999951e+00,-2.583906193629999848e+00,1.040385214219999993e-01,-9.459934411389999909e+00,3.458904102440000117e-03,-1.015418581660000076e-02,-4.763947799799999813e-03,1.000000000000000000e+00
1.839962899000000096e+00,-2.606086753509999632e+00,9.932706492889999128e-02,-9.450634083600000679e+00,8.781025186179999831e-03,-5.779376253489999955e-03,4.769076593220000597e-03,1.000000000000000000e+00
1.845079911000000017e+00,-2.618249485000000210e+00,4.114989350940000123e-02,-9.450542898189999264e+00,4.620601888750000032e-03,-9.076842106879999539e-03,5.383634939790000150e-03,1.000000000000000000e+00
1.849984921999999976e+00,-2.601370538649999897e+00,4.604014976899999806e-02,-9.431738829000000379e+00,-4.858799278740000283e-03,-7.002737373109999691e-03,1.729266019539999746e-03,1.000000000000000000e+00
1.855099604999999929e+00,-2.592776021040000156e+00,6.616463564270000375e-02,-9.430380984650000187e+00,1.001845579590000031e-03,-3.134406637399999706e-03,9.112072177230000347e-03,1.000000000000000000e+00
1.859938383999999889e+00,-2.620678465709999738e+00,4.279891195859999303e-02,-9.401368240650000985e+00,-2.663943683729999914e-03,-1.480189245189999885e-02,6.168694235379999953e-03,1.000000000000000000e+00
1.865166459000000110e+00,-2.597910169059999941e+00,2.465520637219999894e-02,-9.426942242370000002e+00,-2.303868066520000160e-03,-1.671248301860000021e-02,3.022153163329999778e-03,1.000000000000000000e+00
1.870010119000000026e+00,-2.637870131270000140e+00,4.821132892869999659e-02,-9.461192887020001052e+00,-1.578047312799999921e-02,-2.210380975159999695e-03,1.124393194910000039e-02,1.000000000000000000e+00
1.874907732000000049e+00,-2.610387957839999995e+00,6.251191268819999980e-02,-9.459970067230001334e+00,-4.067044705149999717e-03,2.154577523469999520e-03,3.132296958940000015e-03,1.000000000000000000e+00
1.879873308999999937e+00,-2.590909058129999831e+00,9.711808364260000881e-02,-9.435954400870000924e+00,1.608594506979999991e-02,1.712338067589999884e-03,-1.170933013780000014e-03,1.000000000000000000e+00
1.884942313999999897e+00,-2.619495101140000060e+00,6.478389447450000338e-02,-9.457456623099998794e+00,4.834230057900000023e-03,-1.196113228799999990e-02,1.368561293929999867e-02,1.000000000000000000e+00
1.889914515000000073e+00,-2.579218328070000066e+00,3.741678509540000142e-02,-9.456228542610000787e+00,5.051760002970000739e-03,-1.632594130929999887e-02,1.083335746079999891e-02,1.000000000000000000e+00
1.894862739999999990e+00,-2.582569099799999712e+00,-8.950849912139999254e-03,-9.457978601149999776e+00,1.455361256379999980e-03,-1.693696901200000132e-02,4.424837417899999369e-03,1.000000000000000000e+00
1.899925180000000102e+00,-2.600231890009999880e+00,6.492606572449999280e-02,-9.447460714269999116e+00,3.321515861899999866e-03,-1.440281607210000016e-02,1.543499296530000033e-03,1.000000000000000000e+00
1.905092902000000032e+00,-2.599376734479999840e+00,1.199835844530000029e-01,-9.418486548719998908e+00,-7.226902991529999924e-03,-8.567393757399999893e-03,-1.470009144400000189e-02,1.000000000000000000e+00
1.910139156000000060e+00,-2.661136440559999983e+00,6.867405661370000469e-02,-9.436090009950000024e+00,-1.111471280460000002e-02,-9.405831806359999520e-03,1.927689416329999780e-03,1.000000000000000000e+00
1.915157623999999892e+00,-2.662210791800000198e+00,1.377053839660000167e-01,-9.431779161010000578e+00,2.858464140440000138e-03,-2.607085369529999960e-02,1.846107281740000383e-02,1.000000000000000000e+00
1.920172726999999968e+00,-2.584645906080000000e+00,7.680098867300000354e-02,-9.452149164339999743e+00,2.075604163109999890e-03,-3.850199747830000078e-03,4.673743620510000321e-03,1.000000000000000000e+00
1.925135693000000092e+00,-2.640897954650000212e+00,8.538537760969999724e-02,-9.430184585289998367e+00,-1.178142707789999952e-02,4.571577068419999980e-03,9.908528067170000245e-03,1.000000000000000000e+00
1.930143909999999963e+00,-2.573094876759999927e+00,7.344737196280000380e-02,-9.424861928969999525e+00,6.418660283089999870e-03,1.263461541379999782e-02,-6.705408915879999820e-03,1.000000000000000000e+00
1.935134225000000097e+00,-2.629164554499999973e+00,2.679086441079999922e-02,-9.460010983760000158e+00,-7.209270261229999265e-04,4.397351760420000269e-03,-4.727323539559999806e-05,1.000000000000000000e+00
1.939986181000000087e+00,-2.602835642760000123e+00,8.724126200889999183e-02,-9.478751340060000530e+00,4.491711501030000268e-03,-5.735736805949999406e-03,3.680656664069999434e-04,1.000000000000000000e+00
1.945159639999999968e+00,-2.616572491690000390e+00,7.073279750819999601e-02,-9.450798918780000335e+00,2.799691283140000255e-04,-9.759366512299999519e-03,2.172497101129999830e-02,1.000000000000000000e+00
1.950162406000000015e+00,-2.635505155699999769e+00,2.679438752510000105e-02,-9.478927281149999828e+00,3.653451334689999941e-03,2.219917252659999764e-03,7.798086851840000527e-03,1.000000000000000000e+00
1.955142707000000035e+00,-2.585842130129999639e+00,9.204324632999999478e-02,-9.470648113110000210e+00,1.170987822120000098e-02,-1.409883797170000119e-02,3.260463709010000353e-03,1.000000000000000000e+00
1.960108350000000055e+00,-2.620351717970000216e+00,5.882125974309999200e-02,-9.468675936249999481e+00,1.967845601029999554e-04,-2.905835397539999893e-03,6.896857172250000015e-03,1.000000000000000000e+00
1.964967122000000010e+00,-2.592166072449999970e+00,2.693758625489999989e-02,-9.441065460269999932e+00,5.292362067850000032e-03,-1.469683926550000019e-02,-2.840801607820000064e-03,1.000000000000000000e+00
1.969941828000000061e+00,-2.634207809369999875e+00,9.946584321199999912e-02,-9.452921902279999955e+00,1.801084913309999869e-02,4.161109682169999817e-04,-1.543643185869999872e-03,1.000000000000000000e+00
1.975035314000000097e+00,-2.642875976729999632e+00,7.571028452660000241e-02,-9.449161088440000356e+00,-7.641199510539999594e-03,-1.483120396729999992e-02,3.983793780210000135e-03,1.000000000000000000e+00
1.980100404000000092e+00,-2.616443020090000182e+00,2.664529791059999653e-02,-9.482290035580000165e+00,-1.019578147679999977e-02,-1.127241365609999921e-02,-2.586853457609999875e-03,1.000000000000000000e+00
1.984937482000000086e+00,-2.631160696759999862e+00,5.908608469169999294e-02,-9.445489706449999190e+00,2.183540724219999816e-03,-4.604914225640000490e-03,-2.555496525020000114e-03,1.000000000000000000e+00
1.989931936000000068e+00,-2.704597396630000095e+00,7.341652473339999041e-02,-9.455183417469999796e+00,1.753199845550000016e-03,4.054652526969999707e-04,1.489264611150000091e-02,1.000000000000000000e+00
1.995120068999999940e+00,-2.646912392640000444e+00,7.844893854319999471e-02,-9.421925875510000381e+00,5.515665747229999555e-03,8.711167611180000185e-04,4.847010597590000608e-03,1.000000000000000000e+00
1.999967051000000051e+00,-2.612329739559999808e+00,6.869694886560000213e-02,-9.422544299669999290e+00,2.365886233750000029e-03,-4.614902660250000226e-03,1.003055553879999943e-02,1.000000000000000000e+00
2.005098010000000208e+00,-2.608860894399999797e+00,5.074815393000000480e-02,-9.435493797619999512e+00,-8.286027237770001233e-03,1.998392399399999929e-03,1.266982499510000033e-02,1.000000000000000000e+00
2.010134058999999862e+00,-2.609292563819999966e+00,8.786604284369999018e-02,-9.414940254410000264e+00,-7.868007756770000610e-03,-4.107106011359999871e-03,6.102312356229999853e-03,1.000000000000000000e+00
2.015117254999999830e+00,-2.631625976180000048e+00,6.655221932130001017e-02,-9.416289330930000645e+00,-3.531133756039999804e-03,-7.367932237680000461e-03,-4.506951197979999942e-03,1.000000000000000000e+00
2.020125579000000116e+00,-2.639239081529999975e+00,1.209711433190000102e-01,-9.442315752589999889e+00,-1.999735459690000008e-02,-1.988255977629999754e-02,-1.059995847749999965e-03,1.000000000000000000e+00
2.025101189999999995e+00,-2.629259831570000205e+00,7.580313217549999871e-02,-9.438426343939999796e+00,7.405762094999999816e-03,-1.482564373869999863e-03,-2.460150746629999937e-03,1.000000000000000000e+00
2.030130070999999869e+00,-2.649704653709999747e+00,9.764664669450000278e-02,-9.399618766639999734e+00,-5.675605032590000376e-03,1.957659609619999928e-03,-7.232940755779999550e-03,1.000000000000000000e+00
2.035104534999999881e+00,-2.629211900779999667e+00,9.115430726679998874e-02,-9.443839016639998363e+00,1.538969296959999920e-02,3.671448212119999849e-03,6.122433114800000494e-04,1.000000000000000000e+00
2.039964142000000091e+00,-2.667772809840000203e+00,7.474453106730000185e-02,-9.435193353369999869e+00,-5.225930362939999393e-03,4.576501436529999828e-03,4.203332588080000223e-03,1.000000000000000000e+00
2.045086463000000077e+00,-2.630653039489999845e+00,1.118268646099999930e-01,-9.413796929589999252e+00,2.631063340229999881e-03,4.734957590699999906e-03,-1.445563137529999945e-02,1.000000000000000000e+00
2.049993659000000079e+00,-2.683974295320000092e+00,9.510404040639999779e-02,-9.413105440199998952e+00,-1.938699046150000162e-03,-4.255013540390000307e-03,4.915018565949999703e-03,1.000000000000000000e+00
2.054946971000000122e+00,-2.641840203940000187e+00,7.822994376389999505e-02,-9.435849186930001409e+00,1.991983153859999895e-04,9.641043841839998935e-03,6.293474696580000569e-03,1.000000000000000000e+00
2.059947412000000089e+00,-2.670569454819999855e+00,6.404747909190000588e-02,-9.432830715890000661e+00,-2.611316740509999918e-03,3.238938748839999791e-03,1.305696461349999983e-02,1.000000000000000000e+00
2.064928195999999883e+00,-2.625181037820000007e+00,7.000326852400000355e-02,-9.428349771080000608e+00,-5.879634525630000365e-03,2.527648955579999898e-02,1.006087055429999910e-03,1.000000000000000000e+00
2.069919919999999802e+00,-2.631638835660000009e+00,8.800246477289998259e-02,-9.401645304029999650e+00,-1.017524953929999955e-02,6.678977981210000407e-03,2.801458584139999552e-03,1.000000000000000000e+00
2.075100166999999995e+00,-2.652391700829999976e+00,5.784516298619999525e-02,-9.446987836059999921e+00,8.268377743660000265e-03,-2.244421746579999995e-03,1.913807913659999749e-02,1.000000000000000000e+00
2.079931760000000018e+00,-2.625533212259999694e+00,2.823930737009999747e-02,-9.442447854539999241e+00,-2.326605282720000181e-02,2.125747315590000366e-02,8.731015957889999915e-03,1.000000000000000000e+00
2.085072069999999833e+00,-2.635536719880000156e+00,3.986773104460000078e-02,-9.465725854269999573e+00,-4.560711793600000230e-03,4.273512866349999696e-03,1.263822522010000018e-02,1.000000000000000000e+00
2.090141143999999951e+00,-2.668979263020000214e+00,1.021574934490000058e-01,-9.427158515469999500e+00,-2.007913077249999859e-03,4.901275038720000372e-03,1.891385577620000036e-02,1.000000000000000000e+00
2.094908821000000199e+00,-2.617031633640000354e+00,1.345856627769999869e-01,-9.389340533729999549e+00,-4.837397951629999852e-03,2.527533285320000128e-02,8.546796161679998767e-04,1.000000000000000000e+00
2.099965040999999921e+00,-2.623881645660000039e+00,9.251788723760001609e-02,-9.429151735119999600e+00,-2.114337123929999757e-02,8.902311325069999989e-03,-6.973715499039999551e-04,1.000000000000000000e+00
2.104977365999999961e+00,-2.618788998699999926e+00,1.053792411070000046e-01,-9.463249235030000150e+00,-6.751863751560000307e-03,2.570243738590000104e-02,-1.515461318189999934e-02,1.000000000000000000e+00
2.110150126999999820e+00,-2.623128781470000170e+00,1.180685537450000128e-01,-9.483055759260000883e+00,-2.362884115429999751e-03,2.872292138640000075e-02,4.400460980829999820e-03,1.000000000000000000e+00
2.115120827999999786e+00,-2.645350842410000070e+00,9.358688644230001019e-02,-9.449018465099999986e+00,8.276158012449999837e-03,3.116217069330000020e-02,6.463167257609999869e-03,1.000000000000000000e+00
2.120081723999999834e+00,-2.581430743419999896e+00,1.133376162329999964e-01,-9.483933126620000209e+00,4.814593703490000019e-04,1.590549387039999832e-02,-1.654063817109999884e-04,1.000000000000000000e+00
2.125106630999999968e+00,-2.619705529019999979e+00,8.995463088710001220e-02,-9.440565109530000498e+00,1.649045199159999975e-02,7.279551587999999809e-03,8.319422602649999277e-03,1.000000000000000000e+00
2.130103901000000022e+00,-2.582101482290000138e+00,8.992487506969999711e-02,-9.456392208739998750e+00,-3.378605004400000132e-03,3.454205393790000383e-02,-1.763654127720000117e-02,1.000000000000000000e+00
2.135132453999999846e+00,-2.675042508579999812e+00,9.838890729599998608e-02,-9.449829781480000079e+00,-3.435070393610000199e-03,1.922816410659999864e-02,-7.723007351159999131e-03,1.000000000000000000e+00
2.140004624999999994e+00,-2.636609317550000053e+00,1.198127761969999955e-01,-9.438729126280000159e+00,3.619139548390000027e-03,1.535537093879999794e-02,-5.622426047920000246e-03,1.000000000000000000e+00
2.145094647000000077e+00,-2.652120774940000203e+00,7.608170708830000462e-02,-9.410677920790000428e+00,-6.538917310539999958e-03,1.195888407530000010e-02,-8.152108639480000777e-04,1.000000000000000000e+00
2.150128120999999837e+00,-2.587692141909999854e+00,6.960310392510000999e-02,-9.450336561960000381e+00,-6.122278515249999879e-03,1.761028170590000358e-02,-2.123876707629999971e-03,1.000000000000000000e+00
2.155112930000000038e+00,-2.518773503979999884e+00,6.463135252759999450e-02,-9.455274018369999922e+00,-1.018426846710000083e-02,2.515646163369999674e-03,-1.421860698610000022e-02,1.000000000000000000e+00
2.159961963999999845e+00,-2.534378484870000392e+00,2.014135252680000071e-02,-9.497626136399999197e+00,-2.550288569179999954e-03,2.161192893979999724e-02,-2.309652976689999856e-03,1.000000000000000000e+00
2.164956219000000015e+00,-2.559080672189999905e+00,8.668863766139999275e-03,-9.464247598420000074e+00,7.859449833629999355e-03,6.081448867920000341e-03,3.233504248780000399e-03,1.000000000000000000e+00
2.169927303000000141e+00,-2.554992818350000139e+00,-1.875439396369999942e-02,-9.473475445489999203e+00,7.319253403690000222e-03,2.215846441690000335e-02,4.627155140039999545e-03,1.000000000000000000e+00
2.174977280999999874e+00,-2.561834939330000172e+00,1.675344082130000162e-02,-9.499572594300000006e+00,-1.101445290260000005e-03,7.907506078479998451e-03,2.440486801789999802e-03,1.000000000000000000e+00
2.179906059999999979e+00,-2.581604346430000252e+00,1.169582909479999905e-01,-9.467959312419999662e+00,-1.835313858459999793e-03,1.376125030220000031e-02,8.153541944920000145e-03,1.000000000000000000e+00
2.184824359999999910e+00,-2.569596805509999804e+00,1.397022568719999969e-01,-9.462558330149999364e+00,1.164074800909999964e-02,6.812594830989999843e-03,-6.092521362010001017e-03,1.000000000000000000e+00
2.189815224999999810e+00,-2.622503635309999748e+00,7.915789053010001408e-02,-9.460133148829999783e+00,1.979646645490000176e-02,1.695770770310000067e-04,-7.279761135579999529e-03,1.000000000000000000e+00
2.194905165000000213e+00,-2.590540224809999792e+00,2.514178431280000153e-02,-9.495813534019999835e+00,2.032475545999999980e-02,1.383496448400000148e-02,9.756477084010000290e-04,1.000000000000000000e+00
2.199872126999999900e+00,-2.599710788739999945e+00,1.019911695719999956e-01,-9.420623560739999292e+00,3.569950815290000128e-03,1.906007342040000330e-02,3.664498915900000348e-03,1.000000000000000000e+00
2.204881614000000045e+00,-2.593725576849999825e+00,2.888176314219999957e-02,-9.487846500669999017e+00,7.451168727130000509e-03,8.540336973970000939e-03,-1.057020155710000110e-03,1.000000000000000000e+00
2.209694955999999877e+00,-2.570173144089999973e+00,1.566370889919999898e-01,-9.429323584549999637e+00,7.405197713520000544e-03,5.403408780689999795e-03,-1.421256735920000194e-02,1.000000000000000000e+00
2.214616780000000063e+00,-2.604952196529999764e+00,5.225843062879999973e-02,-9.392945864750000595e+00,3.001571865750000088e-03,2.086907625199999755e-02,-6.781003437940000093e-03,1.000000000000000000e+00
2.219678384999999921e+00,-2.582785080639999897e+00,4.668033823549999628e-02,-9.483840772160000654e+00,5.849574226890000457e-03,2.167727798220000363e-02,-5.945017095660000243e-03,1.000000000000000000e+00
2.224810571999999986e+00,-2.600331258729999817e+00,1.007892190369999996e-01,-9.419596555780000102e+00,2.224473655220000207e-02,1.385401748120000144e-02,1.022135838870000073e-04,1.000000000000000000e+00
2.229812442000000061e+00,-2.581746969770000177e+00,7.016939147169999613e-02,-9.385856783270000392e+00,7.201773114500000482e-03,1.301378384229999984e-02,-5.361774005000000121e-03,1.000000000000000000e+00
2.234846496999999932e+00,-2.553349727320000095e+00,5.287110090069999796e-02,-9.445256482219999583e+00,3.883328754449999563e-03,1.063256431370000060e-02,-6.619688123460000344e-03,1.000000000000000000e+00
2.239845827999999983e+00,-2.536655782149999983e+00,5.862278716210000268e-02,-9.453470768340000774e+00,2.021377533670000101e-02,3.440476953980000502e-02,1.347433542830000011e-03,1.000000000000000000e+00
2.244777714000000035e+00,-2.509863636820000021e+00,7.758324335819999362e-02,-9.467511568649999987e+00,1.060840860009999893e-02,1.161260437220000032e-02,-1.153867784889999956e-02,1.000000000000000000e+00
2.249853746999999959e+00,-2.607318048879999850e+00,7.425608539660000229e-02,-9.463424007069999533e+00,5.732106976209999823e-03,5.635730922220000272e-03,-4.042194224889999674e-03,1.000000000000000000e+00
2.254783560999999992e+00,-2.571799576250000108e+00,6.483317240980000784e-02,-9.449282084470000953e+00,-3.361413720999999882e-03,1.672679744660000162e-02,-1.044107880439999921e-02,1.000000000000000000e+00
2.259852565000000091e+00,-2.630527951809999987e+00,2.103105877499999998e-02,-9.432914302520000405e+00,1.621109433469999916e-02,1.832220703359999656e-03,3.614017507060000075e-03,1.000000000000000000e+00
2.264817723000000171e+00,-2.592599203169999811e+00,1.042916057010000001e-02,-9.422027582320000150e+00,1.366146374490000148e-02,6.832526996729999108e-03,-2.960872137920000317e-03,1.000000000000000000e+00
2.269903081999999905e+00,-2.601925249920000294e+00,1.030303284770000063e-02,-9.429672544119998889e+00,1.339685358110000168e-02,1.250069588420000231e-02,3.749610623340000285e-03,1.000000000000000000e+00
2.274914678000000023e+00,-2.560013569129999667e+00,2.204034769869999896e-02,-9.439864852310000387e+00,7.456698920579999702e-03,1.098709926010000074e-02,-1.067079487260000001e-03,1.000000000000000000e+00
2.280084464000000199e+00,-2.572107034759999689e+00,1.848730170949999807e-02,-9.443066278699999927e+00,1.801380189140000098e-03,-2.186961006369999867e-03,-5.853483453389999626e-03,1.000000000000000000e+00
2.285013154000000046e+00,-2.556382811409999789e+00,8.655047586629999179e-02,-9.395833402879999241e+00,4.709986038510000084e-03,9.458753280339999778e-03,2.102161524819999919e-03,1.000000000000000000e+00
2.289943152000000204e+00,-2.465489657559999603e+00,6.803759904080000642e-02,-9.448731464850000705e+00,1.374365389350000119e-02,1.916467584670000085e-02,-6.006897427140000210e-03,1.000000000000000000e+00
2.294932866999999987e+00,-2.524343120809999785e+00,4.509425178749999763e-02,-9.497992047110001224e+00,-1.222148770470000024e-03,-2.802810631690000418e-03,4.038099199530000016e-03,1.000000000000000000e+00
2.300088876999999865e+00,-2.516025374320000285e+00,4.418350731790000874e-02,-9.470234856130000267e+00,1.248780265450000031e-02,-1.040698494759999954e-02,4.383273422720000527e-03,1.000000000000000000e+00
2.304940026000000142e+00,-2.570408706409999855e+00,4.677661995050000354e-02,-9.469736258960001152e+00,4.544869996609999380e-03,-9.701702743769999998e-03,2.586340764539999792e-03,1.000000000000000000e+00
2.310141837999999836e+00,-2.597530229829999815e+00,5.406159389350000122e-02,-9.453056926839998653e+00,-2.754278015349999678e-03,-1.191603951160000001e-02,1.409273501489999997e-02,1.000000000000000000e+00
2.315121156000000013e+00,-2.571049050140000070e+00,8.847521511749999179e-02,-9.461706681760000848e+00,-9.330184198920000310e-03,-4.052333999429999674e-03,1.297780591989999843e-02,1.000000000000000000e+00
2.320148188000000111e+00,-2.585136612209999907e+00,1.006746162140000067e-01,-9.442754144009999351e+00,-1.258921110999999953e-05,-7.235087919979999588e-03,-9.597043972460000093e-04,1.000000000000000000e+00
2.324905023999999987e+00,-2.632040694459999663e+00,6.742280987710000395e-02,-9.438781148729999515e+00,-2.110792137679999569e-02,1.023982279000000030e-02,6.308770738539999992e-03,1.000000000000000000e+00
2.329922085000000198e+00,-2.554848733710000097e+00,7.680549131819999764e-02,-9.429828611459999621e+00,1.450241543350000092e-03,-1.822569780049999866e-02,4.203651100400000035e-03,1.000000000000000000e+00
2.335331512000000220e+00,-2.558005151909999775e+00,1.117251669349999948e-01,-9.493563124750000526e+00,3.497260622679999875e-03,-1.046628318730000000e-02,8.174781687559999274e-03,1.000000000000000000e+00
2.339964742999999903e+00,-2.533900345959999800e+00,9.418561952039999907e-02,-9.462169038580000802e+00,-5.018689669669999798e-03,-2.325311535969999763e-03,-4.514996893699999708e-03,1.000000000000000000e+00
2.345130219000000071e+00,-2.643772341050000030e+00,1.475036536210000068e-02,-9.449552718110000527e+00,7.323177997019999705e-03,-6.929242983460000456e-03,1.743896491829999978e-02,1.000000000000000000e+00
2.350112701000000026e+00,-2.558156250820000199e+00,5.166945175969999901e-03,-9.450002799960000033e+00,-5.529092159120000370e-03,-1.041809190059999994e-02,4.810811951759999712e-03,1.000000000000000000e+00
2.355114828000000049e+00,-2.590233643079999926e+00,7.284504498829999508e-02,-9.472558330639998303e+00,-6.582261063159999641e-03,-4.416299983859999813e-03,-1.918792026119999937e-03,1.000000000000000000e+00
2.360123746000000189e+00,-2.618701320420000034e+00,7.633164042849999165e-02,-9.481004671950000073e+00,-3.234211355449999586e-03,-1.814489439129999757e-02,7.104762829840000245e-03,1.000000000000000000e+00
2.364948559000000117e+00,-2.577102943349999897e+00,8.354593288860000244e-02,-9.470429501919999993e+00,-1.256712526079999982e-02,2.152270171789999725e-03,-3.178553190080000111e-03,1.000000000000000000e+00
2.369944484999999990e+00,-2.590882754639999952e+00,8.607930555739998213e-02,-9.443640863720000667e+00,4.305941984060000782e-03,-1.480706315489999959e-02,4.603983834390000529e-03,1.000000000000000000e+00
2.374913701000000099e+00,-2.599020176130000248e+00,4.913082752700000111e-02,-9.471877362639999021e+00,9.204514324669999664e-03,-1.067547686399999973e-02,-7.600547745819999541e-03,1.000000000000000000e+00
2.380066525000000155e+00,-2.623433025109999761e+00,4.148192477559999730e-02,-9.388666579989999761e+00,-9.676774032410000864e-03,4.079042468219999835e-03,-1.203276216980000025e-03,1.000000000000000000e+00
2.385071222000000102e+00,-2.571176183650000002e+00,7.067837760689998916e-02,-9.437548976580000470e+00,-1.680976711210000266e-02,-2.165194414560000016e-02,-4.803853109479999141e-03,1.000000000000000000e+00
2.390146076000000175e+00,-2.638404092009999591e+00,5.164474657669999857e-02,-9.455266419580000914e+00,4.884418100119999710e-03,-2.271684259179999887e-02,4.337625578050000562e-03,1.000000000000000000e+00
2.394937230000000028e+00,-2.598414611449999967e+00,9.579057049900001342e-02,-9.437817272130001101e+00,2.579635707659999871e-03,-9.428020566699999924e-03,-4.693333990869999819e-03,1.000000000000000000e+00
2.400127090999999879e+00,-2.599175658950000134e+00,5.496046982879999876e-02,-9.475041379630001259e+00,-6.022159010169999410e-03,1.004435401410000081e-02,-3.963869065050000182e-03,1.000000000000000000e+00
2.404901460000000046e+00,-2.644614344829999908e+00,3.620190658000000533e-02,-9.446093517570000486e+00,3.433872479950000021e-03,-1.378389913590000009e-02,1.677106320860000110e-02,1.000000000000000000e+00
2.409921607999999882e+00,-2.530362527229999881e+00,5.743883807450000240e-02,-9.462043366369998765e+00,4.815180320289999885e-03,-1.453324500470000100e-02,-1.571473665539999814e-02,1.000000000000000000e+00
2.415087327000000172e+00,-2.610748900109999937e+00,7.066628987689999031e-02,-9.452126952510001345e+00,1.229818724099999983e-02,4.109973087909999864e-03,-1.538944523780000004e-02,1.000000000000000000e+00
2.420105753000000082e+00,-2.638556359959999931e+00,9.532212187020000504e-02,-9.475924007679999761e+00,-2.381275407969999911e-06,1.534268259999999919e-03,1.575468108059999844e-02,1.000000000000000000e+00
2.425117610000000035e+00,-2.599413267100000091e+00,9.335733373639998334e-02,-9.435985965049999535e+00,-4.135475959630000031e-03,-2.089082263410000056e-04,1.722184196109999982e-02,1.000000000000000000e+00
2.430129314999999846e+00,-2.580046595590000269e+00,1.029017268119999939e-01,-9.442517412639999108e+00,7.096332497890000396e-03,-8.751496206970000701e-04,-3.318567294630000216e-03,1.000000000000000000e+00
2.435139646000000102e+00,-2.644380243809999698e+00,7.336818751299999108e-02,-9.416257182229999856e+00,-3.388853278010000268e-03,-1.794987544420000025e-02,1.239858102050000153e-02,1.000000000000000000e+00
2.439986599000000034e+00,-2.580183958229999686e+00,6.215416702539999783e-02,-9.470199784820000133e+00,3.031230298800000576e-03,-1.056334376339999881e-02,1.314648194239999811e-03,1.000000000000000000e+00
2.445093867999999837e+00,-2.577526721720000413e+00,7.418149035700000171e-02,-9.454784773540000131e+00,7.870252593420000312e-04,1.256580930199999906e-03,-1.100327819589999936e-02,1.000000000000000000e+00
2.449909620000000121e+00,-2.632353413670000197e+00,1.067150197560000069e-01,-9.411706679319999935e+00,6.101696286350001205e-03,3.340921364720000029e-03,-1.749312272299999868e-03,1.000000000000000000e+00
2.455101743999999808e+00,-2.615934778309999764e+00,9.300772571429999358e-02,-9.484332355070000276e+00,-9.058928117160001264e-04,2.528424374760000412e-03,-1.692394958809999772e-03,1.000000000000000000e+00
2.459946083000000172e+00,-2.595034029099999806e+00,5.741869033559999363e-02,-9.471111054439999677e+00,1.274351496250000076e-02,-1.857844181359999815e-04,-9.515422396359999452e-03,1.000000000000000000e+00
2.464937447000000059e+00,-2.647276842040000133e+00,6.210147329039999997e-02,-9.486201071549999142e+00,-9.916320443149998637e-03,1.341368537400000269e-03,1.384229632089999757e-03,1.000000000000000000e+00
2.469943220999999856e+00,-2.578071788389999952e+00,6.215299341509999964e-02,-9.462408108029999099e+00,4.608065355569999715e-04,7.962089963260001596e-03,-1.004597172140000039e-03,1.000000000000000000e+00
2.475160069000000185e+00,-2.621450619119999992e+00,7.323179754989998791e-02,-9.438466675949999996e+00,1.197776384649999921e-02,4.557289183140000519e-03,-4.942861385640000618e-03,1.000000000000000000e+00
2.480117391999999921e+00,-2.661759540899999887e+00,5.061184159869999699e-02,-9.451839367739999886e+00,-3.889693180100000074e-03,3.428466618059999686e-03,-1.955898012969999825e-03,1.000000000000000000e+00
2.485140041000000188e+00,-2.657365982109999969e+00,9.094209842139999722e-02,-9.462989707310001108e+00,-8.135083131489998995e-03,3.648576792329999950e-03,9.371128398930000198e-04,1.000000000000000000e+00
2.490166845000000073e+00,-2.631820037450000260e+00,7.559095072960000938e-02,-9.439747947929999938e+00,4.465935286129999772e-03,1.612484268840000054e-02,3.525126492599999807e-03,1.000000000000000000e+00
2.495122729000000206e+00,-2.645165256709999912e+00,1.067368479949999949e-01,-9.421569901679999859e+00,-1.501057995480000167e-03,-1.549775712190000097e-03,4.046344198290000201e-03,1.000000000000000000e+00
2.500105245999999948e+00,-2.544659055869999964e+00,1.111512577710000033e-01,-9.432014138810000503e+00,9.745856747030001016e-03,7.650359533729999238e-03,-1.066116802389999868e-02,1.000000000000000000e+00
2.504968637000000165e+00,-2.655929519570000341e+00,5.852319011189999892e-02,-9.482909628789998990e+00,2.058235928420000180e-02,1.849951967600000149e-02,1.012107823039999979e-02,1.000000000000000000e+00
2.510025664000000045e+00,-2.591683257370000160e+00,4.441982769129999842e-02,-9.455888350869999570e+00,-5.292939953510000101e-03,3.805602900680000577e-04,7.214602082970000309e-03,1.000000000000000000e+00
2.515156307999999896e+00,-2.563720314690000279e+00,4.920116195000000248e-02,-9.450170557749999034e+00,-8.610356599090001131e-03,1.253609172999999889e-02,-6.240966729819999274e-03,1.000000000000000000e+00
2.520174989000000032e+00,-2.612525554389999893e+00,3.492247492850000107e-02,-9.456799620500000003e+00,-7.455240003760001122e-03,1.901021040979999910e-02,-2.259259810670000319e-03,1.000000000000000000e+00
2.525119661000000182e+00,-2.609147017869999807e+00,7.196106522810001571e-02,-9.442419797490000377e+00,5.261927843090000168e-03,1.385131105779999899e-02,-5.775360390540000728e-03,1.000000000000000000e+00
2.530135924000000092e+00,-2.606374922809999717e+00,1.218643384319999939e-01,-9.440940957110001364e+00,-2.066923072560000133e-03,1.345886848870000117e-02,-1.141940942029999939e-03,1.000000000000000000e+00
2.534979117999999865e+00,-2.616321439540000071e+00,6.719345353399999721e-02,-9.439119002380000012e+00,-1.847668364640000019e-02,1.508167479190000216e-04,4.454055801029999442e-03,1.000000000000000000e+00
2.539981393999999781e+00,-2.626514916780000153e+00,8.166939842699999508e-02,-9.426533077050001097e+00,9.764948859809999965e-03,-4.014635458590000081e-03,1.963389338930000231e-03,1.000000000000000000e+00
2.545087645000000176e+00,-2.571910050890000132e+00,3.488463170269999469e-02,-9.458201303990000142e+00,-7.549697067589999748e-03,9.962628595530001463e-03,-1.110600121320000182e-02,1.000000000000000000e+00
2.550015677999999841e+00,-2.595977155170000383e+00,3.840103319259999953e-02,-9.468649632769999158e+00,6.299456115810000631e-03,1.611787639560000041e-02,-1.737786643210000037e-02,1.000000000000000000e+00
2.555117894999999972e+00,-2.617111713139999907e+00,5.990967146769999446e-02,-9.459131862839999627e+00,-4.677623976020000608e-03,7.634114474059999593e-03,-1.512645557520000093e-02,1.000000000000000000e+00
2.560099081999999804e+00,-2.619163092710000029e+00,6.479072150749999592e-02,-9.435940956860001450e+00,3.167306073010000330e-03,2.117719873789999929e-02,-7.731039077039999910e-04,1.000000000000000000e+00
2.565105202999999889e+00,-2.584138248819999983e+00,4.899252416799999843e-02,-9.471814818800000424e+00,-7.728884462270001025e-03,8.739407174290000219e-03,-8.011551108210001725e-04,1.000000000000000000e+00
2.569994572999999782e+00,-2.560911687009999937e+00,8.151225337019998851e-02,-9.424384959099999293e+00,-1.009079511280000074e-03,8.493269793690000347e-03,-1.172590255739999927e-02,1.000000000000000000e+00
2.575100573999999920e+00,-2.638482125679999957e+00,4.806806170030000769e-02,-9.453076800580001660e+00,2.793076215310000103e-03,3.593382984400000230e-02,1.339643495160000196e-03,1.000000000000000000e+00
2.580099142999999984e+00,-2.584147308909999552e+00,8.013151220210000536e-02,-9.447003618150001003e+00,-9.435370564459998055e-03,2.191295474770000098e-02,1.609354512769999761e-03,1.000000000000000000e+00
2.585116430999999881e+00,-2.572582251059999603e+00,8.010858798419999427e-02,-9.451635954119998573e+00,-7.092799642120000076e-04,2.011041529479999992e-02,-6.463582161810000129e-03,1.000000000000000000e+00
2.590126404999999910e+00,-2.570231596279999753e+00,8.380031864160000787e-02,-9.428435111280000669e+00,1.155299320819999989e-02,1.692776381970000077e-02,-4.690599162130000555e-03,1.000000000000000000e+00
2.594972406000000120e+00,-2.569557934799999721e+00,5.726843167729999545e-02,-9.466682716610000270e+00,-4.555546212939999562e-03,-1.006651436909999833e-03,1.343890326100000013e-03,1.000000000000000000e+00
2.599930881000000138e+00,-2.588416072269999813e+00,9.096838364010000066e-02,-9.437160269530000534e+00,-4.653837997470000772e-03,5.620736628770000784e-03,-2.819081535559999751e-03,1.000000000000000000e+00
2.604890495999999889e+00,-2.563928988999999881e+00,7.273535123589998375e-02,-9.474557980030001048e+00,5.736678373069999635e-03,5.495351739230000011e-03,-9.908653795719998478e-03,1.000000000000000000e+00
2.610136513000000047e+00,-2.600958742979999627e+00,1.157125195380000054e-01,-9.459171025799999910e+00,8.371453732249999405e-03,2.633886970579999917e-02,-1.398118445650000036e-03,1.000000000000000000e+00
2.615079414999999852e+00,-2.575970139929999903e+00,8.967472710039998962e-02,-9.445745142519999860e+00,5.072747822850000657e-03,2.140191756190000169e-02,-7.655445486310001255e-03,1.000000000000000000e+00
2.620117970999999990e+00,-2.556289872429999832e+00,3.705571496430000444e-02,-9.465369880439999051e+00,-1.935652643440000098e-02,3.498977422709999979e-02,-7.936738431449999465e-03,1.000000000000000000e+00
2.625124254000000157e+00,-2.578587628950000266e+00,6.883381831930000805e-02,-9.516068971070000160e+00,-4.712359979750000046e-03,2.189202420409999683e-02,-1.130109187219999894e-02,1.000000000000000000e+00
2.630166510000000013e+00,-2.570159700090000054e+00,1.060144976700000130e-01,-9.464950778250001306e+00,-1.125502958889999967e-02,2.456041797999999887e-02,3.262739628550000203e-04,1.000000000000000000e+00
2.635097110999999881e+00,-2.585314306859999967e+00,8.300600819249999429e-02,-9.547023496779999618e+00,4.958660341799999913e-03,2.540382184090000245e-02,-2.332327514890000092e-02,1.000000000000000000e+00
2.640139501999999805e+00,-2.609543908230000042e+00,4.470292808209999635e-02,-9.414733918180001382e+00,2.855984028429999454e-03,1.462038978929999962e-02,-6.690550129859999459e-03,1.000000000000000000e+00
2.645146572999999890e+00,-2.643757143479999794e+00,1.046739697819999981e-01,-9.515122045610000967e+00,2.604326419530000186e-02,2.650843374429999802e-02,2.122476929799999891e-03,1.000000000000000000e+00
2.650158524000000071e+00,-2.609599730069999790e+00,1.038847099669999996e-01,-9.466382272360000627e+00,-4.846786614509999806e-04,1.611584052439999845e-02,-3.373835002999999930e-03,1.000000000000000000e+00
2.654974678999999949e+00,-2.580456929959999979e+00,7.175580671319999049e-02,-9.447323936140000100e+00,-2.146548824379999887e-03,1.120052486659999999e-02,1.654552528630000123e-03,1.000000000000000000e+00
2.660127063000000014e+00,-2.562596571359999853e+00,1.487475595849999943e-01,-9.497107665489998851e+00,5.986220203339999782e-03,1.181286014619999970e-02,-1.771953515710000121e-02,1.000000000000000000e+00
2.664934912000000100e+00,-2.610926010240000039e+00,1.098198173709999947e-01,-9.459829197450000393e+00,7.904305122790000748e-03,9.321125224230000436e-03,-1.272103283550000095e-02,1.000000000000000000e+00
2.669929758999999958e+00,-2.505755616979999711e+00,1.299643094189999876e-02,-9.482863451560000101e+00,1.168227661400000027e-02,8.454159833490000261e-03,-2.190965041519999865e-02,1.000000000000000000e+00
2.674912491999999808e+00,-2.628212660600000028e+00,1.052700177119999941e-01,-9.434813998660001033e+00,1.044519525020000048e-02,1.096906326709999949e-02,-6.879439577460000170e-03,1.000000000000000000e+00
2.680094457000000041e+00,-2.569698804580000218e+00,8.822402596860000334e-02,-9.470009815199999181e+00,1.292567607019999912e-02,1.678059808910000242e-02,-9.060537442559999516e-03,1.000000000000000000e+00
2.685121169999999946e+00,-2.585575003620000256e+00,3.390618544179999777e-02,-9.420930434739998915e+00,1.543963793669999966e-02,3.196550160649999639e-02,7.511458825319999996e-04,1.000000000000000000e+00
2.689991315999999966e+00,-2.614168937680000138e+00,-6.768672151030000238e-04,-9.449228892979999017e+00,2.679157536480000334e-03,3.242687135929999548e-02,2.853646175940000029e-03,1.000000000000000000e+00
2.694933311000000220e+00,-2.526679454800000002e+00,7.268947996730000527e-02,-9.474906939600000300e+00,1.685007475319999807e-03,1.499132066970000100e-02,-1.712622493509999982e-02,1.000000000000000000e+00
2.699898392000000147e+00,-2.565604813259999784e+00,7.818438758920000231e-02,-9.520732286699999491e+00,1.350875012579999881e-02,1.534326188270000030e-02,-9.348140098149999855e-03,1.000000000000000000e+00
2.704936562999999961e+00,-2.512779816520000153e+00,4.470539289220000316e-03,-9.496583349349998926e+00,1.201520580800000126e-02,7.805433124300000490e-03,-3.455963451420000169e-03,1.000000000000000000e+00
2.710123728000000121e+00,-2.655659762720000039e+00,3.645235366010000227e-02,-9.439732165840000633e+00,1.392324548210000131e-02,1.044380664829999868e-02,-4.896824248140000009e-03,1.000000000000000000e+00
2.715012006999999894e+00,-2.533311147900000115e+00,1.268897745119999809e-01,-9.387678737999999967e+00,1.573902741070000097e-02,1.679010130469999959e-02,-9.944439865649998961e-03,1.000000000000000000e+00
2.720126125000000172e+00,-2.552544256160000025e+00,3.537583101939999891e-02,-9.535951483150000740e+00,8.658151142299999256e-03,1.176260877400000029e-02,-2.932849340140000066e-02,1.000000000000000000e+00
2.725117523000000208e+00,-2.604184427020000303e+00,9.202237707189998839e-02,-9.435969598439999828e+00,2.153685688970000123e-02,1.785546913740000338e-02,-4.695593845100000906e-03,1.000000000000000000e+00
2.730187149999999896e+00,-2.512110246699999827e+00,1.097783985150000141e-01,-9.428943645319998623e+00,1.451154891400000153e-02,2.961792610590000333e-02,-6.106795743109999682e-03,1.000000000000000000e+00
2.735160785000000150e+00,-2.540287124390000262e+00,9.453516361039999982e-02,-9.429396065260000626e+00,1.669603213669999808e-02,2.752893976869999829e-02,-2.499831095340000059e-02,1.000000000000000000e+00
2.740093132000000153e+00,-2.537977093879999924e+00,1.340456193499999990e-02,-9.444100297919998610e+00,-6.949340458960000244e-03,1.155461929740000081e-02,-2.807075344029999822e-02,1.000000000000000000e+00
2.745134586999999904e+00,-2.560321027640000136e+00,-2.252954685459999939e-02,-9.465820546819999848e+00,1.183710712940000062e-02,2.044967561959999680e-02,-1.092570088799999992e-02,1.000000000000000000e+00
2.749932073000000088e+00,-2.532758190190000036e+00,5.223715494530000586e-02,-9.494360412609999855e+00,2.249481156470000201e-02,1.171771623189999875e-02,-1.885028555990000271e-02,1.000000000000000000e+00
2.755090243000000161e+00,-2.520470663290000246e+00,6.536434297730001064e-02,-9.477405770669999896e+00,2.393879462030000429e-03,1.056006923320000103e-02,-1.826829276980000000e-02,1.000000000000000000e+00
2.759968130999999936e+00,-2.557202018839999980e+00,8.368558795449999865e-02,-9.420393259119999030e+00,1.517260726540000000e-02,7.411340251560000897e-03,3.101924667130000375e-03,1.000000000000000000e+00
2.765088613000000084e+00,-2.547769004580000107e+00,3.612094116509999980e-02,-9.447824286880001310e+00,3.950691316279999685e-03,1.767623797059999710e-02,-1.614798791709999917e-02,1.000000000000000000e+00
2.770171314999999801e+00,-2.560060038620000089e+00,2.436755767040000437e-02,-9.422154423569999437e+00,6.744180340320000272e-03,1.698440499599999931e-02,-1.760043017569999993e-02,1.000000000000000000e+00
2.774895932999999815e+00,-2.534616677539999863e+00,-3.834953590080000807e-02,-9.500746898770000115e+00,-1.517080888150000063e-02,4.073185380550000366e-03,-5.814634263520000908e-03,1.000000000000000000e+00
2.779845627999999902e+00,-2.547826579990000173e+00,4.310090884610000284e-02,-9.453522206260000615e+00,9.919383563100001022e-03,9.629811160270000669e-03,-9.736481122670000848e-03,1.000000000000000000e+00
2.784888411999999924e+00,-2.486924659779999658e+00,4.388662043030000515e-02,-9.478887533660000031e+00,1.460588444020000098e-02,1.075827330349999993e-02,-1.850566454230000157e-02,1.000000000000000000e+00
2.790193932000000210e+00,-2.585784554720000017e+00,4.650608221369999240e-02,-9.474846149319999355e+00,7.770493160930000073e-03,3.906593192370000009e-03,-6.127690430729999284e-03,1.000000000000000000e+00
2.795135244999999991e+00,-2.562356917380000265e+00,2.653869116440000023e-02,-9.442694522780000099e+00,2.800076641140000072e-02,1.066132821139999937e-02,-2.150812419130000014e-03,1.000000000000000000e+00
2.799855936000000156e+00,-2.486355043200000114e+00,-9.214355119959998994e-03,-9.429607077669999171e+00,1.853769645090000071e-02,1.579143106939999777e-02,-1.096701435739999911e-02,1.000000000000000000e+00
2.804910149999999991e+00,-2.436490357569999876e+00,-3.860067938399999732e-02,-9.505999412470000465e+00,1.218770537529999774e-02,1.586104370649999915e-02,-1.993472687900000109e-02,1.000000000000000000e+00
2.810157781000000021e+00,-2.475060326720000425e+00,3.075980799929999704e-03,-9.505935115069998886e+00,7.384792435909999335e-03,1.603690348570000271e-02,-1.560561079530000013e-02,1.000000000000000000e+00
2.814876277000000204e+00,-2.508428635580000066e+00,5.858184551359999111e-03,-9.471683301369999697e+00,1.066291145980000077e-02,3.995221108200000364e-03,-9.445706382389999767e-03,1.000000000000000000e+00
2.820105245999999788e+00,-2.524896955300000023e+00,2.030201841470000157e-02,-9.463798101080000080e+00,4.854229744520000174e-03,4.329764284189999493e-03,-9.400447830559998524e-03,1.000000000000000000e+00
2.824972139999999854e+00,-2.550903795470000013e+00,-1.039787951579999870e-02,-9.446268874130000270e+00,8.347084745760000035e-03,-6.848343182359999939e-04,-6.694440729920000596e-03,1.000000000000000000e+00
2.830128402000000154e+00,-2.562531397169999892e+00,-2.078535180209999805e-02,-9.412579370499999598e+00,1.281673368070000013e-02,1.278395578270000166e-02,-1.755930017680000206e-03,1.000000000000000000e+00
2.835107832999999911e+00,-2.514828565749999800e+00,-4.965352252709999414e-02,-9.431543598690000252e+00,5.882583558560000592e-03,8.270980790260000493e-03,1.166650792579999873e-03,1.000000000000000000e+00
2.840150148000000208e+00,-2.516107499640000356e+00,2.748493848900000064e-02,-9.457924240610001476e+00,1.589882560070000200e-02,-5.064052529630000757e-03,-2.592739183459999951e-03,1.000000000000000000e+00
2.845123724000000021e+00,-2.543409932589999922e+00,9.027816375309999364e-02,-9.489211359280000480e+00,2.073839772489999983e-03,-5.054250825200000061e-03,4.380700178439999280e-03,1.000000000000000000e+00
2.850142238000000106e+00,-2.549132109629999920e+00,7.762902786189999904e-02,-9.452385311189999584e+00,2.224761294199999878e-03,1.432436890900000079e-02,-2.250098856170000203e-03,1.000000000000000000e+00
2.855054025999999912e+00,-2.539923551779999844e+00,2.764428006940000335e-02,-9.439997538780000141e+00,-3.547380678359999834e-03,1.140344887969999997e-03,5.550246685740000373e-03,1.000000000000000000e+00
2.860109313999999792e+00,-2.504797293340000230e+00,1.709172829839999963e-02,-9.425392090319999028e+00,1.068990025670000198e-02,-1.511631882749999876e-03,-8.285302668810000035e-03,1.000000000000000000e+00
2.865150684000000059e+00,-2.556452369509999656e+00,-7.979113094930000843e-03,-9.442638993200000996e+00,4.247591365130000234e-03,-4.600931424649999896e-04,-3.945505246519999919e-03,1.000000000000000000e+00
2.870003346999999927e+00,-2.514427583729999860e+00,5.225088207649999927e-02,-9.485341239849999440e+00,-7.420216221359999219e-03,1.603538915509999940e-02,-1.205504126849999899e-02,1.000000000000000000e+00
2.875132687999999881e+00,-2.587758485140000175e+00,4.435785010470000289e-02,-9.445216734729999786e+00,1.267394144090000160e-02,-3.862016135829999825e-03,5.013466812670000147e-03,1.000000000000000000e+00
2.879892320999999811e+00,-2.511779115049999955e+00,1.094798311270000178e-02,-9.453589426280000652e+00,-3.851689863949999369e-03,8.667855523530000952e-03,-1.206263527270000011e-02,1.000000000000000000e+00
2.885114902000000203e+00,-2.515505149840000065e+00,-1.776997804479999929e-02,-9.463610469560000737e+00,9.461346082390000023e-03,-6.837248802190000387e-04,-1.528858207170000032e-02,1.000000000000000000e+00
2.889927323999999853e+00,-2.544029525790000079e+00,6.767787947500000269e-03,-9.505020338310000483e+00,6.489132530989999252e-03,9.795627556739999481e-04,7.763044908640000241e-03,1.000000000000000000e+00
2.894931355999999845e+00,-2.478862057090000182e+00,3.809136673860000211e-02,-9.464318910090000259e+00,-1.747862249609999710e-02,6.212784908709999450e-03,-8.807795122270001623e-03,1.000000000000000000e+00
2.899932694999999949e+00,-2.541602883169999938e+00,2.383217671870000234e-02,-9.474142384960000385e+00,1.277647167440000044e-02,-1.407842710609999957e-02,-7.551608607169999626e-03,1.000000000000000000e+00
2.905076618999999916e+00,-2.545426240849999910e+00,2.380577505220000251e-02,-9.468771213320000157e+00,-7.125386502590000046e-03,-8.925845846530000571e-03,6.032799370589999807e-03,1.000000000000000000e+00
2.910127622000000081e+00,-2.466469608509999745e+00,2.849190302480000131e-02,-9.458205980160000692e+00,-1.241078600289999972e-02,6.779925897719999914e-03,2.594762248920000087e-03,1.000000000000000000e+00
2.915154783000000194e+00,-2.438688306009999973e+00,3.681597879119999361e-02,-9.454935580189999911e+00,2.283576410260000286e-03,6.481152959169999943e-04,-1.066392473880000032e-02,1.000000000000000000e+00
2.920121099999999803e+00,-2.469830024850000250e+00,-1.610108356799999987e-02,-9.508029457000001017e+00,-2.654667384920000178e-02,7.666796445850000176e-03,9.135476313530000586e-03,1.000000000000000000e+00
2.925105987999999879e+00,-2.473317866970000001e+00,-7.411690525479999736e-02,-9.352795056139999730e+00,-2.435426227749999933e-03,-1.761107519270000213e-02,1.459677983079999894e-02,1.000000000000000000e+00
2.930147719999999900e+00,-2.485629359270000283e+00,-3.808250529539999873e-02,-9.453028285260000274e+00,-7.160626351829999826e-03,-1.913801021869999952e-02,2.222214452919999902e-02,1.000000000000000000e+00
