t,ax,ay,az,wx,wy,wz,zv
5.301809000000000209e-03,-2.629525789030000116e+00,-1.955061872210000218e-01,-9.454147644680000795e+00,-8.938055485489999202e-03,1.113964710380000106e-03,-6.348527502270001274e-03,1.000000000000000000e+00
1.015886899999999919e-02,-2.565427118609999724e+00,-1.597451197440000192e-01,-9.428174414520000823e+00,-1.308313105260000032e-02,1.367463357749999948e-02,-2.302323468030000042e-02,1.000000000000000000e+00
1.513801399999999998e-02,-2.697622004659999462e+00,-1.444603198530000077e-01,-9.471978484930000164e+00,-4.607822280379999733e-03,1.384521275760000093e-02,-9.066996863110000698e-04,1.000000000000000000e+00
2.030943699999999963e-02,-2.662183027009999758e+00,-1.466176896829999854e-01,-9.455790735720000839e+00,-4.972383379939999092e-03,-1.432724529880000141e-03,-8.445692248640000385e-03,1.000000000000000000e+00
2.531922299999999834e-02,-2.628491477549999900e+00,-1.619070287519999984e-01,-9.420935110910001242e+00,-1.943720504640000096e-02,5.097034387289999836e-03,-1.493774354460000037e-02,1.000000000000000000e+00
3.039062000000000013e-02,-2.683438580999999878e+00,-1.988803946280000012e-01,-9.442617365889999448e+00,-4.573787562549999804e-03,2.640157938000000162e-02,-5.946750752629999769e-03,1.000000000000000000e+00
3.538100599999999957e-02,-2.683203895459999710e+00,-1.200593622360000001e-01,-9.405085799869999263e+00,1.029067905620000044e-03,1.244829501960000072e-03,4.232991486789999987e-03,1.000000000000000000e+00
4.042185000000000222e-02,-2.599810741979999840e+00,-1.693696745159999906e-01,-9.460138409529999848e+00,-1.670678518710000046e-02,8.232902735469999414e-03,-1.882831379769999910e-02,1.000000000000000000e+00
4.539955400000000169e-02,-2.643377204250000112e+00,-1.478643926750000115e-01,-9.449532259839999782e+00,-2.283615246420000328e-02,1.797049120070000339e-02,-2.009480260309999891e-02,1.000000000000000000e+00
5.037757400000000135e-02,-2.641272048659999871e+00,-1.576813008149999806e-01,-9.468013672949998849e+00,-1.576372049750000143e-02,1.903215423230000076e-03,-1.095172576610000184e-02,1.000000000000000000e+00
5.541552500000000020e-02,-2.658335119409999781e+00,-1.702330498799999869e-01,-9.424874788449999485e+00,-1.036732830109999941e-02,6.061619147660000408e-03,-1.572221517560000101e-02,1.000000000000000000e+00
6.036825600000000208e-02,-2.631819745190000059e+00,-1.716342401810000140e-01,-9.437964571649999357e+00,-1.657077111299999975e-02,2.151634357869999792e-02,-2.000915259120000095e-02,1.000000000000000000e+00
6.547422299999999806e-02,-2.632382639769999866e+00,-1.705056562760000061e-01,-9.444006774419998251e+00,-2.529374137519999760e-02,1.563656143840000054e-02,-2.278925664720000271e-02,1.000000000000000000e+00
7.049884500000000442e-02,-2.635288005820000112e+00,-1.730884210449999960e-01,-9.456684469680000760e+00,-1.306156348439999927e-02,9.645804762840000379e-03,-1.070730853829999878e-02,1.000000000000000000e+00
7.552463700000000557e-02,-2.611561970059999904e+00,-2.073644741289999982e-01,-9.438073877239999021e+00,-6.423534825439999180e-03,7.865673862399998745e-03,-1.890724524859999783e-02,1.000000000000000000e+00
8.040577299999999983e-02,-2.662190333529999897e+00,-2.011218534120000068e-01,-9.411355381659999964e+00,-6.182380951939999390e-03,1.980256661770000287e-02,-1.035493519160000063e-02,1.000000000000000000e+00
8.544673099999999799e-02,-2.628673848380000067e+00,-1.988647221350000049e-01,-9.427897935660000783e+00,-2.006295695900000078e-02,6.930321455000000054e-03,-2.194730564949999921e-02,1.000000000000000000e+00
9.032631300000000529e-02,-2.636898363620000296e+00,-1.418966342440000084e-01,-9.424806983910000824e+00,-1.878413930540000221e-02,1.188416779039999996e-02,-7.523036561909999739e-03,1.000000000000000000e+00
9.537275500000000350e-02,-2.621855985049999838e+00,-1.121990315240000008e-01,-9.442019984519999909e+00,-1.559363771229999897e-02,9.435585699979999116e-03,-1.640840619799999872e-02,1.000000000000000000e+00
1.002511940000000018e-01,-2.647517957319999837e+00,-1.669468860820000067e-01,-9.448581827250000842e+00,-1.615770161149999995e-02,2.121940255170000345e-02,-1.571870222689999985e-02,1.000000000000000000e+00
1.055205790000000032e-01,-2.610516260389999843e+00,-1.311709224299999754e-01,-9.430295059929999724e+00,-2.966955536979999815e-03,2.688794024290000126e-02,-2.441938035190000314e-02,1.000000000000000000e+00
1.104192850000000059e-01,-2.658857974240000033e+00,-1.149640301249999913e-01,-9.477254964029999229e+00,-3.967845812439999703e-02,1.016086433079999886e-02,-2.923153573649999847e-03,1.000000000000000000e+00
1.153205209999999953e-01,-2.594218328809999807e+00,-8.123878845739999910e-02,-9.436398052979999562e+00,-2.367523498830000073e-02,1.666728220880000014e-02,-2.380588650700000281e-02,1.000000000000000000e+00
1.203213370000000004e-01,-2.646182909320000221e+00,-9.517707824320000010e-02,-9.403663658119999269e+00,-3.622966259719999360e-02,2.186893858020000012e-02,-2.558368630709999605e-02,1.000000000000000000e+00
1.252363969999999993e-01,-2.637762579240000349e+00,-1.145971421749999997e-01,-9.452178390439998523e+00,-2.279212698339999968e-02,2.932714857159999730e-02,-3.614729270340000244e-02,1.000000000000000000e+00
1.303622020000000103e-01,-2.655163795890000067e+00,-1.335791982809999834e-01,-9.439415939499999908e+00,-3.721887245769999603e-02,2.286322973670000189e-02,-2.915545552969999940e-02,1.000000000000000000e+00
1.353744600000000020e-01,-2.625451379199999824e+00,-1.858842627969999883e-01,-9.427679909000000080e+00,-1.866892725229999869e-02,4.352385550739999720e-02,-2.734847180550000270e-02,1.000000000000000000e+00
1.404958870000000137e-01,-2.673544671240000170e+00,-1.880370021180000073e-01,-9.420372216329999659e+00,-1.783813908700000034e-02,4.557001590730000440e-02,-2.420912124219999975e-02,1.000000000000000000e+00
1.453881790000000063e-01,-2.583192200140000505e+00,-1.923467368089999963e-01,-9.482816105289998632e+00,-2.151928842070000361e-02,2.853428013619999787e-02,-3.859025984999999576e-02,1.000000000000000000e+00
1.503316680000000016e-01,-2.623267313159999947e+00,-1.574700509510000013e-01,-9.438913250669999755e+00,-1.524286158379999957e-02,3.824536502360000034e-02,-3.279794007540000333e-02,1.000000000000000000e+00
1.553598320000000033e-01,-2.626847217469999940e+00,-1.742867822500000219e-01,-9.458992746629999004e+00,-2.120343409479999788e-02,2.771078795190000041e-02,-2.657284215090000012e-02,1.000000000000000000e+00
1.602530789999999927e-01,-2.616097567659999790e+00,-1.573863181900000130e-01,-9.437162607610000364e+00,-1.440297719089999977e-02,2.403867989779999784e-02,-3.419678285720000044e-02,1.000000000000000000e+00
1.653845250000000044e-01,-2.615484696459999814e+00,-1.600172146830000086e-01,-9.452434411029999595e+00,-3.098532930019999923e-02,3.838846087460000278e-02,-2.509705349799999999e-02,1.000000000000000000e+00
1.703639819999999971e-01,-2.591712191200000071e+00,-1.433322565379999969e-01,-9.458986316889998136e+00,-1.813278160990000262e-02,4.056318849329999809e-02,-4.079267382619999882e-02,1.000000000000000000e+00
1.754196299999999931e-01,-2.645762345820000139e+00,-1.705353938270000036e-01,-9.439795878730000922e+00,-1.809526607390000291e-02,2.526598237449999979e-02,-2.730547636750000132e-02,1.000000000000000000e+00
1.804494239999999972e-01,-2.589607912399999989e+00,-1.826316176770000077e-01,-9.446820078270000920e+00,-2.020321972670000021e-02,2.539754845199999889e-02,-2.242838777600000139e-02,1.000000000000000000e+00
1.854371200000000108e-01,-2.567213417500000094e+00,-1.278470113050000079e-01,-9.448893377419999240e+00,-2.262015081939999783e-02,3.744976222519999509e-02,-4.132448881859999285e-02,1.000000000000000000e+00
1.904216450000000005e-01,-2.656176480070000068e+00,-1.137447905280000032e-01,-9.468121809500001262e+00,-2.805148810149999880e-02,1.106599997729999958e-02,-1.417440082879999931e-02,1.000000000000000000e+00
1.952707740000000081e-01,-2.549545951130000265e+00,-1.351721665610000067e-01,-9.455848603379999773e+00,-2.247027866540000224e-02,2.992678992449999617e-02,-2.385423518719999997e-02,1.000000000000000000e+00
2.003127349999999918e-01,-2.587100605749999893e+00,-1.948102408460000157e-01,-9.485672663760000844e+00,-1.915193535390000146e-02,2.600566856559999654e-02,-2.772956341509999825e-02,1.000000000000000000e+00
2.054538559999999903e-01,-2.628597568270000018e+00,-1.409983336979999946e-01,-9.462687509489999371e+00,-2.930189855399999849e-02,2.562827058140000266e-02,-2.278574369849999809e-02,1.000000000000000000e+00
2.103151080000000006e-01,-2.609029821230000046e+00,-1.205884093449999944e-01,-9.435757416989998703e+00,-1.256631594150000100e-02,3.495156019930000663e-02,-2.150756865740000370e-02,1.000000000000000000e+00
2.153926379999999974e-01,-2.645003928670000004e+00,-1.028654590549999970e-01,-9.452384142139999668e+00,-9.647613391280000783e-03,6.873529404399999349e-03,-5.432226229459999681e-03,1.000000000000000000e+00
2.203674089999999863e-01,-2.561699330259999741e+00,-1.232227307709999886e-01,-9.454398989099999540e+00,-2.939343266190000414e-02,2.549622580409999922e-02,-1.491901185360000083e-02,1.000000000000000000e+00
2.254073779999999916e-01,-2.553044022370000388e+00,-9.954975863569999472e-02,-9.463244558850000487e+00,-1.829231530429999836e-02,1.979256980119999815e-02,-2.314404956999999846e-02,1.000000000000000000e+00
2.303363880000000030e-01,-2.622628138470000092e+00,-1.542758032210000130e-01,-9.479670208470000858e+00,-2.090811356899999890e-02,1.520065031949999895e-02,-1.466805767270000158e-02,1.000000000000000000e+00
2.353848010000000046e-01,-2.604019884109999960e+00,-1.692990752320000236e-01,-9.433876425550000278e+00,-1.470082905139999917e-02,3.312462940809999742e-03,-2.183794602749999925e-02,1.000000000000000000e+00
2.404974749999999883e-01,-2.538598440649999954e+00,-9.962315266550000881e-02,-9.463802777260001520e+00,-6.046864669769999763e-03,1.726104319100000076e-02,-2.766700647770000202e-02,1.000000000000000000e+00
2.453481899999999938e-01,-2.595458099730000079e+00,-1.374476554790000082e-01,-9.439446334639999492e+00,-1.120848022399999894e-02,1.346542127429999937e-02,-8.446637541060000517e-03,1.000000000000000000e+00
2.503911109999999995e-01,-2.561121238109999698e+00,-1.920154590280000184e-01,-9.443524543860000620e+00,-7.966062054039999354e-03,1.933095790449999851e-02,-3.280436620120000257e-02,1.000000000000000000e+00
2.553627090000000210e-01,-2.595210262450000194e+00,-1.539605997919999969e-01,-9.433813881709999905e+00,-5.729749333109999780e-03,9.740613400940000347e-03,-2.664662897590000176e-02,1.000000000000000000e+00
2.602870890000000270e-01,-2.576633864540000207e+00,-1.111426452060000070e-01,-9.431896649910001429e+00,-1.319196261470000076e-02,1.068147271869999970e-02,-2.716515399519999971e-02,1.000000000000000000e+00
2.654593330000000195e-01,-2.627734521699999881e+00,-1.242962782870000032e-01,-9.443479535680001646e+00,-3.120761830360000051e-03,-4.242850467559999665e-03,-6.027588620779999844e-03,1.000000000000000000e+00
2.704149579999999831e-01,-2.577522922330000021e+00,-1.375714188559999940e-01,-9.462673480970000384e+00,-1.520206872370000011e-02,7.112421095369999939e-03,-6.967018358409999765e-03,1.000000000000000000e+00
2.754033770000000048e-01,-2.591145497229999872e+00,-1.221881544260000063e-01,-9.472299971970000954e+00,-7.453165017069999371e-03,1.160866580899999959e-02,-1.457350677809999802e-03,1.000000000000000000e+00
2.804340419999999945e-01,-2.531639415299999918e+00,-1.257997325190000071e-01,-9.465917577449999953e+00,-9.692609310149999033e-03,-3.399702487510000357e-03,-1.227716170249999912e-02,1.000000000000000000e+00
2.852676060000000069e-01,-2.545319857860000035e+00,-1.638466367779999877e-01,-9.467767589239999282e+00,-1.437229011210000226e-02,6.144570186729998891e-03,-2.070685662330000107e-02,1.000000000000000000e+00
2.904600500000000252e-01,-2.630763514129999869e+00,-1.207098894339999895e-01,-9.456739414739999461e+00,-2.008955553169999853e-02,5.924431607129999888e-04,-1.692465692760000001e-02,1.000000000000000000e+00
2.953638069999999782e-01,-2.640805015669999811e+00,-1.050435063470000069e-01,-9.429667867939999226e+00,-7.809949107469999971e-03,6.651396863159999596e-03,-3.586080390960000221e-03,1.000000000000000000e+00
3.003910100000000138e-01,-2.578767661699999714e+00,-7.310833100050000144e-02,-9.442401092789999950e+00,-2.176179364320000170e-02,-1.367858983580000007e-02,-1.187002286310000036e-02,1.000000000000000000e+00
3.053215650000000170e-01,-2.575539639559999650e+00,-8.623565602980000355e-02,-9.432611520180000042e+00,-7.363161537800000725e-03,7.076424546540000318e-03,-3.594797337429999576e-03,1.000000000000000000e+00
3.102995479999999806e-01,-2.564844058020000261e+00,-1.032862326170000122e-01,-9.485671494720000041e+00,5.873824935409999171e-03,-4.481840413060000222e-03,-9.528652764860000290e-03,1.000000000000000000e+00
3.152547250000000134e-01,-2.549845810849999950e+00,-1.625460938400000166e-01,-9.452444932420000612e+00,-2.876876294609999676e-02,-5.027318838980000077e-04,-1.256937533620000082e-02,1.000000000000000000e+00
3.203083199999999797e-01,-2.574903971999999985e+00,-1.923158484810000013e-01,-9.465866724050000514e+00,-8.578074164689999254e-03,-1.455082464960000092e-02,-1.468703057620000113e-02,1.000000000000000000e+00
3.253486859999999981e-01,-2.644749953909999896e+00,-1.409742313029999916e-01,-9.465847434829999685e+00,-1.138486806300000043e-02,5.291460547600000067e-04,-8.834552019830001213e-03,1.000000000000000000e+00
3.302943369999999934e-01,-2.525061498209999922e+00,-1.567886262919999940e-01,-9.477329782829999161e+00,-1.619557104999999955e-02,1.548745669420000144e-02,-2.815656177699999915e-02,1.000000000000000000e+00
3.354170149999999850e-01,-2.646675661270000202e+00,-8.514597936319999449e-02,-9.467922487539999210e+00,-1.463381666689999791e-02,-9.523056447509999772e-03,-1.293407194320000085e-02,1.000000000000000000e+00
3.403380819999999862e-01,-2.626663969859999614e+00,-1.305936065989999895e-01,-9.497360178939999287e+00,6.865957402620000496e-04,6.049062125379999801e-03,-8.940781466660000648e-03,1.000000000000000000e+00
3.453165120000000199e-01,-2.631566939469999866e+00,-1.353279690439999905e-01,-9.497149751060000256e+00,-5.514946766199999018e-03,-2.007450908419999847e-02,-5.535081028940000425e-03,1.000000000000000000e+00
3.503328190000000175e-01,-2.607153798220000152e+00,-1.043998746809999961e-01,-9.482857606339999634e+00,1.380216889079999808e-02,3.527374938130000337e-04,2.777590183539999959e-03,1.000000000000000000e+00
3.554755620000000227e-01,-2.539189684540000158e+00,-1.554708947570000166e-01,-9.467447271239999296e+00,6.440515629949999238e-03,-2.414504997430000008e-02,-1.541786734010000028e-02,1.000000000000000000e+00
3.604173439999999728e-01,-2.611253050240000206e+00,-1.647905665650000184e-01,-9.454747948659999679e+00,-1.257181866089999859e-03,2.904382534330000008e-03,-9.132824838159999195e-03,1.000000000000000000e+00
3.652596329999999725e-01,-2.614910988220000121e+00,-1.705950333260000118e-01,-9.440249467710000175e+00,-7.987167686220000840e-03,-1.768022775650000128e-02,-3.448745235800000208e-03,1.000000000000000000e+00
3.703360540000000256e-01,-2.568889534020000198e+00,-1.827634273629999972e-01,-9.460080541860001802e+00,4.157212562860000335e-03,-7.012974005189999416e-03,-6.717787124219999975e-03,1.000000000000000000e+00
3.754071580000000186e-01,-2.600415137619999761e+00,-1.254649293410000088e-01,-9.445542313420000724e+00,1.029617991299999931e-02,-2.036214806140000319e-02,-5.011443048720000230e-03,1.000000000000000000e+00
3.803985810000000134e-01,-2.621124163650000227e+00,-1.183129295610000076e-01,-9.447703290850000712e+00,-1.348047610370000163e-02,-5.894135218109999678e-03,2.428753068669999883e-03,1.000000000000000000e+00
3.854298139999999817e-01,-2.558321962780000014e+00,-1.077798633750000068e-01,-9.459113742659999602e+00,3.575337119399999916e-03,-1.086355932059999974e-02,-1.170989125970000114e-02,1.000000000000000000e+00
3.904337440000000270e-01,-2.596591779940000233e+00,-9.072351463410001371e-02,-9.413811542639999530e+00,2.622963860630000282e-03,-1.947787404059999825e-02,-7.961262017489999232e-03,1.000000000000000000e+00
3.953663379999999838e-01,-2.631373170459999855e+00,-1.216195150919999884e-01,-9.423401793289999162e+00,-7.360252551729999648e-03,-1.195479743179999992e-02,-2.608827082439999900e-03,1.000000000000000000e+00
4.002239980000000252e-01,-2.610954359549999992e+00,-1.265659585180000102e-01,-9.443747246699999209e+00,7.916146889329999173e-03,1.425215508789999790e-03,-5.906652659180000597e-03,1.000000000000000000e+00
4.055054739999999769e-01,-2.643359668590000489e+00,-1.575616747570000031e-01,-9.466353630780000472e+00,-4.880291875449999962e-03,-2.480412833389999787e-03,-1.066071446989999907e-02,1.000000000000000000e+00
4.103695399999999771e-01,-2.641562556040000231e+00,-1.707210891250000029e-01,-9.465723516189999742e+00,4.203556571159999290e-03,-9.378375485540000125e-03,-4.847665783020000535e-03,1.000000000000000000e+00
4.152827629999999992e-01,-2.573664785600000116e+00,-1.362949600460000021e-01,-9.457562421560000487e+00,-3.318971022959999774e-03,1.788927242160000004e-03,-1.383609697220000018e-02,1.000000000000000000e+00
4.203423519999999747e-01,-2.587380591740000124e+00,-1.208372147409999958e-01,-9.452136304859999782e+00,-3.929876256729999788e-03,-5.738742649560000207e-03,-8.376553654670000626e-03,1.000000000000000000e+00
4.253948470000000204e-01,-2.605518890499999962e+00,-1.196616042239999900e-01,-9.465621224860001348e+00,7.842149585489999880e-03,-5.976654589179999574e-03,-8.319575339560000837e-03,1.000000000000000000e+00
4.302984049999999949e-01,-2.603818516320000054e+00,-1.493293506610000043e-01,-9.459324170539998633e+00,-1.471274439250000107e-02,1.013702526689999953e-02,-1.119462121279999819e-02,1.000000000000000000e+00
4.354290120000000042e-01,-2.607211665889999974e+00,-9.669876225189998065e-02,-9.424012034139998661e+00,1.239993609489999961e-02,-8.809300139549999104e-03,-1.063672825689999935e-02,1.000000000000000000e+00
4.405062940000000204e-01,-2.583022396530000098e+00,-1.410591239740000002e-01,-9.459806985619998443e+00,3.003201680260000287e-03,-5.501450970770000587e-03,-1.672623679040000089e-02,1.000000000000000000e+00
4.454124839999999974e-01,-2.621351834920000012e+00,-1.265189958379999979e-01,-9.428903897830000602e+00,3.497498575599999882e-03,-1.663158461450000083e-02,-3.110196907070000242e-03,1.000000000000000000e+00
4.503774589999999800e-01,-2.574983759240000225e+00,-1.229968861260000018e-01,-9.433737309339999655e+00,-7.609793450680000376e-03,-3.260686760770000001e-03,-1.250319462269999966e-02,1.000000000000000000e+00
4.553831640000000069e-01,-2.618964355270000155e+00,-1.505576868799999857e-01,-9.452925993930000104e+00,-1.712861843410000071e-02,-1.361262239520000077e-02,5.765215493739999156e-03,1.000000000000000000e+00
4.603731979999999835e-01,-2.587987617720000078e+00,-1.886526863309999913e-01,-9.466284657200001007e+00,1.551502849910000193e-03,-9.399542585019999771e-03,-3.684817347679999761e-03,1.000000000000000000e+00
4.653096139999999825e-01,-2.592829504800000073e+00,-1.908789110130000022e-01,-9.441706680780001193e+00,-1.525378087539999965e-03,-1.801246078680000286e-03,-2.109238412229999960e-03,1.000000000000000000e+00
4.703891809999999896e-01,-2.554442490990000092e+00,-1.556541606359999885e-01,-9.488898640069999502e+00,-1.224891003220000135e-02,-7.963919080789999549e-03,-1.288531627510000090e-02,1.000000000000000000e+00
4.753853239999999980e-01,-2.637247907709999950e+00,-1.527481369960000113e-01,-9.444790618269999882e+00,-4.498108290140000361e-03,3.549708984790000358e-03,-2.098342403770000076e-03,1.000000000000000000e+00
4.804357200000000105e-01,-2.596208041320000159e+00,-1.742511446810000031e-01,-9.448692886410000824e+00,-1.111728046090000067e-02,-9.004248306159999549e-03,-3.876818576829999755e-03,1.000000000000000000e+00
4.853919500000000165e-01,-2.564351598330000037e+00,-1.480700073829999963e-01,-9.437629056080000467e+00,-6.654491182420000338e-03,-4.649826325479999856e-03,-1.007593981920000027e-02,1.000000000000000000e+00
4.903608099999999803e-01,-2.645511293670000263e+00,-1.718965261129999922e-01,-9.458923188520000025e+00,-1.773762889209999985e-02,1.037527713920000094e-02,4.136770963670000252e-03,1.000000000000000000e+00
4.954166779999999992e-01,-2.610572374499999793e+00,-1.561728142149999832e-01,-9.429186806429999734e+00,1.074837334450000001e-02,-4.966825246810000621e-03,9.706360287960000440e-05,1.000000000000000000e+00
5.003186560000000282e-01,-2.583703949050000226e+00,-1.242112760179999997e-01,-9.438376075060000758e+00,-1.416933909059999927e-02,-1.499354955739999997e-03,-7.020926102999999405e-03,1.000000000000000000e+00
5.053644470000000499e-01,-2.627570271049999739e+00,-1.015224378150000051e-01,-9.424480236169999969e+00,-1.216005440800000011e-02,-7.643466815349999341e-04,1.270464528350000004e-02,1.000000000000000000e+00
5.104043790000000191e-01,-2.601072432480000085e+00,-8.726541006950000456e-02,-9.439189145000000281e+00,6.794522982090000357e-03,-1.367905922229999995e-02,3.154515055939999691e-03,1.000000000000000000e+00
5.153439920000000285e-01,-2.617375917029999943e+00,-1.089208866359999972e-01,-9.454280331150000549e+00,7.944444078019999040e-04,-2.211268059909999879e-03,1.819045655429999894e-02,1.000000000000000000e+00
5.203428420000000276e-01,-2.595505446009999773e+00,-8.952369212400000664e-02,-9.423768873029999327e+00,-8.550141006709999561e-03,1.306083612139999871e-02,7.636197842659999888e-03,1.000000000000000000e+00
5.254548759999999596e-01,-2.574812494330000145e+00,-1.219770415589999935e-01,-9.459550965030000924e+00,-6.781422998760000542e-03,1.983910333370000195e-03,-9.516832418739998647e-03,1.000000000000000000e+00
5.303861199999999609e-01,-2.629765443000000147e+00,-1.386665571490000026e-01,-9.461948089299999864e+00,1.085112057629999960e-02,4.406982101499999638e-03,3.648385638369999739e-03,1.000000000000000000e+00
5.353972689999999535e-01,-2.588643451279999841e+00,-1.134626399860000079e-01,-9.439232399619999825e+00,6.960379425440000115e-03,-4.738343413919999733e-04,-8.184120059009999601e-03,1.000000000000000000e+00
5.404527390000000153e-01,-2.598608964979999936e+00,-1.219186441690000011e-01,-9.437934761030000175e+00,6.412344519050000406e-03,-2.664055442439999810e-03,5.128084681930000083e-03,1.000000000000000000e+00
5.453157830000000539e-01,-2.572543672609999721e+00,-1.746833438200000033e-01,-9.488752509600001162e+00,5.679629393849999980e-04,9.531658142810000081e-03,3.425264498219999891e-03,1.000000000000000000e+00
5.503481780000000212e-01,-2.568790457560000018e+00,-1.467752000660000056e-01,-9.432378880469999061e+00,5.893640685829999899e-03,-1.588423969220000096e-03,-9.033241309230000127e-03,1.000000000000000000e+00
5.554757660000000374e-01,-2.641349205550000079e+00,-1.326064442590000059e-01,-9.453330483080000235e+00,-7.519763894380000887e-04,-8.595988620070000056e-04,4.609063267710000050e-03,1.000000000000000000e+00
5.602853549999999849e-01,-2.629931447220000162e+00,-1.385392957730000041e-01,-9.453179676430000455e+00,8.046004921199998924e-03,-9.926563361659999484e-04,1.055191457270000105e-02,1.000000000000000000e+00
5.653649790000000452e-01,-2.543902100019999946e+00,-1.648283047590000105e-01,-9.449463286260000316e+00,5.395852960650000113e-03,6.499562412499999831e-03,-5.617760587479999831e-03,1.000000000000000000e+00
5.704144209999999493e-01,-2.614311853290000265e+00,-1.323852392559999869e-01,-9.419332351889998733e+00,-1.368887140420000119e-03,-2.028969861570000324e-02,4.661684855820000077e-03,1.000000000000000000e+00
5.754490370000000521e-01,-2.593324887100000087e+00,-1.481250072400000228e-01,-9.451419096500000450e+00,-5.382694303989999339e-03,1.498029567300000059e-03,4.064146429300000314e-03,1.000000000000000000e+00
5.803264710000000104e-01,-2.584383748010000037e+00,-1.253776803150000174e-01,-9.433735555769999337e+00,-1.534218806770000151e-02,-8.779332041739999412e-03,-2.693817950789999943e-04,1.000000000000000000e+00
5.854260970000000341e-01,-2.576564306429999895e+00,-1.490300480539999972e-01,-9.413589424319999566e+00,1.718127401550000131e-03,-6.938807666299999510e-03,-3.266195533799999811e-03,1.000000000000000000e+00
5.905246579999999801e-01,-2.653431273009999813e+00,-7.430201603069999661e-02,-9.462482342310000405e+00,-4.244156647470000154e-03,-5.933874286710000799e-03,2.362045226620000226e-03,1.000000000000000000e+00
5.952676209999999690e-01,-2.610133398559999929e+00,-7.773479892439999483e-02,-9.427996719860001207e+00,-7.794570643449999676e-03,-9.310155175629998905e-03,9.117666631940000294e-03,1.000000000000000000e+00
6.003735460000000357e-01,-2.540978321529999917e+00,-1.112456763220000117e-01,-9.441595037100000809e+00,-1.476373802870000092e-02,-3.084977623079999953e-03,-6.871133111420000585e-03,1.000000000000000000e+00
6.055045679999999653e-01,-2.615546948039999986e+00,-1.194298960930000042e-01,-9.437115261339998895e+00,6.415335461499999115e-03,-2.178824692959999837e-02,4.584796261040000520e-04,1.000000000000000000e+00
6.104312570000000049e-01,-2.636679167920000122e+00,-1.075630331540000095e-01,-9.440749818449999609e+00,-2.028218470509999920e-03,6.742308847609999357e-03,1.804644055659999913e-02,1.000000000000000000e+00
6.153915009999999519e-01,-2.554962715479999869e+00,-1.467980877510000060e-01,-9.441467611329999343e+00,-1.120821107180000045e-03,-2.382778562610000147e-03,-9.405795484780000645e-03,1.000000000000000000e+00
6.203361139999999940e-01,-2.616096398609999873e+00,-1.074793369250000019e-01,-9.434542195980000656e+00,2.383541781459999880e-03,-6.375336088239999185e-04,-6.575418636199999341e-03,1.000000000000000000e+00
6.254268229999999651e-01,-2.618917008990000017e+00,-8.248403014499999797e-02,-9.437928331289999306e+00,-7.307887426579999404e-05,-1.176697947079999827e-02,-8.815987035629999774e-03,1.000000000000000000e+00
6.303445880000000390e-01,-2.639475228379999816e+00,-9.216601419309999876e-02,-9.450271680030001065e+00,2.317541977389999883e-03,1.881007105109999775e-03,7.868707180019999733e-03,1.000000000000000000e+00
6.355017750000000465e-01,-2.576654030540000306e+00,-9.459281208180000955e-02,-9.452848252519999050e+00,8.125872700479999438e-04,-2.593125682320000357e-03,-3.840547055010000606e-03,1.000000000000000000e+00
6.404876999999999931e-01,-2.622878313840000253e+00,-1.504612499009999882e-01,-9.441049678180000626e+00,-3.981551621110000078e-03,9.084165096280001281e-03,1.733813062309999889e-02,1.000000000000000000e+00
6.454097199999999646e-01,-2.520838035300000168e+00,-1.662916005110000039e-01,-9.481625434199999702e+00,6.050136289559999688e-04,-1.082821376620000074e-02,-1.125859282910000002e-02,1.000000000000000000e+00
6.504112269999999807e-01,-2.615677004159999708e+00,-1.696933352459999989e-01,-9.465847434829999685e+00,-4.645182285460000560e-03,-6.863515358419999997e-03,4.222817718979999906e-03,1.000000000000000000e+00
6.553970040000000052e-01,-2.559818631079999740e+00,-1.936724141890000250e-01,-9.484958962529999482e+00,-7.283102255310000203e-03,-8.093407377600000258e-03,-5.339846014979999535e-03,1.000000000000000000e+00
6.603727289999999917e-01,-2.594348092659999772e+00,-1.172312626710000083e-01,-9.448531558370000027e+00,-2.742735901849999679e-03,-5.388154648239999907e-03,2.773064421489999584e-03,1.000000000000000000e+00
6.653353210000000351e-01,-2.595098911030000011e+00,-1.077842746890000092e-01,-9.465833406299999808e+00,-2.507356693970000036e-03,8.967904373999999873e-03,-2.681761980059999581e-04,1.000000000000000000e+00
6.704757959999999573e-01,-2.616705762680000102e+00,-9.429934556060001749e-02,-9.423872333410001190e+00,-1.227168738839999954e-02,6.939563900229999208e-03,2.386291278530000299e-03,1.000000000000000000e+00
6.753642159999999617e-01,-2.591360893550000100e+00,-1.255404605290000031e-01,-9.450574462369999651e+00,-3.732042387130000451e-03,1.141842082140000041e-02,4.025486297909999615e-03,1.000000000000000000e+00
6.803581539999999928e-01,-2.549253397919999831e+00,-1.412596423820000058e-01,-9.471361229810000282e+00,1.848930842240000005e-04,-2.407238585869999996e-03,-4.983076825740000160e-03,1.000000000000000000e+00
6.853388049999999954e-01,-2.623040226399999675e+00,-1.339298840160000059e-01,-9.468827327419999662e+00,2.386051462959999907e-03,-5.554414819930000337e-04,-7.087627891450000396e-04,1.000000000000000000e+00
6.904078230000000316e-01,-2.612242645800000318e+00,-9.346538808760000705e-02,-9.460013906369999503e+00,4.485731944439999910e-03,-6.123302504420000299e-03,5.726587027310000612e-03,1.000000000000000000e+00
6.953358739999999649e-01,-2.573888365220000196e+00,-1.471855526989999940e-01,-9.486758120910000258e+00,5.497390404339999419e-03,5.590869113799999852e-04,-1.275310665370000054e-02,1.000000000000000000e+00
7.003482699999999950e-01,-2.619225344290000201e+00,-1.458884803590000112e-01,-9.470347668860000567e+00,-9.446970187129997976e-03,2.791360951960000086e-03,-3.204068168999999779e-03,1.000000000000000000e+00
7.054533910000000407e-01,-2.627317465329999990e+00,-1.312245157810000007e-01,-9.434045352380000082e+00,-8.925999514760000683e-03,-3.330886829639999628e-04,-3.376363310959999459e-04,1.000000000000000000e+00
7.103900100000000162e-01,-2.538183137849999937e+00,-1.390254444559999858e-01,-9.483620991930001409e+00,-6.496671587229999739e-03,-7.235899101940000341e-03,-9.498734027149999259e-03,1.000000000000000000e+00
7.153096890000000263e-01,-2.606845755190000169e+00,-1.253868774019999965e-01,-9.429348718989999156e+00,-2.547309268269999736e-03,-1.988819800320000119e-03,4.336219280959999721e-03,1.000000000000000000e+00
7.203041159999999943e-01,-2.555450206729999785e+00,-1.065812190420000055e-01,-9.456823585889999606e+00,-9.784705005590000129e-03,-1.180473901329999985e-02,-9.746534749870000569e-03,1.000000000000000000e+00
7.253815639999999787e-01,-2.606542680590000050e+00,-1.182623775510000114e-01,-9.436175934660001374e+00,3.084061900150000032e-03,2.532157115639999904e-03,-2.727419836449999566e-03,1.000000000000000000e+00
7.302727949999999746e-01,-2.621172678970000280e+00,-1.096829570500000017e-01,-9.420280446399999619e+00,-2.410894958300000349e-03,-3.988211974499999979e-03,3.913208842279999704e-03,1.000000000000000000e+00
7.354907699999999604e-01,-2.576368783859999567e+00,-1.155756957499999987e-01,-9.412025243749999603e+00,3.049690974879999943e-03,4.655134864149998962e-03,-9.885841980580000257e-03,1.000000000000000000e+00
7.403708559999999661e-01,-2.658846868320000389e+00,-7.392320018049999830e-02,-9.425172894610000185e+00,1.931573729960000011e-03,-6.877870764580000344e-03,-8.307895623150000821e-04,1.000000000000000000e+00
7.454706319999999664e-01,-2.632042740290000182e+00,-7.512512331610000926e-02,-9.428602869060000558e+00,3.554802853609999660e-03,9.622186422350000046e-03,-7.895778864619999726e-03,1.000000000000000000e+00
7.503641060000000307e-01,-2.588323717809999813e+00,-8.131140616899999729e-02,-9.435950893739999401e+00,1.489114481960000054e-03,2.735470421610000213e-03,-1.230114884670000137e-02,1.000000000000000000e+00
7.554816340000000130e-01,-2.636443605590000239e+00,-1.040369413869999954e-01,-9.450126718599999975e+00,-6.621230859310000411e-03,-1.516202930359999892e-03,8.230555802579999497e-03,1.000000000000000000e+00
7.602988320000000355e-01,-2.529277070080000023e+00,-1.242647597710000024e-01,-9.436669271139999537e+00,3.835737705229999919e-03,9.341438300909998826e-03,-8.332899771630000729e-03,1.000000000000000000e+00
7.652178480000000338e-01,-2.642949041970000135e+00,-1.350167385369999973e-01,-9.465925176239998962e+00,-3.620971459899999766e-03,-7.568956352770000659e-03,3.647341160099999788e-03,1.000000000000000000e+00
7.704545360000000231e-01,-2.560891520999999837e+00,-1.516580128049999920e-01,-9.447878647419999609e+00,2.406501909719999978e-03,9.083179757000001348e-04,-5.580370314420000748e-03,1.000000000000000000e+00
7.753956210000000349e-01,-2.589251938569999911e+00,-1.436353676700000137e-01,-9.481444816930000741e+00,-7.391183171419999677e-03,2.608863636849999713e-03,1.500406069679999970e-03,1.000000000000000000e+00
7.802893709999999539e-01,-2.637660872430000136e+00,-1.430128244580000096e-01,-9.433251571650000500e+00,-3.300423966719999869e-03,1.894063316290000134e-04,4.054344259199999662e-03,1.000000000000000000e+00
7.853461419999999693e-01,-2.572675774559999518e+00,-1.669736279590000039e-01,-9.438851875870000185e+00,6.337722297760000310e-03,-5.840931553389999567e-04,-9.038704447450000498e-03,1.000000000000000000e+00
7.905220339999999846e-01,-2.608913209109999798e+00,-1.503391487580000019e-01,-9.436873853799999878e+00,9.152704849839999809e-03,6.515237502749999729e-03,1.364907482640000287e-03,1.000000000000000000e+00
7.954366130000000146e-01,-2.596913266979999690e+00,-1.478182793779999893e-01,-9.435810023960000237e+00,-4.652151837939999708e-03,-2.939436584710000168e-03,-1.323928870259999911e-02,1.000000000000000000e+00
8.003631310000000054e-01,-2.626418470660000004e+00,-1.169749954880000137e-01,-9.428849537299999639e+00,1.706971554090000063e-03,-1.991939265280000086e-03,7.595042698089999635e-03,1.000000000000000000e+00
8.054836450000000259e-01,-2.571221776359999822e+00,-9.303943602679999592e-02,-9.416754610359999944e+00,3.309069201349999594e-03,5.942466668780000544e-03,-5.599386990069999542e-03,1.000000000000000000e+00
8.104647320000000210e-01,-2.579037710809999773e+00,-1.468836288770000165e-01,-9.455584984010000582e+00,-2.223429968579999916e-03,2.511227503420000121e-03,-1.742223091420000078e-02,1.000000000000000000e+00
8.153554130000000288e-01,-2.593978382570000019e+00,-1.399792745819999906e-01,-9.473001982759999606e+00,2.136355498809999753e-03,-1.958757173270000117e-03,-1.000546757129999915e-02,1.000000000000000000e+00
8.202881480000000503e-01,-2.648255623940000358e+00,-1.254975164359999895e-01,-9.463715683500000253e+00,-2.040315186600000219e-03,-3.809152171020000355e-03,6.915861740709999990e-03,1.000000000000000000e+00
8.253911170000000075e-01,-2.562301095540000073e+00,-1.302021504629999882e-01,-9.443220592479999453e+00,2.203378826380000214e-03,7.705471478399999498e-03,-2.305760746819999953e-03,1.000000000000000000e+00
8.303328800000000509e-01,-2.599886437569999931e+00,-1.467701676979999981e-01,-9.438007241739999387e+00,-8.151831571010001009e-04,5.246954038739999777e-03,2.016302896659999920e-03,1.000000000000000000e+00
8.352905680000000110e-01,-2.547129829890000252e+00,-1.471954987040000051e-01,-9.475786060519999054e+00,4.013305529949999680e-03,-2.267292700710000185e-03,-6.586378905919999978e-03,1.000000000000000000e+00
8.403684289999999724e-01,-2.626932557670000001e+00,-9.697548770089998993e-02,-9.467442595059999633e+00,1.042743958529999959e-02,1.507049426440000041e-02,-1.525293337180000115e-03,1.000000000000000000e+00
8.453280159999999599e-01,-2.576429866399999824e+00,-9.956742215659999951e-02,-9.475732869030000671e+00,-2.565845381469999877e-03,4.395436961199999763e-03,-2.117413794619999855e-03,1.000000000000000000e+00
8.503339930000000102e-01,-2.601009888640000156e+00,-8.980287439150000384e-02,-9.458304179839998937e+00,1.422112528229999874e-02,4.333967808629999967e-03,-4.102662205700000411e-03,1.000000000000000000e+00
8.554453810000000047e-01,-2.587200266740000032e+00,-6.019589083080000014e-02,-9.457263730880001162e+00,-5.318685900420000792e-03,1.376756932589999829e-03,6.637314334510000489e-03,1.000000000000000000e+00
8.603648860000000509e-01,-2.567086576249999919e+00,-7.930419453249999695e-02,-9.467747715489998939e+00,8.044468238950001210e-03,-4.002452827989999573e-03,5.119719542560000405e-03,1.000000000000000000e+00
8.652607509999999946e-01,-2.577512108680000136e+00,-1.217645130529999981e-01,-9.435743388469999715e+00,6.812908104620001145e-04,-4.378747195010000010e-03,-2.977425232529999719e-03,1.000000000000000000e+00
8.702656060000000249e-01,-2.647096809290000241e+00,-1.647785108010000055e-01,-9.464781266900001100e+00,-7.661634590479999597e-04,-1.079045049850000000e-02,1.608027145269999916e-02,1.000000000000000000e+00
8.753686240000000396e-01,-2.542310739169999945e+00,-1.409862870670000046e-01,-9.459349304979999928e+00,-1.933266874399999996e-03,1.569706946609999943e-03,-1.198562048379999898e-02,1.000000000000000000e+00
8.803631960000000145e-01,-2.608985397570000142e+00,-1.232943255700000018e-01,-9.470639345280000398e+00,8.989802561700000610e-03,-3.591431304810000120e-03,1.392638543619999789e-03,1.000000000000000000e+00
8.854078010000000498e-01,-2.594168644439999838e+00,-1.708914041910000181e-01,-9.476028637100000651e+00,1.576104387640000007e-02,1.270317472520000011e-02,3.159685758870000010e-03,1.000000000000000000e+00
8.903762490000000085e-01,-2.613218212830000109e+00,-1.325773277620000135e-01,-9.453204810880000863e+00,9.348806343039998620e-04,-1.106440369039999976e-02,7.054165937009999367e-03,1.000000000000000000e+00
8.953755679999999550e-01,-2.577639242190000068e+00,-1.267487860060000082e-01,-9.461948673820000266e+00,3.885977901519999805e-03,1.711972057819999976e-02,-1.053806627169999975e-03,1.000000000000000000e+00
9.003979009999999450e-01,-2.624260708110000007e+00,-1.515847101059999980e-01,-9.458464338839998931e+00,6.535370368510000708e-03,-8.785552345219999580e-04,-1.454183598979999882e-03,1.000000000000000000e+00
9.055036429999999692e-01,-2.602029294819999894e+00,-1.183810994260000027e-01,-9.456118067969999430e+00,3.097437787799999908e-03,-8.390769362449999880e-03,4.168401472269999547e-03,1.000000000000000000e+00
9.104145959999999649e-01,-2.569892573579999784e+00,-1.253920650339999943e-01,-9.449541612189999995e+00,-2.204561838880000034e-03,-4.318476654590000172e-03,-1.640267111359999808e-02,1.000000000000000000e+00
9.154819050000000402e-01,-2.682315422190000298e+00,-1.301802948240000091e-01,-9.461997773660000277e+00,2.199118724090000105e-03,-3.557447344060000040e-04,9.308240376409999267e-03,1.000000000000000000e+00
9.203522600000000331e-01,-2.577852008149999818e+00,-1.445623189230000050e-01,-9.453811544600000616e+00,3.644246142359999947e-03,6.466323509810000154e-03,7.272525690500000230e-03,1.000000000000000000e+00
9.253608709999999737e-01,-2.550046301859999698e+00,-1.903035405440000050e-01,-9.503310611779999917e+00,1.048544421790000014e-02,3.103972412650000089e-03,7.084819488229999844e-03,1.000000000000000000e+00
9.302796770000000270e-01,-2.538715052770000202e+00,-1.387269455660000150e-01,-9.451360059789999823e+00,-9.314195485789999963e-04,-1.037308014929999925e-02,4.057236947119999271e-03,1.000000000000000000e+00
9.353938550000000518e-01,-2.568808285479999842e+00,-1.458812286349999987e-01,-9.455901794869999932e+00,1.286654360589999969e-02,-1.238687802110000069e-02,1.325794216250000129e-02,1.000000000000000000e+00
9.404179700000000475e-01,-2.625643686900000162e+00,-1.637393587450000076e-01,-9.478190783569999667e+00,1.589262671770000010e-02,-8.831521496180000028e-03,2.624947391449999889e-02,1.000000000000000000e+00
9.454025919999999861e-01,-2.612304312859999644e+00,-9.791026606670000243e-02,-9.454354565430000079e+00,4.133312962950000218e-03,-5.644333548839999999e-03,3.729357616980000061e-03,1.000000000000000000e+00
9.503014060000000152e-01,-2.622192669659999975e+00,-1.225835286849999983e-01,-9.402831883470000207e+00,6.451759953049999649e-03,5.907946266229998841e-03,6.252896972000000428e-03,1.000000000000000000e+00
9.554533849999999884e-01,-2.639955705369999794e+00,-1.427527396169999963e-01,-9.403415236309999869e+00,5.183643195779999782e-03,-8.741200901570000265e-03,9.735316969450000246e-03,1.000000000000000000e+00
9.604025019999999913e-01,-2.560803842719999945e+00,-1.756533030970000020e-01,-9.476027468060001624e+00,8.247580379250000343e-03,1.290141977369999894e-02,-4.938947036859999383e-03,1.000000000000000000e+00
9.653572049999999960e-01,-2.587886203170000066e+00,-1.256225401880000092e-01,-9.461323235400000087e+00,-5.011106841270000258e-03,-1.112909894439999964e-02,1.946644624700000041e-03,1.000000000000000000e+00
9.703823000000000309e-01,-2.633817640999999821e+00,-1.337115833560000022e-01,-9.457233920260000204e+00,1.158224418759999999e-02,-1.667428063229999891e-03,3.517497098070000109e-03,1.000000000000000000e+00
9.755068959999999567e-01,-2.603975752709999814e+00,-8.442307191619999318e-02,-9.396776236689998285e+00,-9.170207194980000559e-03,-1.778381410990000110e-04,-9.635823778809999088e-03,1.000000000000000000e+00
9.803929160000000032e-01,-2.625829272599999875e+00,-1.135607117989999998e-01,-9.456789099099999873e+00,6.681574508550000742e-03,-2.995498944069999885e-04,-1.600993913599999896e-03,1.000000000000000000e+00
9.854237970000000457e-01,-2.578440037180000033e+00,-1.031158901519999976e-01,-9.478899808619999590e+00,8.749349974100000329e-03,-5.294303409760000440e-04,-7.912159897389999322e-03,1.000000000000000000e+00
9.903435459999999635e-01,-2.583081433239999836e+00,-7.046303152289999649e-02,-9.417086618789999974e+00,-3.130087628960000114e-03,-2.301640575749999956e-03,-1.211085356770000114e-02,1.000000000000000000e+00
9.951458420000000027e-01,-2.612960438680000053e+00,-5.400044742390000541e-02,-9.445387999639999421e+00,6.646245718000000011e-03,4.562563262880000269e-03,-8.910275064410000390e-03,1.000000000000000000e+00
1.000209676000000103e+00,-2.579968269659999702e+00,-1.125089742559999967e-01,-9.466759288980000520e+00,8.224711753429999814e-03,6.987881846729999957e-03,-1.694094948470000264e-02,1.000000000000000000e+00
1.005500355999999984e+00,-2.533900638230000002e+00,-1.852608336690000079e-01,-9.464404250279999431e+00,7.304449565710000730e-03,7.889754138890000754e-03,-1.794267818330000028e-02,1.000000000000000000e+00
1.010380175999999963e+00,-2.654386966300000150e+00,-1.610637645940000140e-01,-9.454777759279998861e+00,1.259582303460000073e-02,6.348020397130000984e-03,-3.664879128340000312e-03,1.000000000000000000e+00
1.015423079999999922e+00,-2.597402219540000168e+00,-1.835669805640000041e-01,-9.442746545229999455e+00,7.480695378039999358e-03,1.622424833480000037e-02,-1.738684996960000034e-02,1.000000000000000000e+00
1.020249694000000096e+00,-2.623391231799999890e+00,-1.117592244679999902e-01,-9.391969128670000444e+00,-1.130590029060000133e-02,1.235946174709999859e-02,-1.780766621230000027e-02,1.000000000000000000e+00
1.025430687999999924e+00,-2.645987679010000093e+00,-5.613373769209999836e-02,-9.427902611839998670e+00,2.423245692630000316e-03,1.043543312699999996e-02,-1.118090469390000015e-02,1.000000000000000000e+00
1.030449275000000053e+00,-2.539678052579999790e+00,-9.696868350079999865e-02,-9.447333288490000314e+00,6.649879738689999827e-03,2.548018097879999749e-02,-2.678178995850000188e-02,1.000000000000000000e+00
1.035412376000000023e+00,-2.593122934779999778e+00,-8.515223557409999644e-02,-9.455809440419999490e+00,1.348862890150000042e-02,-6.961042527109999496e-03,-1.444555167110000114e-02,1.000000000000000000e+00
1.040429057999999962e+00,-2.589458274799999682e+00,-1.468377804409999876e-01,-9.446322065619998654e+00,1.584306731819999994e-02,3.010554704820000461e-03,-1.606146991250000100e-02,1.000000000000000000e+00
1.045377357000000007e+00,-2.573876090259999749e+00,-1.245409554969999916e-01,-9.477751807629999803e+00,6.796602625399998827e-03,2.758729830379999873e-02,-2.120696194469999865e-02,1.000000000000000000e+00
1.050369504000000065e+00,-2.567584881160000165e+00,-9.452009390550000778e-02,-9.441248415619998724e+00,6.218592170629999930e-03,2.312096767129999961e-04,-2.499612048270000164e-02,1.000000000000000000e+00
1.055424723000000009e+00,-2.607843826309999891e+00,-7.093300538850000336e-02,-9.476377012149999501e+00,1.045676879579999878e-02,7.461355067790000420e-03,-2.275479957459999869e-02,1.000000000000000000e+00
1.060394156999999948e+00,-2.667059400869999930e+00,-6.361247607499999346e-02,-9.460541729639999176e+00,1.518286671489999830e-02,2.739658392969999967e-02,3.054169705140000017e-03,1.000000000000000000e+00
1.065428789999999903e+00,-2.603400583170000004e+00,-1.039750003329999867e-01,-9.458550263560001170e+00,1.236802712080000040e-02,8.529039099809999219e-03,-1.246907003220000011e-02,1.000000000000000000e+00
1.070484210999999908e+00,-2.586004334950000150e+00,-1.159336423420000012e-01,-9.455613625580001624e+00,3.265478461980000219e-02,3.252482414249999870e-02,-2.413264103229999930e-02,1.000000000000000000e+00
1.075437653000000049e+00,-2.642215174730000005e+00,-1.442665234470000002e-01,-9.431503266680000053e+00,3.767607733609999732e-02,1.378390565510000110e-02,-7.955730892719999753e-03,1.000000000000000000e+00
1.080377834999999953e+00,-2.628148363199999782e+00,-9.941369289960000355e-02,-9.485706566030000175e+00,1.776871643959999914e-02,1.280303113160000030e-03,-1.635270752009999884e-02,1.000000000000000000e+00
1.085256541999999991e+00,-2.557512399959999794e+00,-1.395562999290000106e-01,-9.415183415519999599e+00,2.612994424999999857e-02,1.431340351700000069e-02,-1.645825058220000067e-02,1.000000000000000000e+00
1.090414269999999908e+00,-2.633421627420000188e+00,-1.277076211000000017e-01,-9.454614677669999523e+00,3.080202825370000064e-02,1.123410090799999844e-02,-1.991205103700000034e-02,1.000000000000000000e+00
1.095312771999999990e+00,-2.597600664719999841e+00,-1.252190191549999998e-01,-9.418138758189998683e+00,1.998848095540000161e-02,1.983155123890000329e-02,-1.227489113809999977e-02,1.000000000000000000e+00
1.100354132000000096e+00,-2.571209501399999819e+00,-1.966267339499999933e-01,-9.415729358960000184e+00,3.498752601440000172e-03,2.735699061300000089e-03,-9.531870484350000658e-03,1.000000000000000000e+00
1.105428461000000029e+00,-2.715906433889999860e+00,-1.081200459820000070e-01,-9.415970181980000575e+00,9.799627587200000420e-04,-1.705943420530000101e-02,-2.440265612680000105e-03,1.000000000000000000e+00
1.110354441999999997e+00,-2.395366173890000283e+00,-3.568276711689999936e-01,-9.453144020599999919e+00,1.470674946900000016e-02,1.322013698520000009e-02,-1.995519176129999933e-02,1.000000000000000000e+00
1.115506093000000032e+00,-2.491761870679999991e+00,-4.092645453710000436e-01,-9.481410330139999232e+00,2.901102602479999765e-02,2.150369435550000125e-02,-8.921927772459998379e-03,1.000000000000000000e+00
1.120318697000000085e+00,-2.612967452940000435e+00,-3.926429713180000225e-01,-9.405844509289998712e+00,3.109006676820000314e-03,1.362194679679999861e-02,-7.837329059840001527e-03,1.000000000000000000e+00
1.125284801000000057e+00,-2.484397479390000107e+00,-3.340309886780000181e-01,-9.445113858880000990e+00,-3.791594645009999966e-03,1.260537747289999788e-02,1.935968874019999971e-03,1.000000000000000000e+00
1.130165144000000010e+00,-2.564834997929999805e+00,-2.312065192209999953e-01,-9.440658633039998193e+00,8.381917141380000602e-03,1.822387427090000137e-02,-1.718836463990000216e-02,1.000000000000000000e+00
1.135226344000000109e+00,-2.637416834540000199e+00,-1.787913271279999994e-01,-9.442643669369999770e+00,-1.235196739439999893e-02,2.946862764659999995e-02,-1.290899515150000128e-02,1.000000000000000000e+00
1.140276888000000044e+00,-2.587197928650000200e+00,-8.134693414010001067e-02,-9.437316336869999489e+00,1.292720623309999949e-02,2.097331546250000289e-02,-1.451232377439999957e-02,1.000000000000000000e+00
1.145272153000000070e+00,-2.579763979260000006e+00,-1.407833757729999857e-01,-9.438862397270000315e+00,-3.798920661209999848e-03,1.722786203029999866e-02,-2.710804715749999885e-02,1.000000000000000000e+00
1.150376360999999958e+00,-2.663410815240000229e+00,-2.159584985430000048e-01,-9.466914187280000448e+00,-6.328281946479999247e-03,1.682320609690000045e-03,2.281320514159999608e-03,1.000000000000000000e+00
1.155348172999999923e+00,-2.562734810779999872e+00,-1.789072268589999848e-01,-9.422353161020000201e+00,1.221024896949999931e-02,6.446126848460000114e-03,9.991842322049998559e-03,1.000000000000000000e+00
1.160331328999999911e+00,-2.532145318990000060e+00,-1.430165233860000162e-01,-9.403193117989999905e+00,2.913767937570000202e-03,6.854420527819999470e-03,-3.672922961410000128e-03,1.000000000000000000e+00
1.165289489000000067e+00,-2.553956753300000049e+00,-9.193628795730000858e-02,-9.409619351649999075e+00,9.151152335109999716e-03,9.283661842350000859e-03,-4.584929905830000159e-03,1.000000000000000000e+00
1.170351726999999897e+00,-2.545905256540000217e+00,-1.089765897459999966e-01,-9.457028753080001238e+00,8.921437896790000710e-03,1.656031236049999942e-03,-1.286001969129999846e-02,1.000000000000000000e+00
1.175440983000000106e+00,-2.609529879709999722e+00,-1.027261327830000098e-01,-9.435819960830000852e+00,7.324677426370000861e-03,3.004911821340000219e-03,-5.695733707399999388e-03,1.000000000000000000e+00
1.180401943999999981e+00,-2.573277247590000094e+00,-8.136067953770000083e-02,-9.441877945699999941e+00,1.668374054129999687e-02,1.635166816410000114e-03,-1.806684955950000129e-02,1.000000000000000000e+00
1.185261160999999897e+00,-2.665344998170000146e+00,-1.109871532499999980e-01,-9.444181546459999410e+00,1.150991534809999968e-03,-5.708121694620000436e-03,-2.046447247269999898e-03,1.000000000000000000e+00
1.190379289000000007e+00,-2.620436765910000076e+00,-1.564199573760000073e-01,-9.467935347020000947e+00,1.673118397589999987e-02,6.795277819039999626e-03,-5.058499053119999873e-03,1.000000000000000000e+00
1.195330390999999937e+00,-2.622182440530000047e+00,-1.434589333909999931e-01,-9.475645190739998114e+00,1.345180720089999941e-02,1.575900241730000036e-03,8.447100408380001178e-04,1.000000000000000000e+00
1.200290478999999966e+00,-2.611961783029999928e+00,-1.726177713259999802e-01,-9.407533193019999018e+00,1.190753467379999757e-02,2.410645224150000099e-02,3.228497924280000070e-03,1.000000000000000000e+00
1.205465543000000084e+00,-2.582550979630000132e+00,-2.845611110560000157e-01,-9.416706095040000335e+00,1.058539375660000163e-02,2.644908428190000452e-02,-1.776185468769999817e-03,1.000000000000000000e+00
1.210318677999999926e+00,-2.580859665540000236e+00,-2.144528432209999724e-01,-9.415486782380000363e+00,-1.224979106339999999e-02,-3.942059352990000438e-03,3.910601139069999968e-03,1.000000000000000000e+00
1.215406141000000106e+00,-2.591234344559999681e+00,-9.330209641780000396e-02,-9.444382037469999602e+00,-2.993427449839999779e-03,3.746568225320000105e-03,4.252237267790000101e-03,1.000000000000000000e+00
1.220370761999999942e+00,-2.575797998229999664e+00,-1.135515877779999933e-01,-9.443348602769999545e+00,5.384707474149998856e-04,1.473461091519999953e-02,2.050089882689999816e-03,1.000000000000000000e+00
1.225405470999999968e+00,-2.558311441379999884e+00,-9.429428579299999058e-02,-9.411672777050000605e+00,1.055215951060000171e-02,6.309415213759999794e-03,-2.154775429519999695e-03,1.000000000000000000e+00
1.230792090000000005e+00,-2.553053959250000116e+00,-1.338504073050000021e-01,-9.446032142769999140e+00,-5.844439845529999199e-03,1.111118216070000088e-02,-8.194363676009999362e-03,1.000000000000000000e+00
1.235145522000000051e+00,-2.583748080459999930e+00,-1.852630804250000041e-01,-9.480020921610000428e+00,5.924674216660000270e-03,1.557592302559999975e-02,-2.714137779549999786e-03,1.000000000000000000e+00
1.240161054999999957e+00,-2.488512221230000154e+00,-2.122439532660000128e-01,-9.412339131999999609e+00,7.807108107949999737e-03,9.834357537330000107e-03,-1.602517999710000030e-02,1.000000000000000000e+00
1.245297952000000041e+00,-2.592819275659999700e+00,-1.971265001649999959e-01,-9.481932308189998437e+00,1.308819372209999929e-02,-3.563179168850000040e-03,-1.273276843129999940e-02,1.000000000000000000e+00
1.250226338000000048e+00,-2.599697636999999784e+00,-1.412121682449999915e-01,-9.475553420810001626e+00,4.909539711659999684e-04,8.305121213199999700e-03,6.365168374030000806e-04,1.000000000000000000e+00
1.255365070999999944e+00,-2.565952311520000251e+00,-1.090074872079999924e-01,-9.473978134310002019e+00,-4.511170554910000005e-03,6.695001386109998912e-03,-1.391287613659999978e-02,1.000000000000000000e+00
1.260387007999999920e+00,-2.651331085859999881e+00,-1.538682453330000033e-01,-9.441007592600000109e+00,-4.555504769090000169e-03,-1.100957626480000102e-03,7.425455376510001204e-03,1.000000000000000000e+00
1.265437954000000031e+00,-2.605158532749999978e+00,-1.414797422730000032e-01,-9.392759986789998905e+00,6.010707933459999951e-03,2.014462463559999958e-02,-5.585320759560000355e-03,1.000000000000000000e+00
1.270399749000000078e+00,-2.627088625009999845e+00,-1.479502808600000052e-01,-9.446843459149999234e+00,-3.684878814969999843e-03,8.926504291590000445e-03,3.830683417619999654e-04,1.000000000000000000e+00
1.275454770000000071e+00,-2.585997905210000170e+00,-1.635605681120000099e-01,-9.450086971119999291e+00,8.360533392989999337e-04,8.819697424770000030e-03,2.349488204349999866e-03,1.000000000000000000e+00
1.280420649000000077e+00,-2.598460788680000189e+00,-1.692160183240000171e-01,-9.423311192389999036e+00,-5.875981878490000102e-03,6.723694503310000126e-03,2.120378194379999963e-03,1.000000000000000000e+00
1.285182790999999991e+00,-2.600776664409999661e+00,-1.969499562880000221e-01,-9.464988772170000786e+00,3.872985485939999840e-03,-5.123441107570000062e-03,5.225190892819999572e-03,1.000000000000000000e+00
1.290435317000000026e+00,-2.544558225840000354e+00,-1.718400466849999975e-01,-9.436302775910000662e+00,-1.611990854139999998e-02,3.867030888800000038e-02,-3.610057756300000340e-03,1.000000000000000000e+00
1.295304481000000063e+00,-2.573512809909999977e+00,-1.494331215630000098e-01,-9.466894898049998730e+00,-1.973242033270000088e-03,4.017774481330000161e-03,-7.917456328870000476e-03,1.000000000000000000e+00
1.300380349000000102e+00,-2.500601302949999827e+00,-1.414655950159999787e-01,-9.483052252130001136e+00,-4.462504293770000463e-03,1.850017905240000302e-02,-1.824153400959999810e-02,1.000000000000000000e+00
1.305374959999999973e+00,-2.599631001500000149e+00,-1.188500229790000057e-01,-9.492000113219999591e+00,5.799035541709999901e-03,3.389028459790000003e-02,8.683370426299999792e-03,1.000000000000000000e+00
1.310406103000000044e+00,-2.527123691440000375e+00,-9.352457092889999990e-02,-9.448303010310000971e+00,3.842196427290000237e-03,1.207537762820000068e-02,3.173331497239999764e-03,1.000000000000000000e+00
1.315264964000000036e+00,-2.488876086109999886e+00,-1.409749619550000055e-01,-9.425833404349999611e+00,6.410339847209999345e-03,9.288460947570000015e-03,-1.243560388679999795e-02,1.000000000000000000e+00
1.320262073000000091e+00,-2.525852648590000360e+00,-2.256452135650000024e-01,-9.448092582430000164e+00,2.102395752440000022e-03,-1.423812820579999777e-03,-5.651146173479999583e-03,1.000000000000000000e+00
1.325339848000000043e+00,-2.482040102609999632e+00,-2.174345624450000070e-01,-9.462399340199999287e+00,1.806243555619999790e-03,-6.020042113960000045e-03,-2.237571403379999893e-02,1.000000000000000000e+00
1.330339501999999952e+00,-2.528162386830000052e+00,-1.803786328520000093e-01,-9.440089893239999697e+00,-1.314109563829999813e-02,1.842264644799999906e-02,-1.402822230010000032e-02,1.000000000000000000e+00
1.335412151999999963e+00,-2.524502403020000063e+00,-1.993539121579999962e-01,-9.445105091049999402e+00,-9.488045237959999434e-03,3.550082910809999881e-03,-2.174096927049999975e-02,1.000000000000000000e+00
1.340287079999999964e+00,-2.593574477940000289e+00,-1.589959088120000141e-01,-9.460502566669999780e+00,1.937517430630000120e-03,1.253298297520000042e-02,-1.247241045349999859e-03,1.000000000000000000e+00
1.345308203000000091e+00,-2.578096046040000200e+00,-1.133246197540000028e-01,-9.417107077060000719e+00,7.998626679180000434e-03,-7.917408831420001333e-03,-2.240529749540000164e-03,1.000000000000000000e+00
1.350426523999999961e+00,-2.586699039219999996e+00,-1.123163925599999918e-01,-9.443008411030000104e+00,7.934627123180000574e-03,-4.802558105440000438e-04,-4.976117052140000170e-03,1.000000000000000000e+00
1.355412097999999954e+00,-2.518256202109999897e+00,-1.769768433179999823e-01,-9.464781851419999725e+00,-2.410570392389999733e-03,2.231538295750000109e-02,-8.395267650490000066e-03,1.000000000000000000e+00
1.360383759000000081e+00,-2.549450089540000075e+00,-1.815037278909999996e-01,-9.439592465109999608e+00,-3.497419180350000000e-03,9.371577762070000279e-04,2.255215542389999751e-03,1.000000000000000000e+00
1.365396210999999971e+00,-2.530589613980000152e+00,-2.609672868369999899e-01,-9.413896882839999591e+00,9.759804815990000357e-04,6.810881197450000327e-03,2.062496496360000011e-03,1.000000000000000000e+00
1.370334957000000076e+00,-2.492990243429999975e+00,-2.730394174249999861e-01,-9.424080423200001277e+00,-1.306809112429999954e-02,-1.771677052599999807e-03,-4.604160320009999773e-03,1.000000000000000000e+00
1.375407974000000033e+00,-2.523482996849999882e+00,-3.531437584920000261e-01,-9.473462001479999728e+00,-1.262249797579999971e-02,-1.322539243849999921e-02,1.718502258880000126e-03,1.000000000000000000e+00
1.380405450999999895e+00,-2.510651864590000226e+00,-2.830606798970000115e-01,-9.483577152789999687e+00,-6.190226413310000002e-03,-1.316591352219999983e-02,2.671244787049999962e-03,1.000000000000000000e+00
1.385263893999999940e+00,-2.531263567719999941e+00,-1.540575025610000093e-01,-9.434646825399999770e+00,-1.792229153219999926e-02,2.367737703030000068e-03,-2.428795676679999880e-03,1.000000000000000000e+00
1.390464157999999895e+00,-2.592294959529999776e+00,-1.039659219769999976e-01,-9.436194639360001801e+00,-2.583719789979999765e-02,3.848322667180000532e-04,2.647141693159999441e-03,1.000000000000000000e+00
1.395310435000000071e+00,-2.545826346079999691e+00,-1.078388452869999958e-01,-9.463001982270000667e+00,-2.307930216189999981e-02,-1.364249037579999980e-03,-5.668303929270000763e-03,1.000000000000000000e+00
1.400357834000000024e+00,-2.489168931570000076e+00,-1.901214071759999846e-01,-9.454009112999999687e+00,-1.017124112700000006e-02,-1.598032191400000114e-03,-2.052370458839999825e-03,1.000000000000000000e+00
1.405466738000000104e+00,-2.505625268590000232e+00,-2.855448613959999937e-01,-9.484361581159999943e+00,-2.919538132850000092e-02,1.783923618499999933e-02,1.034598890689999995e-02,1.000000000000000000e+00
1.410397770999999967e+00,-2.541956226649999984e+00,-2.458506922529999916e-01,-9.456292255499999300e+00,-2.894136868420000078e-02,-1.462610531600000083e-02,4.424271173779999525e-03,1.000000000000000000e+00
1.415389067000000001e+00,-2.575749482920000055e+00,-1.625772378969999876e-01,-9.463460831949999985e+00,-3.069514781240000045e-02,-8.599990978840000438e-03,5.425363779070000239e-03,1.000000000000000000e+00
1.420396551999999923e+00,-2.556836108129999729e+00,-1.892540314910000007e-02,-9.490260576069999843e+00,-3.803284140300000442e-03,-1.577633805570000103e-02,2.807806944469999968e-03,1.000000000000000000e+00
1.425364442000000009e+00,-2.608314074179999942e+00,3.839270375569999588e-02,-9.478916759760000588e+00,-1.942983083429999924e-02,-4.624701570720000064e-03,8.622821420430000841e-03,1.000000000000000000e+00
1.430310776000000006e+00,-2.576353878549999976e+00,8.706584835979998618e-03,-9.477217554630000151e+00,-1.864197105170000215e-02,-3.366002347320000334e-03,-6.980345584449999460e-03,1.000000000000000000e+00
1.435363157000000056e+00,-2.589039464859999917e+00,-1.127559986869999947e-01,-9.481894898789999360e+00,-5.870234221220000000e-03,-1.139985863120000081e-02,-2.480378840120000140e-03,1.000000000000000000e+00
1.440419558999999960e+00,-2.638649298949999888e+00,-1.862234133570000172e-01,-9.461441308819999563e+00,8.987087756399999433e-03,-7.727247662840000357e-03,1.270760502670000014e-02,1.000000000000000000e+00
1.445365714000000024e+00,-2.537372990510000204e+00,-1.969170951979999917e-01,-9.442338548949999577e+00,-1.360578276220000132e-02,-1.596708223219999931e-02,-1.839780015869999820e-03,1.000000000000000000e+00
1.450221031999999965e+00,-2.560679631820000246e+00,-1.947690137869999838e-01,-9.471986668239999574e+00,-7.659656926990000315e-03,-1.176263298840000103e-02,-8.189605548979999455e-03,1.000000000000000000e+00
1.455349637000000085e+00,-2.615732825999999900e+00,-1.792596022269999922e-01,-9.478425176849999190e+00,-1.387518178670000060e-02,-9.371837601070000245e-03,-9.927682112899998117e-04,1.000000000000000000e+00
1.460406837999999929e+00,-2.541432202770000259e+00,-1.678536804630000046e-01,-9.510079959789999648e+00,-1.670778729020000117e-02,-5.750871263440000131e-03,-1.127709751020000055e-03,1.000000000000000000e+00
1.465324215000000097e+00,-2.601685595949999819e+00,-1.185846317750000045e-01,-9.473170909580000298e+00,-1.209776755420000072e-02,2.542147412900000025e-03,3.683503950010000218e-03,1.000000000000000000e+00
1.470315166000000007e+00,-2.538093413739999971e+00,-9.960710571299999372e-02,-9.461452414740000094e+00,-5.541586782779999928e-03,-2.215133048590000285e-03,-1.794166862959999933e-03,1.000000000000000000e+00
1.475393017999999890e+00,-2.586507316040000060e+00,-1.018137580450000079e-01,-9.453439788680000788e+00,-1.403032336380000047e-03,-6.147593259810000578e-03,2.764941425989999712e-03,1.000000000000000000e+00
1.480370039999999943e+00,-2.594015791969999984e+00,-8.883092408679998941e-02,-9.466556459879999608e+00,-9.574852883819999841e-03,-7.034661713990000148e-03,9.410989470779999866e-03,1.000000000000000000e+00
1.485282672000000082e+00,-2.591021870850000131e+00,-1.265419200559999846e-01,-9.433535649289998659e+00,-1.324632018799999991e-02,5.238010548060000569e-03,5.115615203979999998e-03,1.000000000000000000e+00
1.490405629000000065e+00,-2.539102298520000023e+00,-1.590353457729999920e-01,-9.452906704710001051e+00,-4.650918301189999569e-03,-1.207743678240000111e-02,4.232611507179999226e-03,1.000000000000000000e+00
1.495388415999999943e+00,-2.560001878690000066e+00,-1.527986250739999941e-01,-9.436260690339999258e+00,-2.043188177049999957e-02,-1.228856854139999920e-02,-6.660761311649999496e-03,1.000000000000000000e+00
1.500357278000000072e+00,-2.606718913940000437e+00,-1.386218868900000178e-01,-9.449350473539999129e+00,-9.334507049060000554e-04,-1.238089147960000011e-02,3.922567702829999996e-03,1.000000000000000000e+00
1.505444529000000031e+00,-2.561166246290000004e+00,-9.946936860960001181e-02,-9.453718605619998883e+00,-1.383780036120000126e-02,-4.806231707329999478e-03,1.367263030259999819e-04,1.000000000000000000e+00
1.510398871000000032e+00,-2.568305888909999890e+00,-1.518305746259999978e-01,-9.456895482089999305e+00,-1.726385019720000011e-02,8.801145479079999431e-03,-4.447619430720000018e-04,1.000000000000000000e+00
1.515318007000000078e+00,-2.594460320870000114e+00,-2.173086893089999916e-01,-9.471375842860000560e+00,-1.398140680979999793e-03,2.955606672909999802e-03,2.599293133239999679e-03,1.000000000000000000e+00
1.520266479000000004e+00,-2.567943485340000276e+00,-1.305179018810000147e-01,-9.465583230930000980e+00,-2.204645238820000103e-02,1.593492925170000027e-03,5.046548321839999622e-03,1.000000000000000000e+00
1.525373650999999997e+00,-2.559210436049999871e+00,-8.066944587049999782e-02,-9.486809558839999212e+00,-3.267792926640000458e-04,1.346878707409999802e-04,-7.559247314930000322e-03,1.000000000000000000e+00
1.530165014000000046e+00,-2.557587218759999725e+00,-1.660130392979999869e-01,-9.444963052230001210e+00,-1.029596384610000082e-02,-1.863691955800000216e-02,-1.187273580579999849e-02,1.000000000000000000e+00
1.535254440999999970e+00,-2.603591429570000226e+00,-1.624450628849999911e-01,-9.449447504169999235e+00,-7.681526709350000766e-03,-1.860580407079999834e-03,1.799689838659999886e-03,1.000000000000000000e+00
1.540287602999999894e+00,-2.560539054299999950e+00,-1.103532757929999997e-01,-9.473948908220000575e+00,-5.532374605539999712e-03,6.164470687509999471e-03,-1.814200892109999776e-03,1.000000000000000000e+00
1.545108654000000081e+00,-2.599066937879999983e+00,-1.719986530469999886e-01,-9.447442594089999091e+00,-9.062665514649998963e-03,-3.690949175509999989e-03,1.740824989969999917e-02,1.000000000000000000e+00
1.550165495999999976e+00,-2.550999657059999759e+00,-1.294260149910000102e-01,-9.476362983619999625e+00,-5.495007615539999717e-03,-1.129820570349999997e-02,1.182192564010000127e-02,1.000000000000000000e+00
1.554957603000000077e+00,-2.538225515690000211e+00,-6.040851066819999393e-02,-9.485527702329999755e+00,-1.589003205299999860e-02,-4.355349577959999850e-03,-1.558398175979999745e-02,1.000000000000000000e+00
1.559994713000000033e+00,-2.627570563309999496e+00,-1.079620241419999987e-01,-9.470528286120000416e+00,-1.264334097499999858e-02,-7.406923919920000571e-03,1.744575612249999949e-02,1.000000000000000000e+00
1.564974485000000026e+00,-2.537034844599999950e+00,-1.164535014980000033e-01,-9.490672079480001244e+00,-1.524820458140000064e-02,1.034773886200000001e-03,2.994223264980000031e-03,1.000000000000000000e+00
1.569954961999999954e+00,-2.626488905550000030e+00,-1.054285510090000044e-01,-9.470483277930000554e+00,-3.514163428920000047e-03,-1.295390073210000124e-02,1.353138219570000113e-02,1.000000000000000000e+00
1.574947083999999942e+00,-2.516719494059999729e+00,-1.721144249130000248e-01,-9.458352110639998145e+00,-1.235186774279999934e-02,6.515079177919999923e-03,-6.199993193149999464e-03,1.000000000000000000e+00
1.580170450000000004e+00,-2.572698570910000093e+00,-1.432795034369999942e-01,-9.422927161509999650e+00,-2.955892705359999795e-04,-9.672659449280000474e-03,5.338027141989999148e-03,1.000000000000000000e+00
1.585190333999999979e+00,-2.515672907619999954e+00,-1.404417957930000072e-01,-9.496481642539999157e+00,2.284924965349999833e-03,1.101380214099999776e-03,1.141112996269999990e-03,1.000000000000000000e+00
1.590163372999999991e+00,-2.515655956479999844e+00,-9.396761112189998266e-02,-9.488348604969999656e+00,1.718865823929999832e-04,-9.315064176920000855e-03,-5.110759288069999587e-03,1.000000000000000000e+00
1.595096314999999931e+00,-2.589270351009999693e+00,-1.446017741500000009e-01,-9.446215098119999709e+00,-5.063213873650000002e-03,-2.571646589790000173e-03,5.071665160359999959e-03,1.000000000000000000e+00
1.600272211000000055e+00,-2.556637955209999813e+00,-1.280670563970000009e-01,-9.452795645549999293e+00,3.195963567119999849e-03,2.466510050000000117e-03,7.283972576259999457e-03,1.000000000000000000e+00
1.605392198000000104e+00,-2.510088093219999816e+00,-1.173230691400000136e-01,-9.435857954760001221e+00,9.866984561089999634e-03,-1.565416157249999857e-02,1.125577604400000101e-03,1.000000000000000000e+00
1.610307704000000006e+00,-2.514941962990000057e+00,-1.605078477439999818e-01,-9.476223282889998600e+00,-1.759484969079999975e-02,-1.437275670470000016e-02,-5.289553664619999667e-04,1.000000000000000000e+00
1.615212330000000085e+00,-2.470642802540000016e+00,-1.901836404910000056e-01,-9.464415940720000364e+00,-8.696325123309998906e-03,-2.042433433229999887e-02,-1.889494247729999951e-02,1.000000000000000000e+00
1.620260754000000025e+00,-2.651721838749999893e+00,-2.714833653559999838e-01,-9.415634666419999022e+00,5.915063084100000102e-04,-8.946586400270000600e-03,5.047149024899999503e-03,1.000000000000000000e+00
1.625375548000000059e+00,-2.516433955120000121e+00,-1.753454061910000028e-01,-9.417874554299999090e+00,-1.806820370259999697e-02,-1.609001308680000145e-02,-1.296668685970000026e-02,1.000000000000000000e+00
1.630233094000000049e+00,-2.665708278519999919e+00,-7.924274666880000428e-02,-9.477212878450000488e+00,-7.125141564760000467e-04,-1.432303991170000117e-02,6.791252642869999648e-03,1.000000000000000000e+00
1.635308374999999925e+00,-2.607317172090000135e+00,-7.414956998200000760e-02,-9.442378880960001553e+00,-9.448135271670000598e-03,-1.877347752449999921e-02,-8.010291494429999659e-03,1.000000000000000000e+00
1.640270101000000036e+00,-2.580672910790000163e+00,-1.504199954419999929e-01,-9.431821246589999319e+00,-9.471924044190000239e-03,-2.644306980069999896e-02,-2.845273818820000244e-03,1.000000000000000000e+00
1.645114380000000098e+00,-2.569037125799999988e+00,-7.067343200369999301e-02,-9.420818791060000308e+00,1.273286063220000104e-02,-1.903424412009999817e-02,2.545901807030000272e-03,1.000000000000000000e+00
1.650216761000000032e+00,-2.522987322279999667e+00,-6.910700467089998800e-02,-9.367815515140000215e+00,-8.746912702920000768e-03,-2.482970058920000098e-02,-3.860410768539999753e-03,1.000000000000000000e+00
1.655266133999999889e+00,-2.493238372970000061e+00,-1.650164477430000054e-01,-9.433065693689998810e+00,-1.084406673910000111e-02,-1.477304007860000094e-02,1.134066609670000012e-03,1.000000000000000000e+00
1.660339723999999961e+00,-2.538424545389999842e+00,-7.617128506789999642e-02,-9.499960132310000915e+00,8.763634599750000712e-03,-9.947060607370000404e-03,-1.309887971730000098e-03,1.000000000000000000e+00
1.665266039999999892e+00,-2.537362176859999874e+00,-1.069022859560000011e-01,-9.472637825619999674e+00,8.820309303700001047e-03,-2.660280652340000010e-02,1.592626562339999850e-03,1.000000000000000000e+00
1.670228950999999906e+00,-2.668985108239999793e+00,-2.877752416630000032e-02,-9.438031207139999879e+00,1.399490702899999946e-02,-9.991790167989999041e-03,-9.112536208700000497e-04,1.000000000000000000e+00
1.675425002000000108e+00,-2.570557759490000205e+00,-6.605935777040000678e-02,-9.454260457410001095e+00,-5.170853808520000511e-03,-1.523812115189999983e-02,-1.549414824689999970e-02,1.000000000000000000e+00
1.680220840999999909e+00,-2.651036486829999816e+00,-1.149488416890000059e-01,-9.476025129969999128e+00,4.628277849409999888e-03,-3.836032748219999483e-02,1.375509658829999907e-03,1.000000000000000000e+00
1.685190983999999892e+00,-2.547824241899999897e+00,-1.519704397550000197e-01,-9.473559616639999348e+00,7.916753529570000380e-04,-1.651142025369999695e-03,-1.028290390970000058e-02,1.000000000000000000e+00
1.690251017000000022e+00,-2.590187465850000148e+00,-2.540218516140000382e-01,-9.447621457789999511e+00,-1.482859533279999933e-02,-1.617641374470000018e-02,-2.973746508359999697e-03,1.000000000000000000e+00
1.695197856000000058e+00,-2.655348797070000266e+00,-3.417210317239999795e-01,-9.436781499339998547e+00,-9.328689775429998892e-04,-3.686223924160000193e-02,5.133989267049999562e-03,1.000000000000000000e+00
1.700423782000000106e+00,-2.566965580220000209e+00,-2.861427359579999941e-01,-9.451901327060001634e+00,-5.152387078850000773e-03,-2.831993158909999839e-03,-3.939338028430000235e-03,1.000000000000000000e+00
1.705343320999999968e+00,-2.592283561349999932e+00,-6.716957946809999636e-02,-9.448077969380001662e+00,-1.861179992559999774e-02,-1.283690519629999971e-02,-1.110592950139999840e-02,1.000000000000000000e+00
1.710448160000000106e+00,-2.631925835909999734e+00,-2.636569095140000457e-02,-9.418854212979999474e+00,2.187076490369999852e-03,-1.320150587710000080e-02,-1.354550756509999981e-02,1.000000000000000000e+00
1.715226278000000049e+00,-2.574632753850000011e+00,-8.309168631510001346e-02,-9.484893496079999764e+00,9.147179313000000991e-03,-3.463194239880000146e-03,-9.764699265360001282e-03,1.000000000000000000e+00
1.720367414999999900e+00,-2.615335643369999907e+00,-6.488720415189999646e-02,-9.462200018239999011e+00,1.720369094980000015e-03,-5.735887214539999758e-03,-8.840910159049999301e-03,1.000000000000000000e+00
1.725299737000000055e+00,-2.640915198050000079e+00,-2.098082870839999836e-02,-9.469973574850000020e+00,-1.354050938970000149e-03,-6.958124693479998679e-03,1.035634707660000077e-02,1.000000000000000000e+00
1.730247086000000101e+00,-2.622486976430000283e+00,-9.222096838389999551e-02,-9.472975679269998395e+00,1.486868225039999873e-02,-5.365089979020001322e-03,-1.785326981920000011e-03,1.000000000000000000e+00
1.735258224000000071e+00,-2.609690623229999673e+00,-1.469791708060000091e-01,-9.471817156889999367e+00,1.844707503909999782e-02,-6.875547580420000339e-03,-1.296926569189999975e-02,1.000000000000000000e+00
1.740427801999999913e+00,-2.598939512109999850e+00,-6.740235161090001037e-02,-9.457648346280000951e+00,-1.932153478260000218e-03,9.079652838409999968e-03,4.593044519420000187e-03,1.000000000000000000e+00
1.745311524999999975e+00,-2.585328335389999843e+00,-1.080880799410000037e-01,-9.496002334589999094e+00,1.127923093739999910e-02,1.235441118479999913e-02,2.627188106999999925e-03,1.000000000000000000e+00
1.750349732000000103e+00,-2.559111067329999933e+00,-1.052917546200000110e-01,-9.454762561709999957e+00,2.716504503040000074e-03,-2.361800335349999863e-02,-4.084355197849999855e-03,1.000000000000000000e+00
1.755231517999999991e+00,-2.582951084859999913e+00,-1.482506977120000013e-01,-9.474466794610000520e+00,5.292941816149999805e-03,-4.233273677530000056e-03,-3.294580150400000258e-03,1.000000000000000000e+00
1.760237089999999949e+00,-2.569715463450000126e+00,-1.492673913410000053e-01,-9.453508762260000253e+00,6.207869388160000210e-03,-8.825620636340000824e-03,-8.011581376189999548e-03,1.000000000000000000e+00
1.765293492999999936e+00,-2.627821907720000016e+00,-1.111402340530000116e-01,-9.453277876110000477e+00,3.487186506390000003e-03,-1.972809992729999962e-02,8.062488399450000454e-03,1.000000000000000000e+00
1.770230226000000018e+00,-2.601308579329999926e+00,-1.299504224580000089e-01,-9.434751454820000660e+00,1.480467896910000157e-02,-1.154168695210000019e-02,1.947461860250000081e-03,1.000000000000000000e+00
1.775461597999999919e+00,-2.529038585149999907e+00,-2.466566931399999940e-01,-9.436131511000001026e+00,3.742950037119999879e-03,9.281086735430000775e-03,-2.306271344419999828e-02,1.000000000000000000e+00
1.780303160999999967e+00,-2.548633220190000159e+00,-1.801845533179999848e-01,-9.420913483599999694e+00,4.683975712400000263e-04,-2.020881278440000203e-03,3.056288696829999947e-04,1.000000000000000000e+00
1.785308750000000000e+00,-2.546113054070000103e+00,-2.432853352769999977e-01,-9.436536000149999381e+00,2.534948987889999814e-03,-1.250305213030000057e-02,1.147840917110000067e-02,1.000000000000000000e+00
1.790424852999999983e+00,-2.538970488839999984e+00,-2.196795100939999967e-01,-9.471485148450000224e+00,-6.190616637470000745e-03,4.190329927950000276e-04,2.071938244630000016e-03,1.000000000000000000e+00
1.795405560000000067e+00,-2.559068981750000304e+00,-1.347615034009999879e-01,-9.425055990229999736e+00,-4.914610180999999522e-03,-2.902058186010000266e-03,-6.083575077349999589e-03,1.000000000000000000e+00
1.800325002999999979e+00,-2.566182028630000111e+00,-7.285803233410001467e-02,-9.417285940750000250e+00,7.514675613489999427e-03,-2.782747335730000049e-02,-8.259756490589999223e-03,1.000000000000000000e+00
1.805421656999999902e+00,-2.670130478879999991e+00,-7.994343315089999513e-02,-9.439133615430000290e+00,3.359969239679999782e-03,-3.178429324180000095e-03,8.309750817720000515e-03,1.000000000000000000e+00
1.810353561999999972e+00,-2.631150759880000134e+00,-1.315189595490000030e-01,-9.494417695750000163e+00,-3.186497837309999921e-03,-9.957952424880000056e-03,-2.208010526369999938e-03,1.000000000000000000e+00
1.815304774999999982e+00,-2.592555656290000066e+00,-1.954171754969999952e-01,-9.433504669630000450e+00,-5.481240339580000474e-03,-5.965004209429999697e-03,-4.781897179780000146e-03,1.000000000000000000e+00
1.820322693999999908e+00,-2.598847449910000051e+00,-1.669787790579999875e-01,-9.447897936639998662e+00,-3.182888904120000041e-04,-1.386762317269999920e-02,-6.373642943799999634e-03,1.000000000000000000e+00
1.825282953000000097e+00,-2.631870598590000387e+00,-1.252445280560000040e-01,-9.440711240009999727e+00,-1.048780325800000024e-02,-5.192575976249999732e-03,3.124413779010000100e-03,1.000000000000000000e+00
1.830371691999999939e+00,-2.582344643399999917e+00,-9.892115100919998683e-02,-9.419651500840000580e+00,4.699126817290000084e-03,-5.618923343720000872e-03,-8.722345344720000213e-03,1.000000000000000000e+00
1.835347287999999910e+00,-2.612707048439999902e+00,-1.538032720720000079e-01,-9.450634668130000193e+00,-1.420425157990000062e-02,2.540983725340000433e-03,-1.961371488869999985e-02,1.000000000000000000e+00
1.840489360000000074e+00,-2.640537304650000028e+00,-1.479369373220000006e-01,-9.440148345429999921e+00,-1.185087021440000069e-02,-8.669776841999999803e-03,8.149000816050000137e-03,1.000000000000000000e+00
1.845246492000000016e+00,-2.588825822110000008e+00,-1.621285442809999866e-01,-9.446113391309999940e+00,-4.718670621510000045e-03,-1.213903259489999831e-02,-9.490637108680000447e-03,1.000000000000000000e+00
1.850231873000000027e+00,-2.636348913049999965e+00,-1.825213987679999983e-01,-9.460655711399999390e+00,-5.838255863639999453e-03,1.015454530720000074e-02,3.621839219699999474e-03,1.000000000000000000e+00
1.855477559999999970e+00,-2.572992293159999999e+00,-1.707324690360000063e-01,-9.464883558230001270e+00,-2.350308373570000192e-02,2.141541987659999549e-02,-5.717366933819999393e-03,1.000000000000000000e+00
1.860317317000000026e+00,-2.648547884890000148e+00,-9.805166556510001852e-02,-9.452180728520000130e+00,2.206472912800000203e-03,-1.256280485539999943e-02,2.164515666659999615e-02,1.000000000000000000e+00
1.865349466999999928e+00,-2.552679865240000012e+00,-9.336202817780001051e-02,-9.451616664899999520e+00,-7.462020963430000473e-03,-4.326423630119999829e-03,1.053611654790000129e-02,1.000000000000000000e+00
1.870364724000000090e+00,-2.552204648940000098e+00,-9.818924740489998193e-02,-9.462141566050000563e+00,-7.539751939479999790e-03,-1.086140517150000102e-03,-3.921014256780000484e-03,1.000000000000000000e+00
1.875384093000000085e+00,-2.616592657700000046e+00,-1.300087102499999925e-01,-9.442955804060000347e+00,-8.867776021360001398e-03,1.174433808770000004e-02,-4.084857180709999813e-03,1.000000000000000000e+00
1.880372187000000084e+00,-2.622397252319999872e+00,-1.038699142569999984e-01,-9.437785707949998937e+00,-1.880229637029999859e-02,8.043938316400000427e-03,9.303828701379999316e-03,1.000000000000000000e+00
1.885343433000000068e+00,-2.592150582619999977e+00,-1.064124657459999956e-01,-9.464643904260000795e+00,-1.734161190689999937e-02,-3.933133091780000382e-03,-2.548939082770000121e-03,1.000000000000000000e+00
1.890314902999999935e+00,-2.648677648750000113e+00,-1.264888564280000072e-01,-9.454493097120000300e+00,-3.092219121750000056e-03,3.418099135159999909e-03,6.338365376000000551e-03,1.000000000000000000e+00
1.895270771999999937e+00,-2.613203015259999873e+00,-1.276380995280000097e-01,-9.441921200319999485e+00,-1.813977397979999948e-02,-7.423296105120000613e-03,6.907942704859999609e-03,1.000000000000000000e+00
1.900357475999999934e+00,-2.588425132359999825e+00,-1.943160823869999887e-01,-9.448671843619999677e+00,-1.482968684289999971e-02,7.033427245909999910e-03,-3.884969744830000030e-03,1.000000000000000000e+00
1.905469201999999918e+00,-2.613004862340000400e+00,-1.694628692250000068e-01,-9.462053303239999380e+00,-1.237150374800000119e-02,8.578081615269999433e-04,-7.399667520080000296e-04,1.000000000000000000e+00
1.910463578999999967e+00,-2.643127905659999666e+00,-1.292859580669999953e-01,-9.494429970710001498e+00,1.910985214640000245e-03,-8.344796951860001871e-04,1.561024505649999915e-02,1.000000000000000000e+00
1.915314592000000093e+00,-2.505489951780000002e+00,-1.161748032870000003e-01,-9.466454753069999839e+00,4.136979114259999729e-04,1.710952259599999876e-03,-7.567556574939998844e-03,1.000000000000000000e+00
1.920243193999999987e+00,-2.602929166270000039e+00,-7.789042787760000475e-02,-9.454999877600000602e+00,-1.514375582339999929e-02,-1.504941494200000025e-03,1.574599416929999950e-03,1.000000000000000000e+00
1.925434741999999977e+00,-2.592469439309999846e+00,-1.143674616049999981e-01,-9.427219305750000444e+00,-2.063818974420000233e-03,-3.866199403999999971e-04,-1.683765091000000158e-02,1.000000000000000000e+00
1.930266999000000094e+00,-2.688780818809999751e+00,-1.868178355860000139e-01,-9.419227137949999218e+00,-7.217110600319999111e-03,-3.240944119170000200e-03,8.389589376750000368e-03,1.000000000000000000e+00
1.935221279999999933e+00,-2.583693719920000298e+00,-1.875721976179999806e-01,-9.489594805639999464e+00,-1.099174283439999927e-02,3.818950150159999661e-03,6.725436542180000333e-04,1.000000000000000000e+00
1.940387486000000106e+00,-2.566555245850000055e+00,-6.349355783650000029e-02,-9.439672544610001381e+00,-7.323768455540000284e-03,4.215696360920000163e-03,-7.370328530670000773e-03,1.000000000000000000e+00
1.945409991000000005e+00,-2.639135036639999932e+00,-4.347785239969999271e-02,-9.473686457889998636e+00,-3.019580151890000150e-03,8.364488370719999621e-03,8.898970670999999458e-03,1.000000000000000000e+00
1.950307352999999910e+00,-2.556823833170000171e+00,-4.907601946669999660e-02,-9.430874905650000528e+00,-7.749299984430000916e-04,1.187273766849999967e-02,-1.373354904349999989e-02,1.000000000000000000e+00
1.955375437000000050e+00,-2.646471078609999861e+00,-8.140908525670000062e-02,-9.460168804669999432e+00,3.104629926379999863e-03,2.771266736090000028e-04,4.152126610280000053e-03,1.000000000000000000e+00
1.960423830999999950e+00,-2.580043380719999835e+00,-3.956598531879999825e-02,-9.430983042200001165e+00,4.421258345249999664e-04,-1.215992029760000134e-02,-5.954899825159998966e-03,1.000000000000000000e+00
1.965379141000000107e+00,-2.643850082459999751e+00,-9.558123859730000005e-02,-9.455957908980000326e+00,1.213573850689999949e-02,1.254066824909999892e-02,1.334896543989999877e-03,1.000000000000000000e+00
1.970312993999999929e+00,-2.631827051709999754e+00,-8.586830228839999191e-02,-9.435579137810000461e+00,2.700389595700000266e-03,1.037566270679999951e-02,-4.478434566409999302e-04,1.000000000000000000e+00
1.975341752000000062e+00,-2.595033444579999848e+00,-8.040323268239998877e-02,-9.466030974700000655e+00,7.136519066989999507e-03,1.761501654979999876e-03,1.012386567889999971e-02,1.000000000000000000e+00
1.980198329999999896e+00,-2.576640878800000145e+00,-1.370495412730000084e-01,-9.429920381400000551e+00,1.651416346429999960e-02,1.499080844220000014e-02,-8.006176911290000323e-03,1.000000000000000000e+00
1.985284720999999974e+00,-2.637980313640000407e+00,-1.813446831390000125e-01,-9.459646242099999824e+00,-3.592592431230000414e-03,2.491916157309999671e-02,9.002757258709997989e-03,1.000000000000000000e+00
1.990296518999999931e+00,-2.570283034209999595e+00,-2.028099708960000025e-01,-9.448775303999999764e+00,6.022001151000000614e-03,1.017324812710000172e-02,1.268430054190000135e-02,1.000000000000000000e+00
1.995316523000000064e+00,-2.563066234689999945e+00,-1.870070380149999878e-01,-9.430694288379999790e+00,-3.614239161829999481e-03,-9.277863427999999716e-04,-1.339201442899999941e-02,1.000000000000000000e+00
2.000189852000000101e+00,-2.628593476619999869e+00,-1.766882904340000005e-01,-9.464908108150000388e+00,4.990098532290000374e-03,2.391941845420000184e-02,6.793130189180000313e-03,1.000000000000000000e+00
2.005436136000000147e+00,-2.580733116549999817e+00,-6.981275092060000576e-02,-9.483690550029999500e+00,7.160637993370000051e-03,1.749899238350000052e-02,4.647550173099999904e-03,1.000000000000000000e+00
2.010387072999999969e+00,-2.603579154609999780e+00,-4.699081982359999687e-02,-9.464325924349999752e+00,4.996143979949999844e-05,1.202475279570000034e-02,6.433271802959999661e-03,1.000000000000000000e+00
2.015310062999999818e+00,-2.601127962059999632e+00,-6.206228292430000099e-02,-9.430041961949999774e+00,1.044365763660000043e-02,1.426879502829999855e-02,-6.526312790810000208e-03,1.000000000000000000e+00
2.020242222999999893e+00,-2.616215933340000355e+00,-1.362419968830000105e-01,-9.460691367239999039e+00,8.831465616819999739e-03,8.162126876410000578e-03,1.195457205179999843e-02,1.000000000000000000e+00
2.025287222000000220e+00,-2.529288468259999867e+00,-1.376709793729999909e-01,-9.472533780720000962e+00,9.429054334760000183e-03,2.421025745570000096e-02,5.610710941260001021e-03,1.000000000000000000e+00
2.030338570000000065e+00,-2.542297295170000027e+00,-1.171463334669999995e-01,-9.440274602149999694e+00,1.270002219830000017e-03,-1.523695886140000177e-03,2.448434242980000036e-03,1.000000000000000000e+00
2.035262284999999949e+00,-2.592415078779999771e+00,-1.610860312250000093e-01,-9.447239180469999553e+00,1.925275661050000059e-02,2.524229697880000112e-03,6.167428568010000986e-03,1.000000000000000000e+00
2.040474285999999804e+00,-2.596588565069999799e+00,-1.323300658700000132e-01,-9.431358889769999365e+00,1.482488587499999899e-02,5.445161834359999939e-03,1.902614021670000167e-03,1.000000000000000000e+00
2.045321235999999931e+00,-2.661959155119999920e+00,-1.146597499489999950e-01,-9.468443881060000678e+00,6.379399914290000487e-03,6.348232273010000334e-04,9.708959609270000415e-03,1.000000000000000000e+00
2.050218173999999838e+00,-2.570247378369999947e+00,-1.243429943719999986e-01,-9.459624614790000052e+00,4.050437360999999473e-03,1.476040109990000085e-02,5.461733788249999860e-03,1.000000000000000000e+00
2.055359998000000132e+00,-2.576062494389999902e+00,-1.835376448719999998e-01,-9.438158048389999166e+00,8.699816651639999746e-03,-1.427575014529999797e-02,-9.090023115279999982e-03,1.000000000000000000e+00
2.060370622999999846e+00,-2.577387313250000034e+00,-1.707737691599999774e-01,-9.460740467080000826e+00,-4.872272722420000098e-03,1.462677679960000011e-02,-5.201254039999999614e-03,1.000000000000000000e+00
2.065346246999999913e+00,-2.548070033350000152e+00,-1.421565820879999997e-01,-9.447029921629999549e+00,-1.005285419520000195e-02,8.188880980009999311e-03,-9.295651689170000842e-03,1.000000000000000000e+00
2.070349392999999871e+00,-2.570615919420000228e+00,-1.673445436300000089e-01,-9.467394664269999538e+00,-1.361291017379999933e-02,8.083203807469999461e-03,2.749160164969999959e-03,1.000000000000000000e+00
2.075407071999999964e+00,-2.545994396120000225e+00,-1.836855837090000110e-01,-9.435940372339999271e+00,-9.637073380869999725e-04,2.007341012359999902e-03,-3.339813323690000221e-03,1.000000000000000000e+00
2.080339652000000150e+00,-2.551623049659999865e+00,-2.123223522639999805e-01,-9.433084398389999237e+00,-3.149963682520000134e-03,6.606272421779999654e-03,9.681598283350001041e-03,1.000000000000000000e+00
2.085337269000000049e+00,-2.504758130369999947e+00,-1.652055405739999983e-01,-9.479264550279999924e+00,-8.398991078139999428e-03,2.384534664450000188e-02,7.673545740539999480e-03,1.000000000000000000e+00
2.090301776000000000e+00,-2.512854343070000329e+00,-7.804563670560001054e-02,-9.456640630539999037e+00,-4.618776496499999752e-03,-2.241460140789999691e-03,-4.413307178770000099e-04,1.000000000000000000e+00
2.095322664999999862e+00,-2.595550454190000078e+00,-1.063761979890000126e-01,-9.452570604630000872e+00,-9.471566416320000015e-03,-3.925404045730000041e-03,7.758622057740000022e-03,1.000000000000000000e+00
2.100337984999999907e+00,-2.569244923329999875e+00,-1.874238203889999899e-01,-9.468523960560000674e+00,-7.855664938690000779e-03,1.324719563129999993e-02,6.127797067169999529e-03,1.000000000000000000e+00
2.105447332999999865e+00,-2.523822896330000010e+00,-1.325783963409999933e-01,-9.442277758670000409e+00,-2.642335370179999931e-03,5.391007289289999902e-05,-4.753489047289999672e-03,1.000000000000000000e+00
2.110455867999999846e+00,-2.595695123360000078e+00,-7.191116623830000332e-02,-9.458256249049998843e+00,-1.173425372689999857e-02,4.254813771689999746e-03,7.448049727829999384e-04,1.000000000000000000e+00
2.115339710000000206e+00,-2.607845287620000008e+00,-3.401198847040000361e-02,-9.485389170639999534e+00,-1.719658263030000162e-02,1.244798023250000100e-02,2.341000596060000168e-03,1.000000000000000000e+00
2.120261961000000195e+00,-2.585743345930000103e+00,-7.703645052989999131e-02,-9.502247950990000191e+00,-6.065673194829999948e-03,9.819531813260000408e-03,8.317423053089998764e-04,1.000000000000000000e+00
2.125334153999999920e+00,-2.601382521349999699e+00,-1.216841412929999949e-01,-9.443140512979999457e+00,1.437495369460000012e-02,1.395421475170000036e-02,1.523992745210000100e-03,1.000000000000000000e+00
2.130239015999999985e+00,-2.570935945159999569e+00,-1.789907586900000291e-01,-9.461062538640000241e+00,-1.233694981780000116e-02,6.771995685990000319e-03,-5.266275722530000189e-03,1.000000000000000000e+00
2.135318890000000192e+00,-2.600114401109999918e+00,-1.864202511030000065e-01,-9.481070138399999792e+00,1.873410772529999872e-03,2.614104188979999958e-03,1.981483958659999850e-02,1.000000000000000000e+00
2.140438420999999813e+00,-2.571599377500000116e+00,-1.321529466039999823e-01,-9.413393024970000411e+00,-7.970202714200000371e-03,-6.402086932210000574e-03,8.326170034709999557e-03,1.000000000000000000e+00
2.145430515000000149e+00,-2.553299166179999968e+00,-1.007621483660000039e-01,-9.482640164199999333e+00,2.539115492250000085e-03,3.402163274589999759e-03,5.358553491529999269e-03,1.000000000000000000e+00
2.150302105000000186e+00,-2.568542035759999731e+00,-4.338085373209999568e-02,-9.458560200430000009e+00,-3.419400425629999952e-03,1.547482237220000091e-02,-9.212950244550001258e-04,1.000000000000000000e+00
2.155326306000000081e+00,-2.579121297439999960e+00,-9.555314501389998438e-02,-9.441354798609999932e+00,-2.621740568430000126e-03,3.342535346750000018e-03,-4.043616820130000247e-03,1.000000000000000000e+00
2.160295606000000035e+00,-2.562347272770000295e+00,-1.870833546550000059e-01,-9.429142382760000274e+00,1.242742128669999981e-02,-9.267382323739999442e-03,-9.133984334770001157e-03,1.000000000000000000e+00
2.165250003000000145e+00,-2.556101656379999643e+00,-1.801652640960000051e-01,-9.437540793280000173e+00,1.531261671329999831e-02,1.056673377750000017e-02,3.379960777239999787e-03,1.000000000000000000e+00
2.170318308999999779e+00,-2.573649588029999880e+00,-1.311839280419999920e-01,-9.421763378430000557e+00,-4.831014201050000227e-03,2.584752161060000029e-03,1.399885024879999988e-02,1.000000000000000000e+00
2.175361382000000177e+00,-2.510860538899999828e+00,-8.967779584030000084e-02,-9.428571304880000170e+00,4.525419790300000064e-03,-1.046204101289999883e-02,2.085663145410000200e-03,1.000000000000000000e+00
2.180298118000000063e+00,-2.556782916640000014e+00,-7.221269276839999141e-02,-9.475017414229998991e+00,1.101010851560000128e-02,6.770705804229999562e-03,1.000540424139999968e-02,1.000000000000000000e+00
2.185190270000000101e+00,-2.547682203079999930e+00,-1.078730580839999953e-01,-9.477937685589999717e+00,-4.591399338100000602e-03,1.411295495930000102e-03,6.275747902689999928e-03,1.000000000000000000e+00
2.190329111000000051e+00,-2.624770995720000055e+00,-1.371900822550000121e-01,-9.453371984139998574e+00,-6.990942638370000080e-03,-2.097504027190000286e-02,1.236473862079999833e-02,1.000000000000000000e+00
2.195358016000000134e+00,-2.594213652629999700e+00,-1.433304481730000024e-01,-9.478200135919999880e+00,-3.294848138469999750e-03,-1.638950407510000179e-02,-2.642804756759999834e-04,1.000000000000000000e+00
2.200310029000000167e+00,-2.584924723020000314e+00,-5.751079819899999196e-02,-9.441769809149999304e+00,7.666261401029999742e-03,-3.730412572619999500e-06,2.038750564680000005e-03,1.000000000000000000e+00
2.205385259999999903e+00,-2.578269356779999910e+00,-6.113266935740000602e-02,-9.445495551669999656e+00,1.300859963520000027e-03,-6.642479449510000147e-03,3.963711671529999980e-03,1.000000000000000000e+00
2.210448462000000003e+00,-2.552512984240000282e+00,-9.204149276430000082e-02,-9.440695457909999533e+00,7.216740865260000935e-03,2.219034824519999956e-03,-3.830535104500000163e-03,1.000000000000000000e+00
2.215196365999999806e+00,-2.588839850639999884e+00,-1.648370177890000066e-01,-9.472100649999999789e+00,1.496337633579999937e-02,2.265612129120000030e-04,1.983046298849999896e-03,1.000000000000000000e+00
2.220274750999999824e+00,-2.571913558020000323e+00,-1.406354369360000023e-01,-9.431239647310000862e+00,1.004586648200000119e-02,-7.981210947040000975e-03,-9.117447771129999143e-03,1.000000000000000000e+00
2.225307653999999857e+00,-2.608631469559999694e+00,-1.644621748609999823e-01,-9.425791318769999094e+00,3.712599165739999870e-03,-3.003835678099999601e-03,1.051624026150000009e-02,1.000000000000000000e+00
2.230369077000000200e+00,-2.538561323509999745e+00,-1.660389774569999977e-01,-9.471073060519998421e+00,-1.251438725739999897e-02,5.482238717379999543e-03,-6.263837218279999508e-03,1.000000000000000000e+00
2.235336418999999797e+00,-2.593801272440000361e+00,-1.135628763570000060e-01,-9.462566513460000550e+00,1.831523608419999977e-03,-5.785899236800000345e-03,-4.196045920250000144e-03,1.000000000000000000e+00
2.240439111000000150e+00,-2.582842071530000005e+00,-1.125283365440000044e-01,-9.471553537510001064e+00,1.125652575869999896e-03,-1.108039636159999924e-02,3.261151490729999932e-03,1.000000000000000000e+00
2.245346985999999934e+00,-2.580804135959999801e+00,-1.170483347189999884e-01,-9.448539741669998548e+00,-7.342049386350000401e-03,-1.118795759979999797e-02,4.184380173679999766e-03,1.000000000000000000e+00
2.250240197000000109e+00,-2.553363171330000014e+00,-1.065518924829999964e-01,-9.464686574349999049e+00,-1.591325551270000166e-02,-4.530899226670000168e-03,9.403966832910000883e-04,1.000000000000000000e+00
2.255402491999999981e+00,-2.577659992710000125e+00,-1.696253115109999932e-01,-9.471185288719999207e+00,2.074875496329999999e-02,3.908631857480000284e-03,6.507020443680000370e-03,1.000000000000000000e+00
2.260335464000000183e+00,-2.542838270179999860e+00,-1.588411018420000098e-01,-9.463971119560000034e+00,-1.405090675690000160e-03,-1.095409039409999882e-02,-8.022516965870000669e-03,1.000000000000000000e+00
2.265317335000000210e+00,-2.588958216320000005e+00,-1.064417923049999909e-01,-9.463849539010000811e+00,-6.434825249020000720e-03,1.210923027250000034e-02,-7.756491191689999717e-03,1.000000000000000000e+00
2.270443906000000123e+00,-2.628443546750000248e+00,-8.030291411310000460e-02,-9.467593986229999814e+00,8.948886767030001660e-03,-2.095477655529999830e-02,1.224241033199999912e-02,1.000000000000000000e+00
2.275363580000000052e+00,-2.581593532769999921e+00,-1.221506902260000027e-01,-9.492357840610001318e+00,-5.727218464020000441e-03,-1.422913977880000107e-03,8.583740331229999451e-03,1.000000000000000000e+00
2.280345159999999982e+00,-2.574112821629999992e+00,-9.942846121050000208e-02,-9.481551784439998798e+00,6.192320026460000279e-03,7.576709613200000590e-04,-2.957424148920000193e-03,1.000000000000000000e+00
2.285326980999999869e+00,-2.580313137570000137e+00,-1.185437335089999933e-01,-9.485402614650000785e+00,1.228582812470000113e-03,-1.038921065629999987e-02,-4.179623443630000289e-03,1.000000000000000000e+00
2.290308872999999856e+00,-2.562565883960000068e+00,-1.065897037429999888e-01,-9.475002801189999602e+00,3.757602535190000034e-03,-9.916032664480000508e-03,-1.006676349790000015e-02,1.000000000000000000e+00
2.295283023000000089e+00,-2.595460145560000154e+00,-7.737171036619999720e-02,-9.407693936539999413e+00,-1.307875209020000211e-04,8.167565800249999841e-03,-1.165734790270000001e-02,1.000000000000000000e+00
2.300318755000000159e+00,-2.587501003249999876e+00,-1.634906264150000066e-01,-9.460886013030000541e+00,7.911566062830000402e-04,-1.432369556279999845e-02,-1.503916457299999884e-02,1.000000000000000000e+00
2.305397383999999938e+00,-2.607108205520000332e+00,-1.075348482389999888e-01,-9.449735673460001095e+00,9.653897956010000156e-03,3.570467233660000114e-03,-1.848314539529999877e-03,1.000000000000000000e+00
2.310395793000000086e+00,-2.553724698109999913e+00,-1.135330840059999985e-01,-9.451196978180000485e+00,-3.999750595539999960e-03,-1.056079007689999898e-02,-1.043630018829999964e-02,1.000000000000000000e+00
2.315251957000000083e+00,-2.629258662529999846e+00,-1.120021298459999981e-01,-9.419635718749999498e+00,4.594110418109999955e-03,1.478740014140000024e-03,9.784102439879999863e-03,1.000000000000000000e+00
2.320318482999999876e+00,-2.592077517379999918e+00,-1.514528730209999952e-01,-9.448735556509999967e+00,7.387352641669999928e-03,-1.156241539869999960e-02,3.360272618010000465e-03,1.000000000000000000e+00
2.325405657000000126e+00,-2.544349551529999864e+00,-1.864960380200000045e-01,-9.495017999730000824e+00,-9.850661270319999163e-03,-4.899653606120000018e-03,-6.400377023970000093e-03,1.000000000000000000e+00
2.330292489000000078e+00,-2.607976805040000290e+00,-9.796402381429999973e-02,-9.448267354469999546e+00,-1.129538659010000112e-02,-1.249140128490000036e-02,1.214392716069999855e-03,1.000000000000000000e+00
2.335232171999999995e+00,-2.612839734910000100e+00,-1.455096553759999967e-01,-9.452150333389999659e+00,1.077317725869999902e-02,-1.095725875350000121e-02,1.759909326210000241e-03,1.000000000000000000e+00
2.340246984999999835e+00,-2.585815534380000003e+00,-5.948820378580000484e-02,-9.405269924269999748e+00,2.231135219340000392e-02,-3.233701922000000069e-03,-7.648536935449999630e-03,1.000000000000000000e+00
2.345323249000000221e+00,-2.553114165000000213e+00,-1.015561391550000025e-01,-9.436166582310001161e+00,1.375386957079999771e-02,-8.855672553180000267e-03,-9.718249551950001314e-03,1.000000000000000000e+00
2.350281054999999952e+00,-2.586323483899999776e+00,-2.097908427589999791e-01,-9.436493330050000239e+00,-4.747273342219999396e-04,1.079899258910000173e-02,3.644278040160000252e-03,1.000000000000000000e+00
2.355316168999999960e+00,-2.546773271540000216e+00,-1.525425496869999842e-01,-9.417882153080000762e+00,1.472482737150000026e-02,1.044609956439999932e-02,-2.050233073530000061e-03,1.000000000000000000e+00
2.360241997999999786e+00,-2.600739839529999653e+00,-1.656480236439999976e-01,-9.440241284410001654e+00,-2.586144546509999546e-04,2.169417683039999867e-03,-4.772379063069999948e-03,1.000000000000000000e+00
2.365233943999999866e+00,-2.602263395830000103e+00,-1.883897245459999759e-01,-9.452309323339999736e+00,-7.910918793639998628e-04,-1.622533425689999878e-02,-1.430723234080000022e-03,1.000000000000000000e+00
2.370267757000000142e+00,-2.559925890840000218e+00,-1.385193124310000190e-01,-9.456655243589999316e+00,4.910520277920000197e-03,1.031528692689999936e-02,-1.255991682410000088e-02,1.000000000000000000e+00
2.375417885000000062e+00,-2.583723238279999723e+00,-3.221045547379999818e-02,-9.409407170199999726e+00,-3.722761059179999655e-03,-1.782594993709999895e-02,-1.671375520529999950e-02,1.000000000000000000e+00
2.380344250999999911e+00,-2.565767018090000295e+00,-1.410550597200000145e-01,-9.463403548809999677e+00,1.223846618089999977e-02,-3.334928536790000061e-03,-1.086531672629999917e-02,1.000000000000000000e+00
2.385272204000000063e+00,-2.613367558170000216e+00,-1.657500775129999993e-01,-9.442132212719998918e+00,-8.806956000629998990e-03,-9.191050194200000786e-03,5.048749037090000287e-03,1.000000000000000000e+00
2.390277063000000091e+00,-2.542886785499999913e+00,-1.979089923129999928e-01,-9.438900391189999795e+00,-7.271453738209999844e-03,-3.100732108579999733e-03,-4.862217698250000629e-03,1.000000000000000000e+00
2.395308330999999846e+00,-2.601521637559999878e+00,-1.341540572930000064e-01,-9.497560669949999479e+00,1.172550488259999990e-03,-8.605703711509999493e-03,1.068470533940000036e-02,1.000000000000000000e+00
2.400251388000000041e+00,-2.568847156179999924e+00,-9.814170020239999792e-02,-9.470790736450000580e+00,-7.855458185079999128e-03,-8.302254602310000717e-03,-4.125307314100000282e-03,1.000000000000000000e+00
2.405286604000000050e+00,-2.587801155240000206e+00,-1.469053566510000186e-01,-9.467082529580000738e+00,5.978973116730000072e-03,1.246724277729999804e-04,-5.397342145439999739e-03,1.000000000000000000e+00
2.410380375999999991e+00,-2.591625389699999893e+00,-1.812767142029999834e-01,-9.448082061030000034e+00,1.167072635139999870e-02,5.465501919390000109e-03,1.125544542450000090e-03,1.000000000000000000e+00
2.415302515000000039e+00,-2.581371998970000359e+00,-1.893635745460000019e-01,-9.423917926110000565e+00,-1.092524267729999944e-03,-1.088074408470000171e-02,-1.882816432039999960e-03,1.000000000000000000e+00
2.420205519000000027e+00,-2.586624512680000265e+00,-2.645285960479999976e-01,-9.450777291469998787e+00,-4.245209973310000093e-03,-7.079829927530000011e-03,-2.869706135239999834e-03,1.000000000000000000e+00
2.425365600000000121e+00,-2.578431853869999735e+00,-2.092927387769999981e-01,-9.520876663610000179e+00,-3.712586825710000298e-03,-1.355123426769999986e-02,8.631106466050000609e-04,1.000000000000000000e+00
2.430238473999999815e+00,-2.569519064100000083e+00,-1.973396588590000181e-02,-9.445708317639999407e+00,1.690763048830000014e-03,-2.237452194090000512e-02,-3.161766333510000315e-03,1.000000000000000000e+00
2.435268610000000056e+00,-2.592044491899999858e+00,-8.837570939889999311e-02,-9.415853862120000528e+00,-7.069434504960000337e-03,-7.436443120239999427e-03,-8.426452986900000164e-03,1.000000000000000000e+00
2.440380975000000063e+00,-2.599901050620000209e+00,-1.065356902669999939e-01,-9.450736374939999962e+00,-8.818239904939999957e-03,5.352823995049999471e-03,-7.444417104129999810e-03,1.000000000000000000e+00
2.445322726000000113e+00,-2.623429517979999570e+00,-1.409620111419999933e-01,-9.449983510739999204e+00,-3.961568698289999989e-03,-1.095173601060000015e-02,-3.288728185000000005e-03,1.000000000000000000e+00
2.450234017000000097e+00,-2.616939571440000112e+00,-1.610637280620000056e-01,-9.424423537550000063e+00,8.819784969089999871e-03,-1.374947838489999977e-02,1.207039132709999962e-02,1.000000000000000000e+00
2.455296067999999998e+00,-2.551519004759999820e+00,-1.783574657549999998e-01,-9.492703877569999449e+00,9.292494505639998723e-03,1.163071952759999915e-03,1.155228121210000050e-03,1.000000000000000000e+00
2.460372419000000033e+00,-2.576127960840000064e+00,-1.528308103109999871e-01,-9.430766184570000377e+00,-1.586576923729999958e-03,-5.661125294859999622e-03,1.254305941980000125e-03,1.000000000000000000e+00
2.465375535999999812e+00,-2.595223998719999869e+00,-1.196466897819999931e-01,-9.451968547079999894e+00,-9.167607873679999367e-03,-9.807297959920000668e-03,2.182832220570000200e-03,1.000000000000000000e+00
2.470332958000000190e+00,-2.602943779309999872e+00,-1.587390662400000041e-01,-9.437189495619998425e+00,8.276582695539999937e-03,-8.083670400079999777e-03,2.475627465170000385e-03,1.000000000000000000e+00
2.475293714999999839e+00,-2.530936235459999573e+00,-9.968003395189999061e-02,-9.461914771549999159e+00,9.866829961540000971e-03,8.123365696519999242e-04,-5.432049743829999756e-03,1.000000000000000000e+00
2.480283903000000123e+00,-2.623312029080000052e+00,-9.579212313530000023e-02,-9.456164829729999610e+00,7.954385946500000136e-04,-2.449297346170000236e-03,-4.633702803399999265e-03,1.000000000000000000e+00
2.485275328999999811e+00,-2.598368434220000189e+00,-6.865901887479999854e-02,-9.468087907230000155e+00,-1.775648212059999882e-03,-2.565023116770000222e-02,7.371029350910000789e-04,1.000000000000000000e+00
2.490257136999999954e+00,-2.597834181210000093e+00,-1.472092623679999990e-01,-9.476818326180000085e+00,1.616660133000000221e-02,8.295454084870000633e-03,1.515408745040000170e-03,1.000000000000000000e+00
2.495320174999999807e+00,-2.597711431620000067e+00,-1.278705839770000185e-01,-9.445637590489999624e+00,3.061925061050000188e-03,-1.058402564379999806e-02,-3.057531081140000152e-03,1.000000000000000000e+00
2.500198410999999954e+00,-2.617157598109999928e+00,-1.386077213670000030e-01,-9.451379933540000167e+00,1.103069074449999909e-02,-1.189662702379999833e-02,-2.526482567190000187e-04,1.000000000000000000e+00
2.505390805999999859e+00,-2.531133803859999976e+00,-1.589145506709999933e-01,-9.435181078410000310e+00,9.013476781549999498e-03,-9.415522217749999409e-03,-9.119482710959999142e-03,1.000000000000000000e+00
2.510457596000000180e+00,-2.600027307340000426e+00,-1.721885130629999816e-01,-9.466623679899999644e+00,2.828182885419999737e-03,-1.563062518839999915e-02,5.396080203350000180e-03,1.000000000000000000e+00
2.515287425999999993e+00,-2.597092715200000068e+00,-2.063279889539999801e-01,-9.443632680409999480e+00,2.509480714800000137e-02,-1.058876793829999913e-02,-3.796387696639999618e-03,1.000000000000000000e+00
2.520284058000000105e+00,-2.593838389580000126e+00,-2.311971668699999982e-01,-9.423687039969999901e+00,-1.056657545270000068e-02,-1.124862302089999974e-02,-5.672223865989999871e-03,1.000000000000000000e+00
2.525412235000000116e+00,-2.608104230819999980e+00,-1.765456670930000138e-01,-9.431227956869999929e+00,8.852236787789998906e-04,-1.900711655620000023e-02,-4.450620617719999251e-04,1.000000000000000000e+00
2.530299588000000099e+00,-2.602707632470000032e+00,-1.313204778350000046e-01,-9.432454283789999394e+00,7.234715856610000016e-03,-1.003966946149999900e-02,-3.090776503089999721e-03,1.000000000000000000e+00
2.535287949999999846e+00,-2.599201962440000013e+00,-1.699302127419999864e-01,-9.486500931280000160e+00,1.301081618289999867e-03,-8.216856047510000954e-03,3.673190018159999768e-03,1.000000000000000000e+00
2.540319789999999855e+00,-2.546072722059999904e+00,-1.457608993239999928e-01,-9.441426110280000117e+00,1.184514351190000050e-02,-1.307753263969999979e-03,-1.516803540289999967e-02,1.000000000000000000e+00
2.545257159000000158e+00,-2.629421159610000114e+00,-1.315107579770000146e-01,-9.458416992569999238e+00,7.379249203950000169e-03,-5.224620923399999825e-03,-9.111973457040000238e-03,1.000000000000000000e+00
2.550142494999999787e+00,-2.645591665430000017e+00,-7.667009230239998918e-02,-9.450033195099999617e+00,1.247520279140000056e-02,-6.509724538770000554e-03,-2.278827363630000005e-03,1.000000000000000000e+00
2.555418457000000032e+00,-2.621008136049999937e+00,-1.433787442939999934e-01,-9.455904717480001054e+00,1.051579602060000144e-06,5.930156446989999497e-03,-1.215995056550000022e-03,1.000000000000000000e+00
2.560417661999999872e+00,-2.604042388209999892e+00,-1.349010580020000016e-01,-9.431407989610001152e+00,1.610536873339999883e-02,-8.053525350989999831e-03,-1.591853797439999729e-04,1.000000000000000000e+00
2.565106788000000027e+00,-2.588642282239999926e+00,-8.518914265149998832e-02,-9.457015309069999986e+00,6.336169317360000261e-03,-3.397106193010000341e-03,-3.530728397889999932e-03,1.000000000000000000e+00
2.570259050000000212e+00,-2.578506672670000111e+00,-8.158562000050000040e-02,-9.457886831210000622e+00,9.526255540549999692e-03,-5.790600553149999677e-03,-1.814095675950000083e-02,1.000000000000000000e+00
2.575405175000000213e+00,-2.616597626129999909e+00,-9.111283361209999987e-02,-9.452337964910000778e+00,9.290986694400000384e-03,4.110912326719999565e-03,-4.860678687689999784e-03,1.000000000000000000e+00
2.580108425000000150e+00,-2.573484168329999822e+00,-1.533163653379999991e-01,-9.495822301849999647e+00,2.189234457909999820e-02,-2.434934861959999960e-02,-1.718524843450000214e-02,1.000000000000000000e+00
2.585268822999999827e+00,-2.624564074969999883e+00,-1.622233464249999979e-01,-9.430953816100000608e+00,1.078917924310000137e-02,1.838598400349999995e-03,-1.015879027550000042e-02,1.000000000000000000e+00
2.590310076999999822e+00,-2.658758897779999852e+00,-1.359550788330000093e-01,-9.428141096770000118e+00,2.485396107659999798e-03,-1.526996400210000118e-02,3.541784128169999865e-03,1.000000000000000000e+00
2.595300688000000022e+00,-2.564294315180000172e+00,-1.289532920460000065e-01,-9.434787695180000711e+00,1.023968122900000000e-02,4.773672670130000607e-03,-1.989091001449999965e-02,1.000000000000000000e+00
2.600228019999999862e+00,-2.658655437400000210e+00,-1.455877073140000033e-01,-9.441223865700001383e+00,9.721038863059999757e-03,8.315034210680000148e-03,-5.730436183509999941e-03,1.000000000000000000e+00
2.605307981000000161e+00,-2.605829271620000220e+00,-1.644529686410000080e-01,-9.414202587789999299e+00,-7.213501259680000360e-03,-4.684799350800000067e-03,-8.861129172149999692e-03,1.000000000000000000e+00
2.610409648000000082e+00,-2.594432848340000319e+00,-1.872277863600000092e-01,-9.427637238899999161e+00,1.527217682449999968e-02,-2.252526814119999634e-03,-9.468146599830000107e-03,1.000000000000000000e+00
2.615249072000000119e+00,-2.575462190409999685e+00,-1.755306082989999961e-01,-9.445935112129999922e+00,-5.707479547709999428e-03,2.539631444959999929e-03,-1.418631710110000027e-02,1.000000000000000000e+00
2.620273343000000033e+00,-2.627126618930000213e+00,-2.042634576400000346e-01,-9.475012153539999815e+00,8.469494059679999812e-03,3.872889094050000446e-03,-1.991162775080000061e-03,1.000000000000000000e+00
2.625393007000000001e+00,-2.571342480129999775e+00,-1.671159225060000197e-01,-9.438632095639999164e+00,4.466643091290000041e-03,-2.209283644329999765e-03,-1.239084079859999882e-02,1.000000000000000000e+00
2.630276859999999939e+00,-2.644885562990000327e+00,-1.622026872300000033e-01,-9.433025361680000387e+00,4.176219459620000157e-03,-7.802078966050000029e-03,-4.970894660799999362e-04,1.000000000000000000e+00
2.635324236999999847e+00,-2.596570444890000218e+00,-2.029262542190000129e-01,-9.459410679780001274e+00,5.537902470680000112e-03,-4.874076694250000085e-06,-5.678796209390000842e-03,1.000000000000000000e+00
2.640233960999999852e+00,-2.604102593959999989e+00,-1.671582820769999811e-01,-9.457898521649999779e+00,-2.642737003040000147e-03,1.226347591729999922e-02,-1.709258183840000125e-02,1.000000000000000000e+00
2.645380276000000030e+00,-2.620060333809999698e+00,-1.683671464100000015e-01,-9.450237777759999958e+00,1.188559178259999960e-02,3.918461035939999927e-03,-8.169732987880000755e-03,1.000000000000000000e+00
2.650327798000000179e+00,-2.570214645140000087e+00,-1.169122415829999956e-01,-9.405897116260000246e+00,3.680994268509999758e-03,-7.047233637419999565e-03,-1.380450278520000199e-02,1.000000000000000000e+00
2.655367202999999954e+00,-2.659693256020000174e+00,-1.517005550379999790e-01,-9.461385779239998683e+00,1.222383789719999961e-02,-7.149188313629999472e-03,-4.151542671020000126e-04,1.000000000000000000e+00
2.660255448000000023e+00,-2.608767955419999840e+00,-1.567215158720000057e-01,-9.487870466069999509e+00,-5.842715036120000281e-03,8.666153065860000837e-03,-8.188155479729999561e-03,1.000000000000000000e+00
2.665262863999999787e+00,-2.630409293870000109e+00,-1.889536055059999886e-01,-9.485196278420000127e+00,2.083087340000000162e-02,1.886731479319999922e-03,1.494446862490000048e-02,1.000000000000000000e+00
2.670319844999999859e+00,-2.590072899559999531e+00,-1.780387369280000132e-01,-9.474759640080000267e+00,-5.636992864309999830e-04,-4.491337575020000125e-03,5.324003286659999452e-04,1.000000000000000000e+00
2.675289955000000219e+00,-2.584900465359999622e+00,-2.016074084389999910e-01,-9.439490758299999840e+00,1.495644636450000134e-02,-1.561682089229999909e-03,-4.459915682670000450e-03,1.000000000000000000e+00
2.680355758999999782e+00,-2.653976339679999796e+00,-1.708409343789999979e-01,-9.463200719710000541e+00,-6.693126633759999972e-04,-6.008796859529999534e-03,1.927826181050000184e-02,1.000000000000000000e+00
2.685270195000000193e+00,-2.563830789329999860e+00,-1.446861644980000083e-01,-9.464594219900000382e+00,1.202759798619999938e-02,4.015378188340000716e-03,-2.733672736210000006e-03,1.000000000000000000e+00
2.690390428999999806e+00,-2.594384917540000224e+00,-1.229860542049999866e-01,-9.432447854050000302e+00,-5.457439459860000466e-03,1.048180926589999985e-02,-1.077327318489999970e-02,1.000000000000000000e+00
2.695306935000000070e+00,-2.655594004010000120e+00,-1.171150524129999926e-01,-9.453127069460000698e+00,1.019840594380000019e-03,7.254368625579999882e-03,-2.227090066300000358e-03,1.000000000000000000e+00
2.700283001999999932e+00,-2.584969438940000419e+00,-1.388702904269999983e-01,-9.467862866299999069e+00,5.046640872019998985e-04,9.438807610419999499e-04,1.222371356559999933e-03,1.000000000000000000e+00
2.705394146000000166e+00,-2.616487736019999844e+00,-1.386180418319999941e-01,-9.452572358189998525e+00,-3.154483856630000034e-03,1.033577136700000211e-03,3.684365889060000308e-03,1.000000000000000000e+00
2.710397453000000123e+00,-2.548333652730000232e+00,-2.162782502829999898e-01,-9.473617484310000947e+00,-5.472891964020000673e-03,9.428875520830000412e-03,-5.479539744559999877e-03,1.000000000000000000e+00
2.715310093999999896e+00,-2.626878489390000126e+00,-1.196656958770000029e-01,-9.461102870650000440e+00,4.288388416170000120e-03,9.057892486449999753e-03,3.034995170310000011e-03,1.000000000000000000e+00
2.720255241999999907e+00,-2.581142866390000457e+00,-1.301816282650000156e-01,-9.428389518570000405e+00,6.178589072079999911e-03,2.338620834049999931e-05,1.610551727940000158e-03,1.000000000000000000e+00
2.725276849000000112e+00,-2.583257666590000223e+00,-2.246573715720000253e-01,-9.481763381360000409e+00,-1.109023112800000023e-02,6.997018121179999876e-03,7.732376456260000273e-03,1.000000000000000000e+00
2.730298234999999796e+00,-2.553045191420000304e+00,-1.505755147980000208e-01,-9.439597725810001450e+00,-1.967669697479999986e-03,1.559151709079999865e-02,2.780723152679999855e-03,1.000000000000000000e+00
2.735242742000000060e+00,-2.587579036919999798e+00,-1.967733210799999799e-01,-9.431142616669999867e+00,-5.393549334260000841e-03,-1.518147625030000052e-02,-1.403467147609999783e-03,1.000000000000000000e+00
2.740374864000000077e+00,-2.619841430359999723e+00,-1.645309475139999922e-01,-9.414795292979999175e+00,-3.351784776900000075e-03,4.165241960440000182e-03,1.298044342549999931e-02,1.000000000000000000e+00
2.745284505999999958e+00,-2.584879714830000008e+00,-1.279325158969999987e-01,-9.443879348650000338e+00,-4.846873227510000229e-03,4.180449992419999622e-03,1.284886989739999867e-02,1.000000000000000000e+00
2.750304734999999834e+00,-2.555879245799999921e+00,-1.397764363529999943e-01,-9.440070604009999755e+00,-5.304274149239999146e-03,4.217827692629999743e-03,-4.602033179249999557e-03,1.000000000000000000e+00
2.755291972000000200e+00,-2.553522453539999848e+00,-1.759353166420000170e-01,-9.481328497079999806e+00,4.768982995300000138e-03,2.711103297769999968e-05,-6.529211997989999711e-03,1.000000000000000000e+00
2.760139285999999803e+00,-2.604936998959999972e+00,-1.628607675459999848e-01,-9.489290269739999673e+00,4.903732333329999943e-03,1.401237212120000006e-02,9.315853938459999622e-03,1.000000000000000000e+00
2.765256077000000090e+00,-2.556758074459999808e+00,-1.402223717559999971e-01,-9.489149399960000508e+00,3.648306243119999858e-03,1.883096620440000146e-02,-4.707115236670000001e-03,1.000000000000000000e+00
2.770229402000000007e+00,-2.588639651889999893e+00,-1.473800888900000106e-01,-9.492603339810001373e+00,1.468543149529999772e-02,7.770484313369999466e-03,-3.760421648619999627e-03,1.000000000000000000e+00
2.775379141000000160e+00,-2.642540753430000056e+00,-1.576666695020000064e-01,-9.458146358929999664e+00,-3.497687401249999998e-03,3.348733764139999979e-03,7.550206966699999842e-03,1.000000000000000000e+00
2.780336107000000112e+00,-2.600368668129999783e+00,-1.551034679499999902e-01,-9.433359708200001137e+00,1.170909684150000032e-02,1.250168215479999928e-02,1.687220996249999940e-03,1.000000000000000000e+00
2.785187354000000060e+00,-2.638115338199999993e+00,-1.565380673310000081e-01,-9.473103689569999375e+00,1.673861406740000113e-02,1.079230569299999970e-04,9.688416030260001361e-04,1.000000000000000000e+00
2.790293563000000088e+00,-2.636789350289999945e+00,-1.440625253070000056e-01,-9.401905416269999094e+00,6.020300206729999135e-04,2.987870946529999888e-03,4.658175632359999943e-03,1.000000000000000000e+00
2.795369489000000041e+00,-2.612123695590000239e+00,-1.739766933879999811e-01,-9.418656060060000001e+00,-3.527457360179999876e-03,8.782516233620000709e-03,3.819819539790000038e-04,1.000000000000000000e+00
2.800232621000000144e+00,-2.563629713800000154e+00,-2.389017133659999681e-01,-9.476987252999999001e+00,-9.084277553480000307e-04,7.680161856109999317e-03,-1.784049440180000097e-03,1.000000000000000000e+00
2.805408375999999926e+00,-2.613492061329999672e+00,-1.944932838510000095e-01,-9.438597024330000806e+00,-9.913643822069998640e-03,1.892808079720000036e-02,1.213360205289999889e-02,1.000000000000000000e+00
2.810385440000000123e+00,-2.592430568609999764e+00,-1.919690260709999985e-01,-9.425250051499999060e+00,-1.562559232120000127e-02,4.420788027349999909e-04,1.108055282379999916e-02,1.000000000000000000e+00
2.815231634999999955e+00,-2.587635151020000190e+00,-1.446391744180000050e-01,-9.454207850439999561e+00,-1.214253250509999930e-02,6.014905869959999950e-03,7.320665754379999945e-03,1.000000000000000000e+00
2.820459980999999949e+00,-2.574649120459999718e+00,-1.257911747530000013e-01,-9.471332588239999239e+00,-5.715538281949999848e-03,1.608248613770000071e-02,1.951930811630000345e-03,1.000000000000000000e+00
2.825325340000000018e+00,-2.583937757809999791e+00,-1.081404951149999849e-01,-9.491851060129999240e+00,9.367967024450000665e-03,1.663581468160000090e-02,3.267024876550000002e-03,1.000000000000000000e+00
2.830284711000000009e+00,-2.572089206840000308e+00,-1.350959960520000114e-01,-9.439576683019998526e+00,1.254552137110000014e-02,1.699574291710000042e-03,5.711485631759999869e-03,1.000000000000000000e+00
2.835309732999999888e+00,-2.609882054139999852e+00,-9.317962081560000887e-02,-9.427660619770000139e+00,7.246500812470000469e-03,2.045948058370000017e-02,1.557871000840000113e-03,1.000000000000000000e+00
2.840349776000000048e+00,-2.573418994139999860e+00,-7.664035475119999885e-02,-9.429749116489999139e+00,8.674434502610001109e-04,-2.346033230419999893e-03,-7.636306807399999980e-03,1.000000000000000000e+00
2.845226492000000107e+00,-2.583285139120000018e+00,-1.079364787090000000e-01,-9.461327327050000235e+00,1.692862249910000172e-02,1.230403408410000142e-02,1.931297359990000054e-03,1.000000000000000000e+00
2.850228938999999961e+00,-2.575948804879999887e+00,-6.263090855859999861e-02,-9.448570136810001685e+00,5.338942632079999619e-03,2.023041248320000055e-02,8.436516858639999186e-03,1.000000000000000000e+00
2.855258141999999832e+00,-2.541250124209999850e+00,-1.340165667850000131e-01,-9.456023375430000044e+00,-2.470438601449999761e-03,-1.017534080890000053e-02,-9.451373480260000931e-03,1.000000000000000000e+00
2.860367156000000133e+00,-2.576506731029999830e+00,-1.041218888570000084e-01,-9.436077734989998689e+00,1.462477445600000002e-02,2.934196405109999739e-02,-7.251762785020000532e-03,1.000000000000000000e+00
2.865228012000000213e+00,-2.653577988009999888e+00,-1.143247184410000061e-01,-9.408784069870000266e+00,1.455407589670000210e-02,1.410739682610000038e-02,-3.629847196860000371e-03,1.000000000000000000e+00
2.870316072000000052e+00,-2.620863759150000138e+00,-1.526615912230000205e-01,-9.436239647549999887e+00,2.461439929899999698e-02,5.263039842250000384e-03,-1.155235897749999976e-02,1.000000000000000000e+00
2.875420663999999960e+00,-2.582105573950000288e+00,-2.086194426260000179e-01,-9.413978715900000793e+00,3.069725353270000203e-03,2.057846821840000201e-02,-4.281102214010000864e-03,1.000000000000000000e+00
2.880329587999999941e+00,-2.582139768479999820e+00,-2.169022821990000127e-01,-9.408020684280000268e+00,8.484143763780000597e-03,2.535410691050000304e-03,4.165356047449999925e-03,1.000000000000000000e+00
2.885328171999999913e+00,-2.558838680129999599e+00,-2.088154766539999929e-01,-9.427727839790000175e+00,-3.262596903369999884e-03,9.026109240950000445e-03,1.053164526819999960e-02,1.000000000000000000e+00
2.890385189999999938e+00,-2.499138829190000077e+00,-2.138651247270000055e-01,-9.460001631409999945e+00,-4.140149801970000043e-03,1.556906849149999883e-02,-1.179715059700000082e-02,1.000000000000000000e+00
2.895392998000000162e+00,-2.549679222119999977e+00,-1.772586742000000215e-01,-9.481224452180001094e+00,2.348695183170000037e-03,-7.088594138619999522e-04,3.503003856170000107e-03,1.000000000000000000e+00
2.900252217999999882e+00,-2.587346981729999662e+00,-1.531660975459999963e-01,-9.466821248300000491e+00,-6.658033467830000267e-03,-7.716958411040000104e-03,1.260647643360000153e-02,1.000000000000000000e+00
2.905294941999999825e+00,-2.756983709690000506e+00,-2.864254070900000282e-01,-9.140415457270000488e+00,6.996541749689999534e-03,2.560595422979999869e-02,8.132582530379999647e-03,1.000000000000000000e+00
2.910308371000000172e+00,-1.692598282400000098e+00,2.720607085860000107e-01,-9.761217451600000317e+00,-2.980597503479999813e-02,-2.739227376879999759e-02,-3.872656077149999598e-02,1.000000000000000000e+00
2.915335236999999857e+00,-3.189063167320000058e+00,-3.076015757080000079e-01,-9.406067212130000854e+00,-7.822178304199999715e-05,-2.463803440330000066e-02,-1.439674943689999917e-02,1.000000000000000000e+00
