t,ax,ay,az,wx,wy,wz,zv
5.004640000000000304e-03,-2.825523577429999822e+00,5.557670294430000490e-01,-9.404211939650000573e+00,1.694188825789999867e-02,-1.442316826429999865e-02,1.220025122170000087e-02,1.000000000000000000e+00
1.016834299999999983e-02,-2.857304032570000096e+00,5.824548010890000516e-01,-9.364777170360000014e+00,-1.622995547949999950e-02,-1.018853113060000024e-02,1.401763409379999832e-02,1.000000000000000000e+00
1.503613600000000029e-02,-2.819040937410000058e+00,5.381015723600000022e-01,-9.393833753500000938e+00,-4.875957034529999727e-03,-5.512014962729998996e-03,9.339781478049999017e-03,1.000000000000000000e+00
2.002347599999999839e-02,-2.803254462469999986e+00,5.541105674730000263e-01,-9.329611164430000159e+00,-1.022332254799999951e-02,2.843091962860000346e-03,-1.945363008420000024e-03,1.000000000000000000e+00
2.500436199999999873e-02,-2.816095823870000459e+00,5.540154000029999803e-01,-9.342592226560000768e+00,-3.710263874379999931e-03,7.394643034789999663e-04,-9.142105467620001077e-03,1.000000000000000000e+00
3.015891299999999900e-02,-2.868154512409999857e+00,5.513835171290000225e-01,-9.372359003789998866e+00,-1.038558967410000040e-02,-7.920972071589999636e-03,9.530674666170000503e-03,1.000000000000000000e+00
3.504006500000000218e-02,-2.858762999210000100e+00,5.695224004100000181e-01,-9.337904360999999653e+00,-5.375364795330000306e-03,7.526237517600000045e-03,2.361581660809999872e-02,1.000000000000000000e+00
4.016093700000000072e-02,-2.778151293140000089e+00,5.833483158629999554e-01,-9.391551195519999951e+00,1.126773096620000032e-02,-4.966698586939999500e-03,-5.805664695800000392e-03,1.000000000000000000e+00
4.501847999999999961e-02,-2.847552453880000112e+00,5.502652171570000528e-01,-9.365124376360000724e+00,-3.138153813780000280e-03,5.413287319240000020e-03,1.143227331339999840e-03,1.000000000000000000e+00
5.016030500000000225e-02,-2.870406967509999685e+00,5.671839840579999681e-01,-9.347610346980001594e+00,-2.484256168829999684e-03,2.307981019840000050e-03,3.437569830570000491e-03,1.000000000000000000e+00
5.515246199999999932e-02,-2.808553445659999870e+00,5.623624821850000677e-01,-9.339147639060000117e+00,9.808866307140001652e-04,-1.267791027200000165e-03,-6.311347708109998726e-03,1.000000000000000000e+00
6.003833799999999665e-02,-2.903977520940000279e+00,5.504108361720000397e-01,-9.356216262760000291e+00,-9.957524947820000152e-03,1.799760153519999956e-03,1.966151595120000165e-02,1.000000000000000000e+00
6.500344800000000534e-02,-2.780959336300000029e+00,5.274080001169999532e-01,-9.392558911260000087e+00,-8.364639244970000984e-03,-2.409636508670000375e-03,-4.519552923739999888e-03,1.000000000000000000e+00
7.016926099999999666e-02,-2.843354709929999835e+00,5.538893624699999796e-01,-9.363609295619999884e+00,4.279671702530000836e-03,5.309033207600000019e-03,-5.779163911939998698e-03,1.000000000000000000e+00
7.499717000000000189e-02,-2.828620666660000005e+00,5.406096827240000069e-01,-9.369467373999999182e+00,4.894306883219999918e-03,1.064518000929999889e-02,6.074053701010000313e-03,0.000000000000000000e+00
7.999519900000000294e-02,-2.834485174779999728e+00,5.406166239209999613e-01,-9.376099943889999011e+00,9.423738811170000390e-05,-1.470377482470000205e-02,1.175730302930000012e-02,0.000000000000000000e+00
8.499817799999999368e-02,-2.795091029760000012e+00,5.109203911749999882e-01,-9.371135599480000522e+00,-2.349598705770000046e-02,3.245970001439999961e-03,-2.274380298329999918e-03,0.000000000000000000e+00
9.002866299999999489e-02,-2.858416377720000234e+00,5.299059178800000769e-01,-9.382755894640000704e+00,-9.505494497720000380e-03,9.679492563009999342e-03,8.191512897609999969e-03,0.000000000000000000e+00
9.500347500000000389e-02,-2.812721086740000320e+00,5.620082619199999741e-01,-9.383072120990000542e+00,2.988347318020000230e-03,-8.879708126190001202e-03,-3.157813102010000039e-03,0.000000000000000000e+00
1.000203620000000015e-01,-2.863713607350000245e+00,5.597131367200000041e-01,-9.374618765419999278e+00,5.865842569620000058e-03,-9.504744783040001629e-03,9.984405711290000873e-03,0.000000000000000000e+00
1.049928080000000069e-01,-2.831401821810000108e+00,5.275751733769999952e-01,-9.373458489469999932e+00,4.064093809569999322e-04,6.758256815369999629e-03,1.127053238450000106e-02,0.000000000000000000e+00
1.099773379999999939e-01,-2.790049236200000227e+00,5.822940210370000091e-01,-9.354856664850000669e+00,-7.721591275189999999e-03,4.137681797150000347e-03,1.391044259070000136e-02,1.000000000000000000e+00
1.150378910000000032e-01,-2.819615230170000153e+00,5.333085659299999781e-01,-9.395183414539999944e+00,-2.235009102150000305e-03,7.010309956970000797e-03,1.286358945070000155e-02,1.000000000000000000e+00
1.200403250000000033e-01,-2.785126392850000077e+00,5.322647924979999612e-01,-9.372895010360000612e+00,5.928857251999999911e-03,-7.926107384260000499e-03,9.640781208870000032e-04,1.000000000000000000e+00
1.252044499999999949e-01,-2.832564435849999729e+00,5.347179943370000688e-01,-9.375689609520000189e+00,2.772125415500000141e-03,6.123119033869999471e-03,-7.629620376970000940e-04,1.000000000000000000e+00
1.300190710000000138e-01,-2.835618562720000124e+00,6.001933599400000041e-01,-9.363454397319999956e+00,-1.103883143510000012e-02,1.260575931520000088e-02,6.334114354100000253e-03,1.000000000000000000e+00
1.350448019999999916e-01,-2.858542926710000209e+00,5.752934946250000126e-01,-9.369373265980000198e+00,-2.115401905029999988e-03,-6.328378804029999652e-03,6.604522001000000253e-03,1.000000000000000000e+00
1.401696460000000088e-01,-2.865996749850000302e+00,5.336639552390000096e-01,-9.363508173339999630e+00,-1.179431844499999847e-02,5.308432504529999457e-03,1.766283810140000313e-02,1.000000000000000000e+00
1.451770950000000060e-01,-2.806622185340000186e+00,5.861979331399999049e-01,-9.342299381089999244e+00,1.222820207479999831e-02,-2.201686380430000010e-03,-3.531096735969999414e-03,1.000000000000000000e+00
1.501774580000000137e-01,-2.886134113469999818e+00,6.007138766830000254e-01,-9.317151495830000130e+00,-2.103688661010000033e-03,-3.366027958690000167e-04,1.231037639079999961e-02,1.000000000000000000e+00
1.551273569999999935e-01,-2.819655562179999908e+00,5.599103397929999781e-01,-9.359746774979999628e+00,-1.527702342720000002e-02,-4.318262450399999210e-03,-6.749724037949999395e-03,1.000000000000000000e+00
1.601521250000000063e-01,-2.888440344589999764e+00,5.840027611829999854e-01,-9.331971463820000423e+00,-1.164720673110000021e-02,7.210344076160000656e-03,3.471956588329999953e-04,1.000000000000000000e+00
1.650541889999999901e-01,-2.875273696759999886e+00,6.005614626009999624e-01,-9.350626479929999846e+00,-2.187585690989999731e-03,2.170924469829999676e-02,-8.916564285760000819e-03,1.000000000000000000e+00
1.701810360000000077e-01,-2.919268321309999692e+00,6.019686259850000054e-01,-9.328920259560000261e+00,-1.163513492789999999e-02,2.320071496069999947e-02,2.168165519830000105e-05,1.000000000000000000e+00
1.750261800000000034e-01,-2.915323090820000296e+00,6.126564626070000186e-01,-9.340267582999999263e+00,-6.848233286289999965e-03,1.569544151429999937e-02,-4.571368452159999679e-03,1.000000000000000000e+00
1.799771629999999956e-01,-2.943534455299999575e+00,5.506457774390000059e-01,-9.360001042000000382e+00,-1.199486758560000012e-02,2.265206538140000433e-02,3.462107386440000083e-03,1.000000000000000000e+00
1.849870670000000050e-01,-2.877845593079999542e+00,5.504382356360000284e-01,-9.367151498280000155e+00,-1.211717352270000152e-02,2.468644455079999772e-02,-1.266543986279999911e-03,1.000000000000000000e+00
1.901826829999999913e-01,-2.897811691779999865e+00,5.917066866239999445e-01,-9.401392206049999700e+00,-1.470679696650000097e-02,2.620005607600000078e-02,1.362775452439999972e-02,1.000000000000000000e+00
1.950048139999999985e-01,-2.836543860869999989e+00,5.692058452739999774e-01,-9.382657110439998505e+00,-9.528340771790001426e-03,3.116493113340000273e-02,6.277279462670000594e-03,1.000000000000000000e+00
2.000252070000000104e-01,-2.843625051309999652e+00,5.586430232710000165e-01,-9.369245255680000994e+00,-4.066851921379999873e-03,2.663323096929999870e-02,-1.191744115200000153e-03,1.000000000000000000e+00
2.051996120000000035e-01,-2.776967051790000252e+00,5.770116967199999669e-01,-9.410072940639999217e+00,-2.811603015289999927e-03,2.609521523120000158e-02,1.369548495859999925e-03,1.000000000000000000e+00
2.099862670000000042e-01,-2.791629198870000383e+00,5.984412555760000307e-01,-9.429014956989998808e+00,-1.353024691339999898e-02,1.335685700179999914e-02,-1.467859372500000120e-02,1.000000000000000000e+00
2.151502889999999946e-01,-2.759642407499999894e+00,5.636735282509999223e-01,-9.424175115749999776e+00,-7.229988463220000244e-03,2.366002276539999963e-02,-2.169984392819999854e-03,1.000000000000000000e+00
2.201777400000000107e-01,-2.729923268799999914e+00,5.750851856360000847e-01,-9.468044068089998433e+00,-4.845738876609999475e-03,1.227865833790000097e-02,9.857941418889999349e-03,1.000000000000000000e+00
2.250186740000000019e-01,-2.689897840149999997e+00,5.156560779269999673e-01,-9.471766303480000815e+00,7.157832849770001150e-03,6.235031411050000714e-03,-9.387080557639999184e-03,1.000000000000000000e+00
2.301583670000000026e-01,-2.760837462500000061e+00,5.515614675119999699e-01,-9.446921200560000287e+00,2.530884742739999971e-02,3.805184038360000156e-03,6.648089271039999727e-03,1.000000000000000000e+00
2.350426909999999980e-01,-2.689897255620000482e+00,5.431571021840000402e-01,-9.453031207869999619e+00,1.802496798340000317e-02,7.750591263180000613e-03,-9.903372265399999416e-03,1.000000000000000000e+00
2.401725779999999977e-01,-2.752036024150000149e+00,5.058251869269999590e-01,-9.514214867630000683e+00,2.544252388179999921e-02,-2.555109094830000042e-04,-4.928641952569999540e-03,1.000000000000000000e+00
2.450200590000000123e-01,-2.702959274029999914e+00,4.787597410760000560e-01,-9.471692653719999910e+00,3.058055974540000235e-02,1.053324528040000020e-02,-1.415460184220000174e-02,1.000000000000000000e+00
2.500257309999999733e-01,-2.719578984920000053e+00,4.604889750439999929e-01,-9.519407760100000004e+00,3.297431766990000651e-02,-9.834208525719999316e-03,-1.268868148329999924e-02,1.000000000000000000e+00
2.551685699999999835e-01,-2.614215699429999873e+00,5.205277390839999629e-01,-9.684050040769999868e+00,4.555330798030000211e-02,-1.191899180410000043e-02,-9.778954088690000948e-03,1.000000000000000000e+00
2.600334750000000139e-01,-2.612847041430000239e+00,5.177455610200000224e-01,-9.713844875050000383e+00,1.794876903299999840e-02,-4.445721581579999832e-02,1.311696507040000133e-02,1.000000000000000000e+00
2.650598279999999973e-01,-2.440311815549999874e+00,3.299009396689999707e-01,-9.921666372229999808e+00,6.552737206219999555e-02,-8.818864822389999025e-02,1.758418418470000105e-02,1.000000000000000000e+00
2.700376910000000241e-01,-2.179055373050000188e+00,3.585002440239999921e-01,-1.008443350669999994e+01,6.577493995430000462e-02,-1.578003019089999903e-01,1.946285925809999873e-02,1.000000000000000000e+00
2.749887300000000145e-01,-2.340332122800000025e+00,3.242832093849999930e-01,-9.848915608800000498e+00,1.220372915269999914e-01,-2.646174430850000148e-01,1.588734611870000132e-02,1.000000000000000000e+00
2.799927509999999842e-01,-3.108289256429999980e+00,2.951865910659999884e-02,-9.302831878580001046e+00,1.567300260070000062e-01,-3.675057291980000085e-01,2.967020682990000047e-02,1.000000000000000000e+00
2.849895570000000045e-01,-3.425807684390000052e+00,3.352677136990000334e-02,-9.529203762450000781e+00,1.449687629939999944e-01,-4.248101413250000014e-01,3.322966396809999556e-02,1.000000000000000000e+00
2.901698329999999881e-01,-3.179673699949999932e+00,-5.504704756709999369e-02,-9.488248067210001579e+00,1.594609469180000016e-01,-4.277866184709999686e-01,4.054617509250000446e-02,1.000000000000000000e+00
2.950151810000000152e-01,-3.353120633840000142e+00,-3.157959880790000007e-01,-9.568675941140000418e+00,1.794406920670000016e-01,-3.882126212120000086e-01,7.349511981009999861e-02,1.000000000000000000e+00
3.001722490000000021e-01,-3.104322398629999924e+00,-7.977811940069999830e-01,-9.793844294439999487e+00,2.067593038080000056e-01,-2.699423730370000274e-01,7.626157253980000994e-02,1.000000000000000000e+00
3.050767870000000159e-01,-2.990011544319999715e+00,-7.228448301620000738e-01,-9.853547360249999443e+00,2.025618702169999785e-01,-1.741645932199999969e-01,1.163776516909999920e-01,1.000000000000000000e+00
3.100576050000000139e-01,-2.759273574190000300e+00,-4.050920819919999749e-01,-9.870161810449999962e+00,1.601665616040000018e-01,-1.654353588820000054e-01,1.641569733619999971e-01,1.000000000000000000e+00
3.150094270000000085e-01,-2.092801277179999975e+00,1.020152719659999929e-01,-1.012630631679999915e+01,1.098401173949999921e-01,-1.600723266599999861e-01,1.773605495689999922e-01,1.000000000000000000e+00
3.201768990000000148e-01,-1.725230678199999979e+00,3.644839580759999809e-01,-1.018030912509999908e+01,4.948874190449999849e-02,-2.243302762510000214e-01,1.633685678239999994e-01,1.000000000000000000e+00
3.250799799999999906e-01,-1.507136501059999967e+00,8.415645138930000213e-01,-1.035571829899999940e+01,1.655643060800000149e-02,-3.282622098920000009e-01,1.458489149809999996e-01,1.000000000000000000e+00
3.300447890000000051e-01,-1.462843478089999927e+00,1.090465551889999940e+00,-1.042877184479999997e+01,-6.319814827290000381e-03,-4.330373704429999471e-01,1.422841548919999977e-01,1.000000000000000000e+00
3.350316689999999764e-01,-1.645880224239999912e+00,9.819613380339999864e-01,-1.040761799759999917e+01,2.809117082510000432e-03,-5.553355813029999810e-01,1.268094778059999927e-01,1.000000000000000000e+00
3.400457669999999988e-01,-2.023423205049999840e+00,5.485886987789999614e-01,-1.085158926079999908e+01,3.524969518180000316e-02,-6.535453796389999459e-01,1.537464708090000021e-01,1.000000000000000000e+00
3.450716759999999939e-01,-2.007908971180000002e+00,1.924422330729999922e-02,-1.138817451029999894e+01,1.618355512620000061e-02,-7.466567754749999786e-01,1.940555572509999882e-01,1.000000000000000000e+00
3.500545979999999946e-01,-9.973998763150000446e-01,-2.280671434830000011e-01,-1.276490710040000032e+01,-2.037065103650000097e-02,-7.979821562769999765e-01,2.098711878060000036e-01,1.000000000000000000e+00
3.551982940000000255e-01,-1.429689250379999832e+00,-5.974906768529999468e-01,-1.239589843140000092e+01,-1.848097443580000165e-01,-9.134366512299999519e-01,1.542257368559999953e-01,1.000000000000000000e+00
3.601903619999999862e-01,-2.645429460599999949e+00,-4.977377785939999799e-01,-1.142902206900000017e+01,-3.257272839550000021e-01,-1.019470095630000017e+00,7.266727089879999879e-02,0.000000000000000000e+00
3.650559250000000033e-01,-2.346133356430000205e+00,-7.599226610600000598e-01,-1.176469077839999855e+01,-4.649949371809999898e-01,-1.112082719800000064e+00,6.129459012300000724e-03,0.000000000000000000e+00
3.700536229999999982e-01,-2.316965129609999785e+00,-4.940554002870000128e-01,-1.191807282939999979e+01,-5.658540725709999553e-01,-1.194584965710000057e+00,-1.178309693929999874e-02,0.000000000000000000e+00
3.750359879999999868e-01,-2.904638907459999864e+00,-2.279875389079999981e-01,-1.176626664940000033e+01,-5.808125138280000321e-01,-1.188433289530000048e+00,2.087388187650000056e-03,0.000000000000000000e+00
3.802033100000000165e-01,-2.493698976220000141e+00,-4.645288615519999609e-01,-1.194215630029999886e+01,-5.284371972079999757e-01,-1.198608994480000023e+00,7.435794919730000230e-02,0.000000000000000000e+00
3.852179510000000029e-01,-1.478984173289999982e+00,-1.041161897680000087e-01,-1.178213057349999993e+01,-4.691213071349999986e-01,-1.155042052270000230e+00,1.635576039550000194e-01,0.000000000000000000e+00
3.900689170000000150e-01,-9.970314083290000573e-01,7.029284158149999850e-01,-1.207448854900000157e+01,-4.427389502530000298e-01,-1.043336272239999918e+00,2.387237101790000149e-01,0.000000000000000000e+00
3.950421120000000008e-01,-3.359427332770000163e+00,2.073692964340000167e+00,-1.354134038589999989e+01,-3.703960776330000315e-01,-9.887534976010000642e-01,3.152236342429999838e-01,0.000000000000000000e+00
4.001940170000000130e-01,-3.253609581520000127e+00,2.287224948119999990e+00,-1.382153212279999899e+01,-2.654352784160000089e-01,-9.149458408359999462e-01,4.113744497300000358e-01,0.000000000000000000e+00
4.050706960000000079e-01,-1.966585757800000112e+00,1.915404875009999897e+00,-1.214051146549999949e+01,-5.546507891270000511e-03,-7.660540938380000497e-01,4.982981383799999775e-01,0.000000000000000000e+00
4.100555300000000014e-01,-1.147447741379999941e+00,2.142968745140000131e+00,-1.146472934220000006e+01,3.144339621070000312e-01,-5.127388834949999641e-01,6.065828204150000014e-01,0.000000000000000000e+00
4.150394960000000077e-01,-4.298769426260000415e-02,1.774766424129999853e+00,-1.103044126859999885e+01,4.927110075949999723e-01,-3.200945556159999761e-01,7.811678647990000224e-01,0.000000000000000000e+00
4.200446849999999732e-01,8.476437607420000964e-01,1.697624001610000155e+00,-1.051476202899999990e+01,6.362814903260000099e-01,-2.519857585429999824e-01,9.446333050730000291e-01,0.000000000000000000e+00
4.252262019999999976e-01,1.443914175079999973e+00,1.532585268970000136e+00,-9.898089097289998861e+00,6.655306816100000633e-01,-2.843209207060000132e-01,1.014693140979999963e+00,0.000000000000000000e+00
4.300510220000000050e-01,2.035635182500000084e+00,1.488876037229999838e+00,-9.227598650680000958e+00,6.597804427150000262e-01,-3.660163283349999741e-01,1.059240579610000177e+00,0.000000000000000000e+00
4.351866200000000240e-01,2.359209111100000200e+00,1.524974063309999961e+00,-8.904736815870000655e+00,6.401603817939999219e-01,-4.352652430529999616e-01,1.109178185460000021e+00,0.000000000000000000e+00
4.400506379999999940e-01,2.315830134229999615e+00,1.948287007780000080e+00,-8.929793515710001017e+00,6.168699264529999837e-01,-4.480132758620000155e-01,1.170478343959999945e+00,0.000000000000000000e+00
4.450419250000000049e-01,2.307300352429999979e+00,2.916355064210000236e+00,-8.963123538380001420e+00,6.309230923649999934e-01,-4.548072218890000240e-01,1.217748403550000136e+00,0.000000000000000000e+00
4.500592139999999852e-01,2.368978371569999908e+00,3.606487492149999863e+00,-9.012855829799999441e+00,6.945785880089999642e-01,-4.165793657299999841e-01,1.307858824729999814e+00,0.000000000000000000e+00
4.551904729999999843e-01,2.656682383759999766e+00,3.964316010919999300e+00,-8.949931463860000491e+00,7.856867313390000218e-01,-3.473770916460000024e-01,1.357901692390000026e+00,0.000000000000000000e+00
4.600528340000000216e-01,3.217510094129999665e+00,3.921296076619999571e+00,-8.874409482139999028e+00,8.741210103030000456e-01,-2.636603116990000051e-01,1.413476943970000121e+00,0.000000000000000000e+00
4.650216679999999991e-01,3.648393327719999579e+00,3.844716987069999536e+00,-9.022488166020000477e+00,9.456799030299999353e-01,-2.350261360410000055e-01,1.470768570900000016e+00,0.000000000000000000e+00
4.702016439999999742e-01,3.977210563809999933e+00,3.672819912970000100e+00,-9.241354204310001208e+00,9.640262722969999976e-01,-2.297755777840000124e-01,1.517377018929999988e+00,0.000000000000000000e+00
4.750544660000000086e-01,4.213547669119999561e+00,3.542351704580000149e+00,-9.524441078089999735e+00,9.108090996740000334e-01,-1.982736438509999921e-01,1.550019979479999810e+00,0.000000000000000000e+00
4.800501890000000160e-01,4.191580167459999728e+00,3.459235906740000033e+00,-9.794941442029999834e+00,8.592982888219999893e-01,-1.535349488259999950e-01,1.578772068020000141e+00,0.000000000000000000e+00
4.850519859999999905e-01,4.042205306290000522e+00,3.636112230559999769e+00,-1.000734442179999917e+01,8.050611615180001124e-01,-5.703269317750000317e-02,1.642892122269999922e+00,0.000000000000000000e+00
4.900491330000000256e-01,3.996699692650000024e+00,3.923529534760000104e+00,-1.020437973649999996e+01,7.643020153049999710e-01,5.733013525609999966e-02,1.720020413400000114e+00,0.000000000000000000e+00
4.950520580000000170e-01,3.879194133950000012e+00,4.180452624239999970e+00,-1.039680901879999908e+01,7.716467380519999031e-01,1.574231386180000025e-01,1.791106700900000126e+00,0.000000000000000000e+00
5.002002629999999783e-01,3.699032504850000347e+00,4.244832449700000510e+00,-1.058011508340000084e+01,7.750247716899999473e-01,3.123849928379999752e-01,1.878819465640000130e+00,0.000000000000000000e+00
5.050942609999999888e-01,3.578154547109999584e+00,4.442102449980000145e+00,-1.078576741980000087e+01,8.440596461300000630e-01,4.173889756199999912e-01,1.972455739970000010e+00,0.000000000000000000e+00
5.100247209999999587e-01,3.387009751699999960e+00,4.753531328900000297e+00,-1.102139053170000160e+01,9.259014725690000169e-01,5.477161407469999244e-01,2.075948953630000204e+00,0.000000000000000000e+00
5.151806599999999570e-01,3.073430124499999749e+00,5.196841497860000381e+00,-1.118534658359999945e+01,1.002590775489999864e+00,6.842550635340001186e-01,2.192633390429999718e+00,0.000000000000000000e+00
5.201771680000000231e-01,2.604191441290000242e+00,5.494177846269999499e+00,-1.139037932689999977e+01,1.105251193049999969e+00,8.321266174320000042e-01,2.304814577100000150e+00,0.000000000000000000e+00
5.250712290000000282e-01,2.222392994990000314e+00,5.544378339730000604e+00,-1.152259350219999945e+01,1.251683592800000078e+00,1.000693321229999988e+00,2.420176506040000231e+00,0.000000000000000000e+00
5.300563029999999509e-01,1.976660869350000072e+00,5.646838012729999967e+00,-1.161228370989999981e+01,1.384955763820000074e+00,1.175768613820000086e+00,2.533321619030000083e+00,0.000000000000000000e+00
5.350443520000000008e-01,1.736105854079999844e+00,5.672998874419999282e+00,-1.159231293510000071e+01,1.486557722089999922e+00,1.347142457959999984e+00,2.631979942320000099e+00,0.000000000000000000e+00
5.400414999999999521e-01,1.595994203560000102e+00,5.538182992220000322e+00,-1.156316049029999959e+01,1.593217968939999896e+00,1.469887137409999989e+00,2.732717514040000406e+00,0.000000000000000000e+00
5.450393850000000429e-01,1.515459946640000055e+00,5.348410361950000080e+00,-1.142724512250000046e+01,1.612717986110000057e+00,1.579516410829999939e+00,2.800243854520000131e+00,0.000000000000000000e+00
5.503627469999999855e-01,1.368669256750000063e+00,5.055350960200000188e+00,-1.138732812259999960e+01,1.641168117520000136e+00,1.675851464270000202e+00,2.891767740249999719e+00,0.000000000000000000e+00
5.549833589999999539e-01,1.288663407620000090e+00,4.943557057149999601e+00,-1.130831946780000052e+01,1.632861137389999939e+00,1.726757287979999722e+00,2.953076839449999991e+00,0.000000000000000000e+00
5.601474199999999515e-01,1.056431764870000123e+00,5.018239080899999927e+00,-1.128386891719999952e+01,1.611383914949999996e+00,1.801271200179999976e+00,3.033885717390000014e+00,0.000000000000000000e+00
5.650171899999999470e-01,8.227495579820000016e-01,4.984943545020000144e+00,-1.126449669269999987e+01,1.613069176670000049e+00,1.847388148309999645e+00,3.090136528019999940e+00,0.000000000000000000e+00
5.701853719999999681e-01,5.379633329340000047e-01,4.995720375100000332e+00,-1.136207911510000024e+01,1.608169436450000100e+00,1.868473887440000203e+00,3.163812160490000469e+00,0.000000000000000000e+00
5.750391440000000021e-01,2.333037472280000135e-01,4.892593470369999586e+00,-1.147121987329999904e+01,1.609555244449999867e+00,1.896526813509999743e+00,3.209820508959999596e+00,0.000000000000000000e+00
5.801547430000000283e-01,-2.278167123860000143e-01,4.705293075430000194e+00,-1.158435876119999897e+01,1.618577241899999963e+00,1.914473056790000127e+00,3.263386487960000082e+00,0.000000000000000000e+00
5.850222779999999512e-01,-4.751490397649999475e-01,4.354612382580000052e+00,-1.155016539970000089e+01,1.605095744129999780e+00,1.948016166690000217e+00,3.287456512449999924e+00,0.000000000000000000e+00
5.900232319999999531e-01,-7.103746401680000044e-01,4.183488046419999939e+00,-1.147077914380000152e+01,1.582640409469999954e+00,1.964099526409999630e+00,3.339380979540000016e+00,0.000000000000000000e+00
5.950035430000000236e-01,-9.198775145649998874e-01,4.068480442009999365e+00,-1.138681023619999877e+01,1.527723312380000031e+00,1.979370355609999965e+00,3.380828142169999939e+00,0.000000000000000000e+00
6.001543360000000105e-01,-1.148324670339999853e+00,3.981568174490000001e+00,-1.122387359040000021e+01,1.477942109110000235e+00,1.990591645240000096e+00,3.413521289829999805e+00,0.000000000000000000e+00
6.050300440000000446e-01,-1.211351400679999912e+00,3.928239612149999616e+00,-1.096209663119999966e+01,1.435899853709999840e+00,1.992646455759999657e+00,3.434720277790000331e+00,0.000000000000000000e+00
6.100367690000000342e-01,-1.301280897130000058e+00,3.840649591499999627e+00,-1.068939261969999954e+01,1.388851881029999902e+00,1.965469598769999937e+00,3.436867475510000158e+00,0.000000000000000000e+00
6.150586519999999835e-01,-1.435659703089999795e+00,3.692820498469999269e+00,-1.047894954190000050e+01,1.336228251459999905e+00,1.943359971049999801e+00,3.476375818249999750e+00,0.000000000000000000e+00
6.200057839999999487e-01,-1.563264631000000016e+00,3.586649403730000074e+00,-1.031315575310000021e+01,1.275086998939999994e+00,1.876211524009999909e+00,3.488752365109999865e+00,0.000000000000000000e+00
6.250382289999999452e-01,-1.932395026640000069e+00,3.465857370709999774e+00,-1.054688969010000044e+01,1.241001963620000037e+00,1.824669957159999800e+00,3.493184566499999644e+00,0.000000000000000000e+00
6.300360139999999776e-01,-2.534565824139999979e+00,3.420062418740000165e+00,-1.085086796079999871e+01,1.216289281849999959e+00,1.776090621949999893e+00,3.514004468919999624e+00,0.000000000000000000e+00
6.351844290000000504e-01,-3.223050777120000099e+00,3.612683424180000546e+00,-1.113686750709999984e+01,1.232248425479999909e+00,1.756228327750000151e+00,3.544319868090000103e+00,0.000000000000000000e+00
6.401820150000000487e-01,-3.780756263809999851e+00,3.798791686720000005e+00,-1.118949785809999931e+01,1.248782396320000210e+00,1.799203395840000219e+00,3.547565698619999708e+00,0.000000000000000000e+00
6.452142779999999744e-01,-4.224478520709999962e+00,3.726711077630000091e+00,-1.117521448119999938e+01,1.282098531719999990e+00,1.852525949479999934e+00,3.559510707860000345e+00,0.000000000000000000e+00
6.500441099999999528e-01,-4.517815570359999811e+00,3.541870350809999568e+00,-1.108257945210000095e+01,1.359486818309999956e+00,1.953842759129999829e+00,3.567695140839999723e+00,0.000000000000000000e+00
6.550154200000000149e-01,-4.590558442739999911e+00,3.170774061920000442e+00,-1.085569611160000036e+01,1.404930114749999959e+00,2.008127212520000260e+00,3.553052186969999582e+00,0.000000000000000000e+00
6.601829460000000482e-01,-4.447848592419999747e+00,2.850372479740000298e+00,-1.043076038820000129e+01,1.401365518570000024e+00,2.058112859730000022e+00,3.544557332990000198e+00,0.000000000000000000e+00
6.650456160000000061e-01,-4.178909194190000065e+00,2.520872522090000345e+00,-9.896727161290000296e+00,1.393092751500000004e+00,2.055036306379999900e+00,3.552030563349999781e+00,0.000000000000000000e+00
6.700533779999999773e-01,-3.925433907079999951e+00,2.303033196499999935e+00,-9.424754376939999290e+00,1.369885802270000008e+00,2.018858909610000030e+00,3.525815248490000275e+00,0.000000000000000000e+00
6.749892459999999872e-01,-3.978215064669999634e+00,2.230633146200000194e+00,-8.988058073150000382e+00,1.327542424200000015e+00,1.955208420749999787e+00,3.532584190369999266e+00,0.000000000000000000e+00
6.800312530000000022e-01,-4.231083618069999552e+00,2.193548739429999728e+00,-8.694811624399999772e+00,1.295645475389999968e+00,1.827964782710000069e+00,3.548901557919999838e+00,0.000000000000000000e+00
6.850827470000000474e-01,-4.635988068530000561e+00,2.334109010500000192e+00,-8.561323191410000533e+00,1.268437743189999800e+00,1.731440663340000130e+00,3.566695213319999613e+00,0.000000000000000000e+00
6.900548170000000425e-01,-5.257379845460000034e+00,2.492272450550000240e+00,-8.395086335029999347e+00,1.263291239740000016e+00,1.625791549679999948e+00,3.602096557619999473e+00,0.000000000000000000e+00
6.950384299999999849e-01,-5.712932240880000734e+00,2.636658417390000064e+00,-8.271919974089998462e+00,1.281370520589999895e+00,1.579392671590000186e+00,3.616992473600000313e+00,0.000000000000000000e+00
7.001654050000000185e-01,-6.060809858999999911e+00,2.637085410630000126e+00,-8.086755714400000628e+00,1.261417746540000051e+00,1.512661457060000103e+00,3.637221813200000042e+00,0.000000000000000000e+00
7.051073230000000081e-01,-6.171893567959999771e+00,2.387456423680000217e+00,-7.836207420639999199e+00,1.269044160839999824e+00,1.479076266290000108e+00,3.661999940869999470e+00,0.000000000000000000e+00
7.100516629999999996e-01,-6.057367609599999980e+00,2.105904358249999664e+00,-7.625351670329999720e+00,1.247345685960000061e+00,1.401330828670000139e+00,3.667504072190000297e+00,0.000000000000000000e+00
7.151832000000000189e-01,-5.933025190609999555e+00,1.888444971890000046e+00,-7.255375617649999498e+00,1.181123137470000195e+00,1.333353281020000169e+00,3.696054220199999740e+00,0.000000000000000000e+00
7.200585809999999753e-01,-5.873156705110000431e+00,1.735799710740000057e+00,-7.004113038150000747e+00,1.121256589889999988e+00,1.215559124949999958e+00,3.719547271730000215e+00,0.000000000000000000e+00
7.252150649999999921e-01,-5.883793834450000482e+00,1.802837649490000027e+00,-6.825100871340000985e+00,1.025878667829999813e+00,1.076825618740000046e+00,3.736648082729999931e+00,0.000000000000000000e+00
7.300323629999999619e-01,-5.975160451030000708e+00,1.940246909190000313e+00,-6.654007807100000171e+00,9.421173930169999267e-01,9.685798287389999484e-01,3.752014636989999818e+00,0.000000000000000000e+00
7.350583400000000323e-01,-6.204443838439999581e+00,2.070164497950000015e+00,-6.595887626560000605e+00,8.880333900450000373e-01,8.428382277490000796e-01,3.746618509290000176e+00,0.000000000000000000e+00
7.401858609999999450e-01,-6.378811978829999951e+00,2.073648979070000120e+00,-6.660066961009999176e+00,8.656652569769999195e-01,7.428714632990000011e-01,3.762221813200000042e+00,0.000000000000000000e+00
7.450813870000000394e-01,-6.949114789019999350e+00,2.355776214040000038e+00,-7.012525477180000522e+00,8.632326126100000607e-01,6.548142433169999999e-01,3.770818233490000448e+00,0.000000000000000000e+00
7.499774799999999741e-01,-7.619237571369999351e+00,2.749170990109999657e+00,-7.206887773330000968e+00,8.894733190539999557e-01,6.115334630009999772e-01,3.756487846369999772e+00,0.000000000000000000e+00
7.551853769999999910e-01,-8.072117532710000987e+00,2.945562746259999809e+00,-7.098848254369999111e+00,9.478415250780000134e-01,6.051771640779999295e-01,3.748941898349999580e+00,0.000000000000000000e+00
7.600573579999999607e-01,-8.077352510760000825e+00,2.893774983610000184e+00,-6.786486770789999845e+00,1.009471058849999991e+00,6.155182719230000155e-01,3.711253881449999792e+00,0.000000000000000000e+00
7.650429229999999858e-01,-7.718272530619999294e+00,2.597724291100000027e+00,-6.349782283699999752e+00,1.066601276399999909e+00,6.472511291499999375e-01,3.671363353730000334e+00,0.000000000000000000e+00
7.700471439999999612e-01,-7.101196863330000220e+00,2.307604011550000056e+00,-5.961300852499999969e+00,1.025325059889999890e+00,6.429857611660000360e-01,3.608407020569999624e+00,0.000000000000000000e+00
7.750316510000000436e-01,-6.706489689489999684e+00,1.919226186859999794e+00,-5.576399033359999535e+00,9.668941497799998785e-01,5.758642554280000159e-01,3.564779043199999720e+00,0.000000000000000000e+00
7.800052440000000420e-01,-6.380173914830000292e+00,1.584502210949999990e+00,-5.373772766740000151e+00,8.655394315719999732e-01,4.643196165559999589e-01,3.500578880309999530e+00,0.000000000000000000e+00
7.850004440000000194e-01,-6.132944536369999255e+00,1.809332856729999772e+00,-5.277056021309999956e+00,7.117746472360000354e-01,3.246102333070000068e-01,3.422266721729999794e+00,0.000000000000000000e+00
7.900599579999999511e-01,-6.162170630850000386e+00,2.418698534159999802e+00,-5.233843487049999688e+00,5.959205031390000240e-01,1.822627484800000142e-01,3.357711553569999730e+00,0.000000000000000000e+00
7.950462160000000278e-01,-6.317746392490001028e+00,3.076409140309999568e+00,-5.310066310499999886e+00,4.915007054809999998e-01,7.366976141929999777e-02,3.284558534619999914e+00,0.000000000000000000e+00
8.001544940000000494e-01,-6.691784287790000008e+00,3.306500044700000362e+00,-5.372253594349999162e+00,3.776928782460000633e-01,2.262668916959999915e-03,3.249440193180000325e+00,0.000000000000000000e+00
8.050772229999999530e-01,-7.090558564930000252e+00,3.215224905799999977e+00,-5.495172118010000162e+00,2.727095186710000174e-01,-4.870053753259999396e-02,3.220503330230000127e+00,0.000000000000000000e+00
8.100268590000000435e-01,-7.212795536069999791e+00,3.090624128139999982e+00,-5.494330991009999110e+00,1.702260524029999833e-01,-1.031817272309999978e-01,3.212987422940000393e+00,0.000000000000000000e+00
8.151669459999999479e-01,-7.267817166069999502e+00,3.159225662940000401e+00,-5.427398558459999300e+00,4.709962755440000315e-02,-1.455585956569999950e-01,3.201588869090000511e+00,0.000000000000000000e+00
8.201931730000000531e-01,-7.247950436080000003e+00,3.051145519709999476e+00,-5.280443325659999410e+00,-9.135632216929999438e-02,-1.909311711789999921e-01,3.168136596679999695e+00,0.000000000000000000e+00
8.250745950000000217e-01,-7.289840781830000616e+00,2.884384347200000143e+00,-5.054628491149999903e+00,-2.334197163579999901e-01,-2.547658979890000119e-01,3.128465414049999893e+00,0.000000000000000000e+00
8.300531930000000225e-01,-7.404645557140000278e+00,2.527930916170000319e+00,-4.916549223230000543e+00,-3.351554274560000213e-01,-3.166080117230000157e-01,3.092637538909999595e+00,0.000000000000000000e+00
8.350397680000000156e-01,-7.701905917699999549e+00,2.116231398730000102e+00,-4.948170688419999408e+00,-4.394184648989999942e-01,-4.119390845299999993e-01,3.019175052640000079e+00,0.000000000000000000e+00
8.401736389999999721e-01,-7.915825731760000927e+00,1.721067567169999979e+00,-4.936220722909999914e+00,-5.089048743249999784e-01,-4.889220595359999866e-01,2.935661554340000201e+00,0.000000000000000000e+00
8.450386399999999520e-01,-4.746362460180000298e+00,1.690645394769999976e+00,-6.904567791289999867e+00,-5.596810579300000033e-01,-5.539417862890000377e-01,2.798259019850000140e+00,0.000000000000000000e+00
8.502027960000000384e-01,-7.419961199689999454e+00,-6.188347859160000519e-01,-1.367421390189999997e+01,-1.171113014220000137e+00,-1.094949841500000076e+00,2.558613538739999971e+00,0.000000000000000000e+00
8.551792409999999789e-01,-4.168615179190000575e+00,-6.171194479780000464e+00,-5.131368616479999645e+00,-1.583969235419999899e+00,-1.240739464760000077e+00,2.553623199459999604e+00,0.000000000000000000e+00
8.601740289999999511e-01,-2.748154798799999909e+00,-7.239697571519999819e+00,-6.310933789859999088e+00,-2.118945598600000313e+00,-1.152201533319999971e+00,2.452661991120000273e+00,0.000000000000000000e+00
8.650426390000000021e-01,3.468211240360000058e+00,-9.845846868880000713e+00,-1.136405129190000096e+01,-2.283713102340000134e+00,-1.279306054120000091e+00,2.617043018340000415e+00,0.000000000000000000e+00
8.701956339999999956e-01,2.928972261459999782e+00,-1.066046580039999903e+01,-1.356900229989999929e+01,-2.371114730830000017e+00,-1.313675880429999943e+00,2.688708782200000424e+00,0.000000000000000000e+00
8.750439899999999938e-01,2.755873410359999998e+00,-1.048964979960000043e+01,-1.303339203290000015e+01,-2.222296714779999682e+00,-1.156528472900000049e+00,2.377665519709999842e+00,0.000000000000000000e+00
8.800040390000000157e-01,5.314791585460000078e+00,-8.768012469689999477e+00,-1.285270696440000116e+01,-2.015360832209999842e+00,-1.560406088829999760e+00,1.930484652520000122e+00,0.000000000000000000e+00
8.850075490000000045e-01,3.811156955039999961e+00,-6.912455914189998829e+00,-1.223076632140000086e+01,-1.830931067470000118e+00,-2.072268009190000093e+00,1.155758023259999989e+00,0.000000000000000000e+00
8.901728140000000344e-01,4.472480929370000191e-01,-7.213638416639999384e+00,-1.232171442029999930e+01,-1.612678527829999986e+00,-2.732996940610000092e+00,3.390430212020000278e-01,0.000000000000000000e+00
8.950600859999999770e-01,-4.114614708939999588e+00,-8.200504258649999656e+00,-1.383512225670000007e+01,-1.423290729520000131e+00,-3.243508815770000275e+00,-3.947846889500000178e-01,0.000000000000000000e+00
9.001654749999999927e-01,-7.418340320489998696e+00,-6.718935914080000238e+00,-1.447350783859999979e+01,-1.325381755829999841e+00,-3.450249910350000171e+00,-8.272724151610000298e-01,0.000000000000000000e+00
9.050112740000000322e-01,-9.565523030070000488e+00,-3.330430663129999580e+00,-1.667053857490000013e+01,-1.362371444699999934e+00,-3.558411359790000450e+00,-1.132546663279999866e+00,0.000000000000000000e+00
9.099680079999999949e-01,-1.154070666650000021e+01,2.668162959930000036e-02,-1.793181289420000013e+01,-1.496883988380000030e+00,-3.413114547730000226e+00,-1.205148577689999945e+00,0.000000000000000000e+00
9.151771539999999927e-01,-1.065541670040000000e+01,4.468712809009999454e+00,-1.500741597779999914e+01,-1.504673242570000014e+00,-3.010799884800000381e+00,-1.268497586250000086e+00,0.000000000000000000e+00
9.200660189999999572e-01,-1.102269167739999922e+01,7.474934898899999958e+00,-1.320537473939999984e+01,-1.487652301789999854e+00,-1.732301115990000140e+00,-7.253471016879999844e-01,0.000000000000000000e+00
9.250111819999999874e-01,-6.283111132439999302e+00,6.874142842410000398e+00,-9.863229380830000892e+00,-1.306199908259999987e+00,-9.304901957510000043e-01,-3.447840809820000296e-01,0.000000000000000000e+00
9.300089459999999475e-01,-3.017337650400000015e+00,6.482150772749999845e+00,-1.027638348099999988e+01,-1.107640504839999984e+00,-2.767019867900000207e-01,1.472045481200000006e-01,0.000000000000000000e+00
9.349989749999999544e-01,-8.452844111989999965e-01,4.284027272749999504e+00,-9.802578220519999164e+00,-9.585292339319999577e-01,-4.808424040680000372e-02,2.828406691550000018e-01,0.000000000000000000e+00
9.400248559999999642e-01,-6.902786314700000148e-01,2.315394373159999741e+00,-9.475200369580001336e+00,-8.433489203449999749e-01,-6.628821492199999943e-01,2.496548742060000214e-01,0.000000000000000000e+00
9.451922419999999603e-01,-1.219674480939999972e+00,6.083316216780000341e-01,-8.445197396630000242e+00,-8.221634030339999288e-01,-1.310574293139999957e+00,9.755014628170000091e-02,0.000000000000000000e+00
9.501867960000000002e-01,-3.648995093009999913e+00,-3.914482451090000037e-01,-9.691597387410000763e+00,-8.531172275539999905e-01,-1.825579404829999808e+00,8.643678575750000925e-02,0.000000000000000000e+00
9.551902859999999995e-01,-6.465631015099999601e+00,-1.297025285509999959e+00,-1.299014559630000143e+01,-8.792101740840000401e-01,-2.039240598680000183e+00,4.656570032240000406e-02,0.000000000000000000e+00
9.601797450000000289e-01,-1.008536874169999997e+01,-1.205021101679999873e+00,-1.107761803030000003e+01,-8.292441368100000876e-01,-1.755814433100000072e+00,8.016242831949998982e-02,0.000000000000000000e+00
9.650776869999999619e-01,-8.524250475080000555e+00,3.525987722019999548e+00,-1.132593228140000186e+01,-7.694946527479999965e-01,-1.345348119740000126e+00,-5.363202840089999895e-02,0.000000000000000000e+00
9.700576440000000522e-01,-7.747933509389999251e+00,5.779679964509999657e+00,-9.863863002560000481e+00,-6.752556562420000130e-01,-5.756464600559999534e-01,-9.736019372939999639e-02,0.000000000000000000e+00
9.750575750000000097e-01,-6.536951453470000395e+00,4.930121236989999822e+00,-1.062612163230000029e+01,-6.188572645190000276e-01,6.399817019700000664e-02,3.121565841140000117e-02,0.000000000000000000e+00
9.800458140000000151e-01,-3.829974468230000095e+00,3.283276697770000307e+00,-1.040892732659999886e+01,-5.218672156329999812e-01,3.953573107720000368e-01,1.524432599540000155e-01,0.000000000000000000e+00
9.850420519999999458e-01,-3.085997052860000256e+00,2.025560655470000082e+00,-9.252938843639999078e+00,-3.990845382209999848e-01,3.346085846419999954e-01,1.988077014680000032e-01,1.000000000000000000e+00
9.901853400000000249e-01,-2.252210041109999672e+00,8.770605554929999936e-01,-9.484719893080001185e+00,-2.239183932539999811e-01,5.376930907369999874e-02,1.372133642439999912e-01,1.000000000000000000e+00
9.950430160000000024e-01,-2.314235558520000069e+00,9.830653537530000818e-01,-9.976189405060001292e+00,-1.282647103070000127e-01,-2.888790071010000071e-01,-1.038635335859999960e-02,1.000000000000000000e+00
1.000002934999999926e+00,-2.655436475359999715e+00,1.128654485839999833e+00,-9.836353064349999897e+00,-1.023234203460000047e-01,-4.543028473849999860e-01,-4.784440621730001036e-02,1.000000000000000000e+00
1.005104581000000108e+00,-3.435913191079999596e+00,1.712677047700000177e+00,-9.738489486969999831e+00,-9.213164448739999401e-02,-4.689615666870000088e-01,-7.400713115930000752e-02,1.000000000000000000e+00
1.010058576999999902e+00,-3.742815240219999673e+00,1.596174382430000094e+00,-9.966906028410001284e+00,-1.106594130400000153e-01,-3.134942650790000229e-01,-6.580440700049999814e-02,1.000000000000000000e+00
1.015136473999999955e+00,-3.488134961230000108e+00,1.302158556750000029e+00,-9.639809917030000008e+00,-7.684262096879999893e-02,-1.343537420030000151e-01,-9.229939430950000190e-02,1.000000000000000000e+00
1.020066171999999938e+00,-3.655243339750000153e+00,6.628451194910000011e-01,-9.863975230770000380e+00,-6.714814901349999698e-02,3.469789028169999873e-02,-5.946756526830000028e-02,1.000000000000000000e+00
1.025038037000000068e+00,-2.891529835040000052e+00,3.048418834700000191e-01,-9.679877139000000241e+00,-1.105441302059999992e-01,8.311059325930000852e-02,-2.341838181019999937e-02,1.000000000000000000e+00
1.030036954000000060e+00,-2.574189978520000199e+00,3.945921326250000361e-01,-9.640849196950000533e+00,-1.266421824689999975e-01,6.994864903389999902e-03,-8.671574294569999938e-03,1.000000000000000000e+00
1.035030443999999994e+00,-2.560481478899999885e+00,5.943572741979999963e-01,-9.392796227139999843e+00,-1.092643216249999938e-01,-7.851199805740000093e-02,-2.446413040159999691e-02,1.000000000000000000e+00
1.040160229000000047e+00,-2.402465192240000214e+00,1.019113110950000012e+00,-9.458419330650000845e+00,-7.516697049140000364e-02,-1.795596927399999987e-01,-4.893476888539999986e-02,1.000000000000000000e+00
1.045073101000000060e+00,-2.469010525159999858e+00,1.253424628720000156e+00,-9.497982110239998832e+00,-1.226472388950000138e-02,-2.109887599949999970e-01,-8.637685328720000333e-02,1.000000000000000000e+00
1.050181757999999910e+00,-2.970883942259999966e+00,1.229180414300000024e+00,-9.719690678470000123e+00,2.826060168450000160e-02,-1.724813580510000111e-01,-7.658901810649999808e-02,1.000000000000000000e+00
1.055044007000000006e+00,-3.042475598790000291e+00,1.183161736570000011e+00,-9.700960259039998590e+00,4.622853547330000451e-02,-9.316632151599998912e-02,-6.004423275589999831e-02,1.000000000000000000e+00
1.060192733000000054e+00,-2.835737512929999760e+00,1.079474786800000086e+00,-9.508892795830000466e+00,3.769049048419999964e-02,-5.637494474650000392e-02,-5.251122266049999820e-02,1.000000000000000000e+00
1.065005135000000047e+00,-2.477546298320000062e+00,8.698681597709999602e-01,-9.418093750009999710e+00,4.432409629230000397e-02,-4.603660106659999973e-02,-7.850915938619999757e-02,1.000000000000000000e+00
1.070176923000000002e+00,-2.349683888519999986e+00,8.897910038590000070e-01,-9.517583467279999709e+00,4.244836047290000136e-02,-6.597092747690000425e-02,-8.060087263579999994e-02,1.000000000000000000e+00
1.075176831000000055e+00,-2.387812251379999751e+00,1.037886492740000000e+00,-9.468311194589999147e+00,5.931897088890000086e-02,-1.234116554260000082e-01,-8.815977722410001105e-02,1.000000000000000000e+00
1.080186129999999967e+00,-2.557105280459999630e+00,1.095211869639999946e+00,-9.389907519960001281e+00,7.392501086000000110e-02,-1.614414453509999958e-01,-1.149115562439999849e-01,1.000000000000000000e+00
1.085064639999999914e+00,-2.934043865640000082e+00,9.914328576690000228e-01,-9.422520334279999688e+00,1.023148000239999938e-01,-1.753951013089999900e-01,-1.169244050980000060e-01,1.000000000000000000e+00
1.090189869999999894e+00,-3.030067368110000103e+00,7.035263086430000312e-01,-9.335068260790000849e+00,1.127531081440000110e-01,-1.536491215230000040e-01,-1.234922334550000028e-01,1.000000000000000000e+00
1.095043207000000018e+00,-2.945202388510000269e+00,2.914552910159999843e-01,-9.339569663869999872e+00,1.086487248540000117e-01,-1.171220019459999900e-01,-1.053969115020000069e-01,1.000000000000000000e+00
1.099980783999999989e+00,-2.902667315120000424e+00,3.325660672249999839e-01,-9.543414074110000200e+00,1.171830594539999965e-01,-7.174135744569999640e-02,-1.168758571149999953e-01,1.000000000000000000e+00
1.105068028000000036e+00,-3.076765990920000249e+00,4.915707438649999927e-01,-9.507147413469999364e+00,7.732044905419999115e-02,-5.252425745130000906e-02,-1.096026524900000215e-01,1.000000000000000000e+00
1.109999874999999969e+00,-3.081863314059999581e+00,2.652385344159999825e-01,-9.295050138660000627e+00,6.367168575529999486e-02,-7.762706279749999327e-02,-1.293214708569999927e-01,1.000000000000000000e+00
1.115180963000000025e+00,-3.044221273409999817e+00,-8.164936941910000412e-02,-9.341913012120000914e+00,7.260662317280000555e-02,-6.037291511890000018e-02,-1.187108829619999972e-01,1.000000000000000000e+00
1.120044760999999944e+00,-2.856972316399999823e+00,-2.938341763759999906e-02,-9.406458257269999734e+00,8.982058614489998871e-02,-6.737730652090000161e-02,-1.038147285579999884e-01,1.000000000000000000e+00
1.125215018000000011e+00,-2.830976582139999920e+00,8.441157327459999915e-02,-9.467050965400000351e+00,9.017828106879999250e-02,-1.842170767490000291e-02,-1.208219975230000048e-01,1.000000000000000000e+00
1.130046260000000080e+00,-2.977432925510000050e+00,2.065381428400000219e-01,-9.412742452110000713e+00,6.109904870389999687e-02,-2.416445873679999579e-02,-1.102793216709999913e-01,1.000000000000000000e+00
1.135171512999999965e+00,-2.852752360609999815e+00,-1.022554739299999932e-01,-9.320191594180000649e+00,2.969352342190000396e-02,-4.155030474069999931e-03,-1.156826689839999950e-01,1.000000000000000000e+00
1.140173357999999970e+00,-2.821837582390000154e+00,-2.580485498460000082e-01,-9.433855382760000907e+00,3.858378529550000186e-02,-6.252055522050000737e-03,-1.114542782310000008e-01,1.000000000000000000e+00
1.145013988000000094e+00,-2.836237863660000080e+00,9.027155134920000767e-03,-9.495584401439998601e+00,2.078875340520000212e-02,2.313711913300000277e-03,-9.717614948750000203e-02,1.000000000000000000e+00
1.149954469000000090e+00,-2.853557831779999887e+00,3.606681991800000375e-01,-9.561477554069998774e+00,3.482387866820000309e-03,9.058822877709999527e-03,-9.262223541740000066e-02,1.000000000000000000e+00
1.154999448000000095e+00,-2.926059004359999882e+00,5.031346692020000066e-01,-9.481884961919998744e+00,2.505495212969999653e-03,-5.621395539489999933e-03,-8.398905396460000505e-02,1.000000000000000000e+00
1.160002192000000099e+00,-2.912559179059999614e+00,5.123694209390000642e-01,-9.506371752919999807e+00,3.110369481150000032e-02,-1.661685854199999868e-02,-7.244663685560001620e-02,1.000000000000000000e+00
1.165007015999999895e+00,-2.846748444020000157e+00,4.843164618870000049e-01,-9.444476145499999475e+00,2.787449583410000001e-02,-1.492122886700000123e-03,-8.848743885760000649e-02,1.000000000000000000e+00
1.169965118999999998e+00,-2.993409662319999942e+00,4.676912711050000282e-01,-9.455299737329999843e+00,2.941130101679999970e-02,6.481858436020000117e-04,-4.701156541709999859e-02,1.000000000000000000e+00
1.175187210999999898e+00,-2.823203610049999757e+00,4.554013330479999566e-01,-9.464912199800000536e+00,4.564569145439999892e-02,1.465037837620000206e-02,-4.789287224410000016e-02,1.000000000000000000e+00
1.180045953999999897e+00,-2.794958051030000057e+00,4.210074074719999948e-01,-9.432713811510000212e+00,4.319959506389999676e-02,-9.290933609009999899e-03,-3.780216351150000181e-02,1.000000000000000000e+00
1.185048577000000103e+00,-2.777605057429999746e+00,3.153198950000000167e-01,-9.411728891150000109e+00,4.773825779559999483e-02,-1.631993451160000186e-03,-3.556810319419999311e-02,1.000000000000000000e+00
1.190162122000000045e+00,-2.739795258999999650e+00,2.990057429280000290e-01,-9.476043250149999153e+00,3.736008703709999684e-02,3.113341517749999821e-04,-1.074848696590000041e-02,1.000000000000000000e+00
1.195033320000000066e+00,-2.626473123459999837e+00,3.666774495329999661e-01,-9.464099714380001416e+00,7.011517882349999065e-02,-1.995762065049999992e-02,-1.080648042260000039e-02,1.000000000000000000e+00
1.199992951999999891e+00,-2.702158771300000151e+00,4.704173716010000006e-01,-9.446128588880000621e+00,5.866442248229999934e-02,-3.380585834379999655e-02,1.335383579129999915e-02,1.000000000000000000e+00
1.205202105999999995e+00,-2.787205244949999994e+00,5.800226420390000026e-01,-9.467824872379999590e+00,5.594192072750000383e-02,-4.325854778289999619e-02,2.928823046390000365e-02,1.000000000000000000e+00
1.210043605000000078e+00,-2.754428764509999628e+00,6.683472971039999821e-01,-9.413729125059999703e+00,6.499273329969999791e-02,-7.477974891659999734e-02,5.190150067209999690e-02,1.000000000000000000e+00
1.215065958000000057e+00,-2.680856163290000094e+00,5.570331038560000225e-01,-9.369092695470000010e+00,6.928732991219999082e-02,-5.575672164559999228e-02,2.149024978279999790e-02,1.000000000000000000e+00
1.220169214000000002e+00,-2.762892641470000132e+00,4.125411193569999968e-01,-9.437066161499998884e+00,7.157500088210000389e-02,-6.412791460750000283e-02,2.979425527160000156e-02,1.000000000000000000e+00
1.225190336000000046e+00,-2.663187527869999904e+00,4.047534976879999524e-01,-9.356024539579999910e+00,8.628216385839998503e-02,-5.594192817810000190e-02,1.048494316639999972e-02,1.000000000000000000e+00
1.230181041999999891e+00,-2.798744876090000222e+00,6.807082545700000598e-01,-9.401347197869998951e+00,8.179364353419998901e-02,-6.576818972830000831e-02,4.545591305939998897e-03,1.000000000000000000e+00
1.235046413000000065e+00,-2.898067127850000091e+00,7.537714449539999473e-01,-9.383501744569999303e+00,8.330117911100000383e-02,-6.184521690010000294e-02,-7.621217519039999357e-04,1.000000000000000000e+00
1.240112601999999953e+00,-2.853069463740000256e+00,4.638224668479999924e-01,-9.347102397460000489e+00,9.995526820419999015e-02,-7.786297798160000949e-02,-2.402631007129999927e-02,1.000000000000000000e+00
1.245216644000000095e+00,-2.878120902890000554e+00,3.504493317769999949e-01,-9.243184926869998819e+00,7.693661749360000690e-02,-5.268684774640000623e-02,-2.249058894810000014e-02,1.000000000000000000e+00
1.250201348999999906e+00,-2.908079403299999921e+00,1.156152697089999903e-01,-9.310115605850000975e+00,1.002011448139999983e-01,-5.627902224659999536e-02,-1.564475521449999740e-02,1.000000000000000000e+00
1.255171696999999975e+00,-2.798823494290000102e+00,5.054266708630000132e-02,-9.384057040369999214e+00,8.714332431549999536e-02,-6.065829843280000355e-02,-3.585319966080000031e-02,1.000000000000000000e+00
1.260182238999999926e+00,-2.846772117159999560e+00,1.392564675990000111e-01,-9.440804178989999684e+00,6.966607272619999847e-02,-7.681356370450000137e-02,-3.095626458530000014e-02,1.000000000000000000e+00
1.265047221999999971e+00,-2.787233009740000433e+00,2.334221859760000073e-01,-9.400928680189998943e+00,5.866981670259999865e-02,-8.016902208330001223e-02,-3.544634208080000431e-02,1.000000000000000000e+00
1.270049605000000081e+00,-2.863658954549999969e+00,2.526473118570000120e-01,-9.400697794050000056e+00,5.261253193020000440e-02,-7.058008015160001369e-02,-2.826753258709999855e-02,1.000000000000000000e+00
1.275044464999999905e+00,-2.947885343989999907e+00,1.986898587579999931e-01,-9.364478479669999800e+00,6.478948891159999612e-02,-6.963450461630001087e-02,-4.137282073499999602e-02,1.000000000000000000e+00
1.279999638000000051e+00,-2.919191164420000373e+00,1.937708330620000197e-01,-9.348956500889999077e+00,4.384266585109999198e-02,-8.206497877839999400e-02,-2.702475897970000110e-02,1.000000000000000000e+00
1.285009888999999905e+00,-2.936455895219999945e+00,2.560589651979999770e-01,-9.315970177089999638e+00,4.402173683050000091e-02,-9.738137572999998326e-02,-2.526695653799999886e-02,1.000000000000000000e+00
1.290181698999999904e+00,-2.965380960930000143e+00,3.173737953229999742e-01,-9.376189960259999623e+00,4.109059274199999834e-02,-9.124945104119999706e-02,-6.517420057210000089e-03,1.000000000000000000e+00
1.295062941000000079e+00,-2.921438066569999936e+00,4.289688878710000153e-01,-9.399746192410001200e+00,2.048314921559999877e-02,-8.136717230079999752e-02,-8.675359189510000249e-03,1.000000000000000000e+00
1.300043795999999974e+00,-2.936981088129999584e+00,4.978862471540000390e-01,-9.413011916700000370e+00,3.700694814319999831e-02,-8.551400154829999489e-02,-9.074671193959998536e-03,1.000000000000000000e+00
1.305219300000000082e+00,-2.881672457890000150e+00,4.177032513599999719e-01,-9.437366021229999902e+00,4.428760334850000147e-02,-9.128662198780000681e-02,1.895703375339999851e-03,1.000000000000000000e+00
1.310031127000000017e+00,-2.817545730410000004e+00,2.430605683450000054e-01,-9.400059496139999027e+00,5.831405147910000142e-02,-8.099009096619999570e-02,-3.534517949449999565e-03,1.000000000000000000e+00
1.315176863000000029e+00,-2.751814198089999941e+00,1.084257965960000042e-01,-9.386382852969999746e+00,4.425380378959999084e-02,-9.447660297160001552e-02,6.470690015699999756e-03,1.000000000000000000e+00
1.320141610999999937e+00,-2.633002817489999980e+00,-1.341461753810000157e-01,-9.476780332249999717e+00,4.920151084660000229e-02,-1.004354879260000027e-01,2.580054104329999962e-03,1.000000000000000000e+00
1.325101681000000031e+00,-2.568287184209999907e+00,-4.221058702330000023e-01,-9.591706688110001267e+00,2.446412108840000446e-02,-1.078125685450000010e-01,8.933978155259999707e-03,1.000000000000000000e+00
1.330049617000000017e+00,-2.711227628420000091e+00,-5.473294559660000225e-01,-9.553118891049999561e+00,-1.253782957789999902e-02,-1.237866580489999924e-01,1.341525837779999897e-02,1.000000000000000000e+00
1.335028131000000062e+00,-2.560830146209999825e+00,5.790040943790000089e-02,-9.504166936349999872e+00,-4.068961739540000178e-02,-1.348392814400000139e-01,3.109808079899999828e-02,1.000000000000000000e+00
1.340037581000000033e+00,-2.708371946729999813e+00,6.327582434590000027e-01,-9.391594450139999495e+00,-7.701392471789998695e-02,-1.557184904810000048e-01,4.416714236139999972e-02,1.000000000000000000e+00
1.345186020000000093e+00,-2.706013985429999824e+00,7.579231623729999583e-03,-9.359225381449999048e+00,-5.943067744369999461e-02,-1.657906472679999965e-01,2.775241807099999847e-02,1.000000000000000000e+00
1.350189816000000098e+00,-2.602886203909999807e+00,-2.049996264270000090e-01,-9.413328727559999720e+00,-5.174522474410000322e-02,-1.529894769190000003e-01,1.363260857760000000e-02,1.000000000000000000e+00
1.355053242999999963e+00,-2.624128606159999766e+00,3.484439102380000597e-02,-9.439370931310000046e+00,-5.364709720020000017e-02,-1.842414587739999998e-01,3.919090330600000227e-02,1.000000000000000000e+00
1.360170564999999998e+00,-2.489121877559999696e+00,-6.137515461009999951e-02,-9.532615032200000726e+00,-9.961633384230000887e-02,-2.138724923130000122e-01,3.231584280729999509e-02,1.000000000000000000e+00
1.365051953000000040e+00,-2.584945181290000171e+00,1.313809644339999916e-02,-9.622139820299999258e+00,-1.183247864249999948e-01,-2.258160859349999938e-01,2.420037053530000107e-02,1.000000000000000000e+00
1.370150403000000017e+00,-2.540592537080000213e+00,6.202515939109999321e-01,-9.697319272190000561e+00,-1.286460161209999897e-01,-2.456481158729999781e-01,8.682608604430000921e-04,1.000000000000000000e+00
1.375175817999999994e+00,-2.804716059460000022e+00,3.806205616239999867e-01,-9.581485153830000101e+00,-1.161861941220000000e-01,-2.843741476539999868e-01,-5.405981093649999021e-03,1.000000000000000000e+00
1.380053457999999900e+00,-2.961574554379999835e+00,6.652684741800000134e-01,-9.481103456150000497e+00,-8.373805880550000413e-02,-2.976225912570000243e-01,-1.218818500639999927e-02,1.000000000000000000e+00
1.385215665999999901e+00,-2.819677481750000325e+00,7.569602310580000326e-01,-9.405162956760001691e+00,-5.933172255749999402e-02,-3.225762546059999791e-01,-1.232224330310000178e-02,1.000000000000000000e+00
1.390152837999999891e+00,-2.658988907140000357e+00,7.592601785639999656e-01,-9.638262103060000641e+00,-2.786114625630000188e-02,-3.532528281210000065e-01,-3.180038183930000012e-02,1.000000000000000000e+00
1.395017162000000033e+00,-2.663680864349999844e+00,8.129553822639999927e-01,-9.762279527880000529e+00,1.960660703479999781e-02,-3.553570210930000473e-01,-5.661579221490000563e-02,1.000000000000000000e+00
1.400034985000000010e+00,-2.757695657350000218e+00,6.599285744569999279e-01,-9.861872121010000214e+00,6.423463672399999658e-02,-3.904912769789999905e-01,-4.584306105969999934e-02,1.000000000000000000e+00
1.405210488999999896e+00,-2.676873523399999844e+00,6.436362688910000074e-01,-9.936047948809999752e+00,1.047758981589999999e-01,-4.157309234139999754e-01,-4.966436699030001012e-02,1.000000000000000000e+00
1.410070525999999935e+00,-2.534129770809999904e+00,6.903524273590000426e-01,-9.984176312160000677e+00,1.422485113140000146e-01,-4.438027739520000181e-01,-6.247462704780000486e-02,1.000000000000000000e+00
1.415191343000000046e+00,-2.374463086590000049e+00,4.981763892069999700e-01,-1.013076972590000047e+01,1.790261119599999839e-01,-4.855076670650000370e-01,-7.238440960649999978e-02,1.000000000000000000e+00
1.420173992000000052e+00,-2.291616461079999834e+00,4.853451838810000085e-01,-1.034295117190000113e+01,2.041521966460000115e-01,-5.270795822139999753e-01,-8.334233611819999443e-02,1.000000000000000000e+00
1.425069308000000090e+00,-2.207442970879999855e+00,8.879758441949999748e-01,-1.050190839260000075e+01,2.365261316300000249e-01,-5.927242040629999709e-01,-7.841517776249999627e-02,1.000000000000000000e+00
1.430174939000000034e+00,-2.204908776229999923e+00,1.103646301309999966e+00,-1.045591704129999933e+01,2.887493968010000356e-01,-6.872299313549999900e-01,-7.141408324239999217e-02,1.000000000000000000e+00
1.435030346000000012e+00,-2.351726061869999995e+00,9.905649887930000341e-01,-1.054046930169999996e+01,3.600335121149999540e-01,-7.747936248780000756e-01,-8.187007158989999256e-02,0.000000000000000000e+00
1.440036944999999902e+00,-2.309118215500000293e+00,9.923783948909999930e-01,-1.060830306700000136e+01,4.294948875900000407e-01,-8.505536317829999193e-01,-1.169647574420000086e-01,1.000000000000000000e+00
1.445229228999999949e+00,-2.423923721460000014e+00,1.273270608179999819e+00,-1.072932715520000002e+01,4.856020510199999807e-01,-9.328300356859999809e-01,-9.843101352449999675e-02,0.000000000000000000e+00
1.450176713999999922e+00,-2.320892093799999945e+00,9.456372481129999841e-01,-1.091293015689999990e+01,5.832578539850000743e-01,-1.031101226810000160e+00,-1.137958690520000093e-01,0.000000000000000000e+00
1.455049717999999936e+00,-2.418620500490000325e+00,1.087654732260000090e+00,-1.116576276219999997e+01,6.515114903449999995e-01,-1.145756483079999999e+00,-1.188690587879999983e-01,0.000000000000000000e+00
1.460150623999999953e+00,-2.439783992290000203e+00,1.386034086920000075e+00,-1.118471880710000121e+01,7.009069919589999698e-01,-1.260866761209999964e+00,-1.106468439099999868e-01,0.000000000000000000e+00
1.465023699000000068e+00,-2.250521357370000253e+00,1.197927124829999856e+00,-1.128629935920000094e+01,7.500178813930000743e-01,-1.382380008699999996e+00,-1.295986771579999974e-01,0.000000000000000000e+00
1.470026542000000047e+00,-2.104948080440000258e+00,8.812604914010000456e-01,-1.152607023839999911e+01,7.781657576559999345e-01,-1.510352849959999855e+00,-1.403621137140000086e-01,0.000000000000000000e+00
1.475166248999999929e+00,-2.017911163630000004e+00,8.279004379390000334e-01,-1.175650981010000073e+01,8.070477843279999508e-01,-1.633148670200000208e+00,-1.632975041870000088e-01,0.000000000000000000e+00
1.480063750000000011e+00,-1.943838211679999928e+00,6.539620672679999913e-01,-1.189687105140000156e+01,8.001314401629999740e-01,-1.786745905879999929e+00,-1.863138973710000146e-01,0.000000000000000000e+00
1.485043061000000053e+00,-1.975644239650000022e+00,6.499968899639999576e-01,-1.207829729359999860e+01,7.810636162759999612e-01,-1.976685047149999930e+00,-1.879632771020000037e-01,0.000000000000000000e+00
1.490065819000000014e+00,-1.774579523249999902e+00,6.460554588619999983e-01,-1.217819792979999960e+01,7.628903388979999534e-01,-2.174998283390000342e+00,-1.893283128740000099e-01,0.000000000000000000e+00
1.495042878000000020e+00,-1.820850860560000006e+00,7.362880299079999080e-01,-1.194467208250000034e+01,8.037596940989999439e-01,-2.355454444890000332e+00,-1.911748945710000092e-01,0.000000000000000000e+00
1.500039437999999947e+00,-1.887502722599999849e+00,7.741061577789999371e-01,-1.215531039069999864e+01,8.178970217700000100e-01,-2.544731855390000241e+00,-2.108089774849999931e-01,0.000000000000000000e+00
1.505004065999999918e+00,-1.779060321929999855e+00,1.167066999410000028e+00,-1.218820143740000006e+01,9.026119709010000935e-01,-2.729606389999999827e+00,-2.161320894959999905e-01,0.000000000000000000e+00
1.510063455999999915e+00,-1.531877120699999928e+00,1.360792239760000077e+00,-1.225993630179999982e+01,9.876937270160000004e-01,-2.934264183040000251e+00,-2.404404431580000057e-01,0.000000000000000000e+00
1.515190591000000087e+00,-1.256256198880000063e+00,1.706206390379999771e+00,-1.278201488710000078e+01,1.114579677579999872e+00,-3.166034221650000369e+00,-2.649904787540000028e-01,0.000000000000000000e+00
1.520172201000000056e+00,-9.426441307109999501e-01,2.600643101159999748e+00,-1.321013742380000089e+01,1.246814608570000038e+00,-3.442065954209999834e+00,-2.884690165520000238e-01,0.000000000000000000e+00
1.525107535000000070e+00,-3.828179986029999760e-01,3.187382374629999848e+00,-1.391791276819999901e+01,1.437781214710000199e+00,-3.733038663859999939e+00,-3.266727924350000256e-01,0.000000000000000000e+00
1.530181658000000056e+00,3.803415254869999540e-01,4.007041638450000498e+00,-1.471372529239999949e+01,1.645318388940000043e+00,-4.042233467099999977e+00,-3.911488950249999985e-01,0.000000000000000000e+00
1.535052598000000046e+00,9.831522283189999545e-01,5.139997913130000207e+00,-1.537088571740000020e+01,1.943157792090000280e+00,-4.425517082209999842e+00,-4.641224741939999898e-01,0.000000000000000000e+00
1.540051470000000089e+00,2.240400799240000129e+00,5.311002130050000325e+00,-1.575499609390000089e+01,2.259895563129999729e+00,-4.869561672209999692e+00,-5.866382718089999670e-01,0.000000000000000000e+00
1.545224224000000035e+00,2.992924509150000301e+00,5.099105930780000406e+00,-1.574846581529999945e+01,2.635408163070000143e+00,-5.347308158869999772e+00,-7.120652198790000664e-01,0.000000000000000000e+00
1.550051971000000028e+00,3.334551250190000093e+00,5.622215612640000693e+00,-1.539149595920000024e+01,3.042736530299999576e+00,-5.927076816560000516e+00,-8.597599864010000426e-01,0.000000000000000000e+00
1.554987509999999906e+00,3.990338340930000616e+00,5.221998150950000195e+00,-1.571117565680000006e+01,3.486425161359999692e+00,-6.557049751280000116e+00,-9.634125828740001118e-01,0.000000000000000000e+00
1.560148676999999928e+00,3.412629638389999887e+00,4.803647358930000166e+00,-1.498938230849999975e+01,3.936372041700000324e+00,-7.229907989500000909e+00,-1.096819281579999972e+00,0.000000000000000000e+00
1.565023030000000093e+00,1.790436140820000244e+00,4.303143768890000054e+00,-1.488079684609999909e+01,4.501232624050000020e+00,-7.836933612819999340e+00,-1.141054630279999982e+00,0.000000000000000000e+00
1.570143626999999986e+00,8.206240171949999995e-01,4.473086201790000160e+00,-1.414985923729999939e+01,5.097693920140000223e+00,-8.385030746460000017e+00,-1.115921497340000013e+00,0.000000000000000000e+00
1.575179105999999996e+00,-1.601158600589999814e+00,4.065581213440000674e+00,-1.544428296200000084e+01,5.641418933869999819e+00,-8.797277450560001100e+00,-1.012466430659999972e+00,0.000000000000000000e+00
1.580035652999999929e+00,-5.227173507759999893e+00,4.397307907230000090e+00,-1.362768362140000100e+01,6.228634357449999825e+00,-8.996747016910001449e+00,-1.048473238949999997e+00,0.000000000000000000e+00
1.585001171999999903e+00,-9.438908574500000981e+00,4.809503976010000237e+00,-1.424862122480000082e+01,6.504670143130001136e+00,-9.071894645689999592e+00,-9.875197410580000001e-01,0.000000000000000000e+00
1.590132789000000102e+00,-1.267853580789999945e+01,3.603624503929999889e+00,-1.369849377220000086e+01,6.398810386660000127e+00,-9.012418746950000781e+00,-9.997833371160000926e-01,0.000000000000000000e+00
1.595041042000000076e+00,-1.362064948499999950e+01,-2.189806922549999868e+00,-1.322498895589999890e+01,6.050676822660000731e+00,-8.906303405760001013e+00,-1.020542144779999827e+00,0.000000000000000000e+00
1.600043142000000085e+00,-1.385851248470000030e+01,-9.176526635089999218e+00,-1.373393099630000158e+01,5.589069843289999895e+00,-8.590703964230000267e+00,-1.067486286160000075e+00,0.000000000000000000e+00
1.605202239000000031e+00,-1.642421637440000026e+01,-1.159729539970000012e+01,-1.530221608579999959e+01,4.904101371769999496e+00,-8.138680458069998735e+00,-8.635374307629999358e-01,0.000000000000000000e+00
1.610047511999999958e+00,-1.521744521420000140e+01,-1.268802961239999938e+01,-1.497403627079999922e+01,4.206845283509999867e+00,-7.732938289639999851e+00,-6.985826492309999969e-01,0.000000000000000000e+00
1.615041681999999978e+00,-1.512190861849999912e+01,-1.094898697420000033e+01,-1.385881994319999855e+01,3.799966335299999720e+00,-7.535921573639999593e+00,-5.646891593930000175e-01,0.000000000000000000e+00
1.620013981000000047e+00,-1.661050233159999934e+01,-6.607075960049999530e+00,-1.716651007449999966e+01,3.848687410350000171e+00,-7.358429908749999804e+00,-4.253982603550000019e-01,0.000000000000000000e+00
1.625143862999999911e+00,-1.793969108019999936e+01,-3.706607908540000107e+00,-1.710456828979999955e+01,4.101516246800000154e+00,-7.175441741939998508e+00,-1.372712999579999982e-01,0.000000000000000000e+00
1.630052857999999993e+00,-1.461882114940000044e+01,-1.523599852350000061e+00,-1.739711681940000076e+01,4.593755722050000045e+00,-6.957151889800000433e+00,2.225646674629999933e-01,0.000000000000000000e+00
1.635178566000000000e+00,-1.259578855109999829e+01,2.079972738729999812e-02,-1.920288730749999928e+01,5.171622276309999933e+00,-6.705182075499999783e+00,4.449091553689999978e-01,0.000000000000000000e+00
1.640168212000000070e+00,-1.538703605719999956e+01,-1.665741401260000254e+00,-1.656688413919999903e+01,5.387131690980000442e+00,-6.169374465939999830e+00,5.546523928640000323e-01,0.000000000000000000e+00
1.645204032999999955e+00,-1.940030256150000199e+01,-2.959154926020000076e+00,-1.463026608799999906e+01,5.276133537290000675e+00,-5.182254791260000104e+00,7.361743450159999869e-01,0.000000000000000000e+00
1.650034396999999986e+00,-2.047061124130000209e+01,-5.045744927469999475e+00,-1.087226029290000007e+01,5.065223217009999779e+00,-3.648311614990000340e+00,1.204575419429999794e+00,0.000000000000000000e+00
1.655029583999999998e+00,-1.291681849430000106e+01,-3.108430418470000234e+00,-9.964032518799999849e+00,5.043479919430000180e+00,-1.670721054079999934e+00,1.701724648479999935e+00,0.000000000000000000e+00
1.660177089999999911e+00,4.329959002840000792e+00,-1.261098962739999996e+00,-1.176992224930000042e+01,5.188584804530000483e+00,3.974123299119999841e-01,2.048491954799999792e+00,0.000000000000000000e+00
1.665051151999999979e+00,2.140093628099999989e+01,-2.363675296729999875e+00,-1.127178918779999961e+01,5.322938919069999386e+00,2.189184427259999843e+00,2.505408763890000223e+00,0.000000000000000000e+00
1.670173958999999986e+00,6.262784968250000084e+00,-2.762008844370000382e+00,-6.477208640169999754e+00,5.021938800810000103e+00,2.591939449309999866e+00,2.709474086759999789e+00,0.000000000000000000e+00
1.675023230999999946e+00,-8.158547861930001588e+00,-8.471559918380000553e+00,-1.450593477490000005e+01,4.152898311610000448e+00,1.878961443899999750e+00,2.713216543199999720e+00,0.000000000000000000e+00
1.679999883000000027e+00,-1.393548349619999804e+01,-1.361370536489999949e+01,-2.066411604390000178e+01,3.527868032459999803e+00,2.245180130000000052e+00,3.358781814579999914e+00,0.000000000000000000e+00
1.684995819000000061e+00,-4.587900329450000037e+00,-8.477105277550000650e+00,-1.973018801130000099e+01,2.965688705440000295e+00,2.598090410230000202e+00,3.202013969420000272e+00,0.000000000000000000e+00
1.690169888000000009e+00,4.307130500440000453e+00,-1.871224372499999955e+00,-1.463579215789999921e+01,2.707924842829999790e+00,3.423766136169999807e+00,2.839871168140000179e+00,0.000000000000000000e+00
1.695022012999999994e+00,6.124255618480000329e+00,2.323000610379999831e+00,-1.172220305130000106e+01,2.308954477309999920e+00,4.530854225159999693e+00,2.624095678330000236e+00,0.000000000000000000e+00
1.699995476000000005e+00,-9.206865659249999778e-01,5.213591118739999697e-01,-9.077448421219999730e+00,1.789554119109999730e+00,5.866126537319999557e+00,2.845026254649999586e+00,0.000000000000000000e+00
1.705157260000000008e+00,1.577744991770000160e+00,-1.762337442929999831e+00,-7.833191872220000462e+00,1.465190649029999959e+00,6.444727420809999607e+00,3.010854959490000038e+00,0.000000000000000000e+00
1.710000715999999921e+00,4.474494899549999793e+00,-1.878172438070000005e+00,-7.006137821970000346e+00,1.523397684099999871e+00,6.114263057710000560e+00,3.279222965239999787e+00,0.000000000000000000e+00
1.715032338000000101e+00,6.093045072180000687e+00,1.526462840560000034e+00,-6.512459986290000558e+00,1.639667987820000006e+00,5.661201000210000167e+00,3.249098777770000002e+00,0.000000000000000000e+00
1.720126054999999932e+00,6.388830684019999318e+00,4.377897981100000280e+00,-6.969771208080000946e+00,1.724109292029999851e+00,5.173551559449999893e+00,3.100096940990000327e+00,0.000000000000000000e+00
1.725169688999999895e+00,7.441175252629999903e+00,6.277454129589999710e+00,-7.192792027960000389e+00,1.767475962640000287e+00,4.675627231600000044e+00,2.783145189290000321e+00,0.000000000000000000e+00
1.730035441999999923e+00,5.755228829340000019e+00,6.897327903160000773e+00,-6.817339589689999535e+00,1.826698899270000176e+00,4.431109428409999218e+00,2.562563896179999912e+00,0.000000000000000000e+00
1.735149175000000099e+00,4.218974662599999981e+00,6.373748850219999262e+00,-7.259914430119999373e+00,1.918780326840000106e+00,4.358454704280000591e+00,2.435708284379999977e+00,0.000000000000000000e+00
1.740011446000000017e+00,3.314041546119999904e+00,6.719525112150000368e+00,-7.382813080039999143e+00,2.037002563479999750e+00,4.395251274110000494e+00,2.333362102509999758e+00,0.000000000000000000e+00
1.745148946000000034e+00,2.140914881350000076e+00,6.904022432369999684e+00,-7.802050299500000285e+00,2.169954538350000295e+00,4.497825622559999736e+00,2.301709413529999804e+00,0.000000000000000000e+00
1.749949054000000004e+00,1.442810743889999969e+00,6.514597582840000456e+00,-8.127188262549999820e+00,2.238706588749999948e+00,4.564444065090000002e+00,2.295637607569999794e+00,0.000000000000000000e+00
1.754956240999999917e+00,1.595032518920000086e+00,6.538116405599999403e+00,-8.678222308649999661e+00,2.254363060000000196e+00,4.656013488769999320e+00,2.253230571750000077e+00,0.000000000000000000e+00
1.759956246000000002e+00,1.902565267179999964e+00,6.919792248430000292e+00,-9.146011085319999623e+00,2.259155988690000338e+00,4.679559230799999803e+00,2.174587965009999735e+00,0.000000000000000000e+00
1.765013812000000071e+00,1.780346123960000027e+00,7.325394325770000492e+00,-9.917260246230000575e+00,2.281477689739999981e+00,4.758720874790000721e+00,2.057657003400000129e+00,0.000000000000000000e+00
1.770127164000000031e+00,7.175017886339999373e-01,7.771839285630000482e+00,-1.079479945210000125e+01,2.266873121259999735e+00,4.851626396180000356e+00,2.026574850079999823e+00,0.000000000000000000e+00
1.775123696999999945e+00,-2.700014745009999828e-01,8.115160555619999272e+00,-1.138000406329999947e+01,2.279505014420000197e+00,5.012169837950000151e+00,2.018570899959999831e+00,0.000000000000000000e+00
1.780017632999999933e+00,-1.345745185019999957e+00,8.563697519330000674e+00,-1.152789043950000014e+01,2.340680122380000228e+00,5.239716053010000429e+00,2.038919925690000134e+00,0.000000000000000000e+00
1.785042604000000033e+00,-1.818907909799999834e+00,9.237239170209999628e+00,-1.158902558400000160e+01,2.418218612670000045e+00,5.469722747799999674e+00,2.029485940929999899e+00,0.000000000000000000e+00
1.789996469000000090e+00,-2.343463991090000142e+00,9.605388007469999323e+00,-1.160125612000000039e+01,2.502422571179999888e+00,5.749237537379999985e+00,2.038895845409999907e+00,0.000000000000000000e+00
1.795023266000000062e+00,-2.591794024269999941e+00,9.669199093119999588e+00,-1.153439850619999874e+01,2.617966890339999964e+00,6.009605407710000513e+00,1.999751210209999908e+00,0.000000000000000000e+00
1.799959593999999941e+00,-2.673841023840000108e+00,9.706112234969999975e+00,-1.143837325019999973e+01,2.727522611619999982e+00,6.292986869809999106e+00,1.969868540759999842e+00,0.000000000000000000e+00
1.805013825000000072e+00,-2.498098964740000039e+00,9.807504571000000837e+00,-1.130983337950000056e+01,2.799725532530000116e+00,6.534046173099999244e+00,1.989419698720000129e+00,0.000000000000000000e+00
1.810006148999999898e+00,-2.108378639409999700e+00,9.906999548980000014e+00,-1.122789743910000126e+01,2.865840911870000340e+00,6.689474582669999947e+00,1.985628724099999909e+00,0.000000000000000000e+00
1.815138900000000000e+00,-1.846941287370000184e+00,1.002640334250000009e+01,-1.107700545140000159e+01,2.939345121380000148e+00,6.805015563960000513e+00,1.981174707409999902e+00,0.000000000000000000e+00
1.820134106000000029e+00,-1.760024635940000026e+00,1.029440779799999994e+01,-1.099239123170000099e+01,2.972924947739999713e+00,6.833143711089999961e+00,1.987132430079999956e+00,0.000000000000000000e+00
1.825165168999999921e+00,-1.822340076209999937e+00,1.034274892730000062e+01,-1.107508237440000087e+01,3.034198760990000299e+00,6.852078437810000366e+00,1.987342357640000223e+00,0.000000000000000000e+00
1.830135174999999892e+00,-2.092077492949999673e+00,1.013230701850000059e+01,-1.116320957059999941e+01,3.055565595629999631e+00,6.786543369290000349e+00,1.998528599739999967e+00,0.000000000000000000e+00
1.834992385000000059e+00,-2.288657026750000156e+00,9.876948109589999802e+00,-1.131700780119999905e+01,3.046204805369999935e+00,6.723743438719999688e+00,2.031393527979999725e+00,0.000000000000000000e+00
1.839999319999999994e+00,-2.498654552800000150e+00,9.555606031689999114e+00,-1.167758298829999930e+01,3.017802000050000100e+00,6.631603240969999646e+00,2.084511280059999638e+00,0.000000000000000000e+00
1.845044515999999968e+00,-2.991488338870000430e+00,9.420296813010001102e+00,-1.220419395630000103e+01,2.935350179669999893e+00,6.565892219540000241e+00,2.200934410099999905e+00,0.000000000000000000e+00
1.850134324999999968e+00,-3.613733225490000311e+00,9.212582867849999246e+00,-1.279935882060000019e+01,2.891803741459999522e+00,6.485377788540000132e+00,2.341294527050000074e+00,0.000000000000000000e+00
1.855009238999999921e+00,-4.430523363609999876e+00,8.905582034520000079e+00,-1.341470138050000038e+01,2.780650138850000008e+00,6.408175945280000008e+00,2.489041566850000109e+00,0.000000000000000000e+00
1.860153807000000103e+00,-5.468056732069999981e+00,8.639170401199999461e+00,-1.420762052140000087e+01,2.721492290500000077e+00,6.362741470340000483e+00,2.691973686219999884e+00,0.000000000000000000e+00
1.865025061000000095e+00,-6.381448757070000255e+00,8.451451780850000262e+00,-1.525733532599999975e+01,2.607066869740000126e+00,6.351961135859999885e+00,2.883223533629999835e+00,0.000000000000000000e+00
1.870128967000000086e+00,-7.219096097519999589e+00,8.595070562710001028e+00,-1.619611839739999937e+01,2.512230873110000040e+00,6.328948974609999389e+00,3.065906286240000167e+00,0.000000000000000000e+00
1.875028568000000062e+00,-8.208387705379999844e+00,9.201794931860000304e+00,-1.677125754170000249e+01,2.439464569090000090e+00,6.327869415280000354e+00,3.201454877850000269e+00,0.000000000000000000e+00
1.880004320000000062e+00,-9.463965858859999969e+00,1.002557332139999957e+01,-1.709362136390000231e+01,2.377742767330000007e+00,6.347504138949999763e+00,3.318852663040000373e+00,0.000000000000000000e+00
1.885003548000000029e+00,-1.083769634450000119e+01,1.147782380160000137e+01,-1.700528373970000118e+01,2.349434614179999770e+00,6.400213718409999863e+00,3.417603015899999708e+00,0.000000000000000000e+00
1.890177100999999915e+00,-1.249236090980000036e+01,1.306699736529999889e+01,-1.648506159599999776e+01,2.393135547640000471e+00,6.482837200160000535e+00,3.480841875080000314e+00,0.000000000000000000e+00
1.895043038000000069e+00,-1.389741124740000089e+01,1.337891110520000026e+01,-1.636513290179999913e+01,2.522665739059999801e+00,6.556590080260000342e+00,3.534424066540000631e+00,0.000000000000000000e+00
1.899987254000000014e+00,-1.507944310319999914e+01,1.304979488609999905e+01,-1.651698818160000215e+01,2.657186269759999941e+00,6.624333381649999630e+00,3.626157283780000018e+00,0.000000000000000000e+00
1.905035846999999949e+00,-1.604507326490000096e+01,1.270373805369999864e+01,-1.624480673269999897e+01,2.767694711690000364e+00,6.643117427830000032e+00,3.695722341540000233e+00,0.000000000000000000e+00
1.910042607000000059e+00,-1.676912754390000160e+01,1.204318506369999930e+01,-1.591509196330000009e+01,2.753353595730000158e+00,6.623649120329999640e+00,3.751290082930000214e+00,0.000000000000000000e+00
1.915051563000000012e+00,-1.737679533140000032e+01,1.115093811809999913e+01,-1.562883639630000054e+01,2.632203817370000198e+00,6.550383567809999974e+00,3.805506467819999461e+00,0.000000000000000000e+00
1.920135146000000015e+00,-1.791194850229999957e+01,1.040388757889999916e+01,-1.547122825209999952e+01,2.390707254409999649e+00,6.445896148680000159e+00,3.812656402590000049e+00,0.000000000000000000e+00
1.925166052000000017e+00,-1.852563803430000178e+01,9.931057300910000052e+00,-1.522699279470000100e+01,2.073524713519999896e+00,6.291557788849999611e+00,3.822365045550000229e+00,0.000000000000000000e+00
1.930048860000000088e+00,-1.942481857860000005e+01,9.726580437989998273e+00,-1.485299932309999882e+01,1.722942352290000034e+00,6.054398536679999943e+00,3.863024234770000120e+00,0.000000000000000000e+00
1.935178687000000064e+00,-2.057205852239999899e+01,9.627340896079999766e+00,-1.408275027910000077e+01,1.395683646199999961e+00,5.785769939419998842e+00,3.963673591610000102e+00,0.000000000000000000e+00
1.940047510999999947e+00,-2.198255660400000266e+01,9.339809902360000748e+00,-1.305388887740000037e+01,1.122530579570000020e+00,5.472375869750000454e+00,4.122977256769999599e+00,0.000000000000000000e+00
1.945017640999999964e+00,-2.345874793169999961e+01,8.775897085460000469e+00,-1.185897182109999903e+01,9.094091653820000065e-01,5.141181468959999279e+00,4.304620742800000066e+00,0.000000000000000000e+00
1.950130066000000051e+00,-2.483236034389999958e+01,7.850993486369999275e+00,-1.042954224460000034e+01,7.792778611180000148e-01,4.836198806759999691e+00,4.495567321780000292e+00,0.000000000000000000e+00
1.955165695999999897e+00,-2.583431035780000329e+01,6.685218937919999327e+00,-9.090111503439999296e+00,6.524428129199999482e-01,4.508152961730000463e+00,4.648907661440000005e+00,0.000000000000000000e+00
1.960025372999999904e+00,-2.645340321020000118e+01,5.349129323869999730e+00,-7.927563515830001073e+00,5.650952458380000820e-01,4.153023242949999805e+00,4.718893051150000240e+00,0.000000000000000000e+00
1.965153506999999911e+00,-2.676297301719999666e+01,3.931269189100000450e+00,-6.484553742240000140e+00,4.564665853980000576e-01,3.846784830089999829e+00,4.679031372069999861e+00,0.000000000000000000e+00
1.970033675999999900e+00,-2.677593537459999951e+01,2.777186539760000183e+00,-4.697530624730000604e+00,3.466277420520000319e-01,3.502608776090000209e+00,4.497356891630000852e+00,0.000000000000000000e+00
1.975029624000000039e+00,-2.657641233469999875e+01,2.318089457459999725e+00,-2.749925315610000087e+00,2.673330605029999862e-01,3.149948596949999846e+00,4.213170051569999686e+00,0.000000000000000000e+00
1.979964229999999992e+00,-2.626055541019999851e+01,2.616177939419999987e+00,-7.085933097090000299e-01,2.080992609259999793e-01,2.753510952000000067e+00,3.780743598940000005e+00,0.000000000000000000e+00
1.984999928999999996e+00,-2.591080556849999894e+01,3.494966853069999768e+00,6.769704562809999437e-01,2.246595621110000218e-01,2.317961454390000231e+00,3.184917926790000298e+00,0.000000000000000000e+00
1.990164008999999901e+00,-2.591650816399999968e+01,3.745863814130000691e+00,2.374728751790000203e+00,2.580892443660000035e-01,1.869634509090000174e+00,2.465253353120000046e+00,0.000000000000000000e+00
1.995028145999999891e+00,-2.633292155830000070e+01,4.320582394949999738e+00,3.302908742209999637e+00,3.070935606960000230e-01,1.405694127080000078e+00,1.694169044489999942e+00,0.000000000000000000e+00
1.999929204000000071e+00,-2.561317403650000202e+01,4.396801126749999789e+00,3.563854511340000197e+00,2.710845470430000015e-01,9.579174518590000131e-01,8.476226925850000038e-01,0.000000000000000000e+00
2.005006031000000188e+00,-2.450454643969999680e+01,3.809676945609999699e+00,3.001970277659999908e+00,1.876123398539999987e-01,5.194762349129999901e-01,2.281293272970000285e-02,0.000000000000000000e+00
2.010021168999999830e+00,-2.394882043639999836e+01,3.098150139729999974e+00,1.237832945699999909e+00,-3.130122646690000621e-02,1.261685192579999892e-01,-6.874598264689999461e-01,0.000000000000000000e+00
2.015180371000000026e+00,-2.336638879690000081e+01,2.810017088479999980e+00,-6.277783361540000273e-01,-3.244060873990000093e-01,-2.420064508910000078e-01,-1.239304184909999940e+00,0.000000000000000000e+00
2.020175619999999839e+00,-2.316708319920000037e+01,2.980099222109999779e+00,-2.157463718959999888e+00,-6.429962515830000003e-01,-5.425826311110000244e-01,-1.568566441539999801e+00,0.000000000000000000e+00
2.025040735000000147e+00,-2.265812829940000128e+01,3.651037997009999536e+00,-3.186838184750000025e+00,-9.197387099269999089e-01,-7.819766998289999771e-01,-1.738299489020000088e+00,0.000000000000000000e+00
2.030146416000000009e+00,-2.135026057119999976e+01,4.529186274680000679e+00,-4.411330587360000166e+00,-1.124477863310000103e+00,-9.412134885789998906e-01,-1.756461262700000026e+00,0.000000000000000000e+00
2.035187066000000211e+00,-1.002173535070000021e+01,-2.367134205009999715e+00,-1.946448189590000055e+01,-2.249913930890000024e+00,-6.795619130130000629e-01,-2.251892805099999784e+00,0.000000000000000000e+00
2.040024926000000072e+00,-1.275640932119999960e+01,5.995646189700000406e+00,-9.302060309679999861e+00,-2.855555772779999835e+00,-1.793709158899999823e+00,-1.790409445759999718e+00,0.000000000000000000e+00
2.045185935000000121e+00,-2.851921462749999581e+00,-8.499917413340000394e+00,-6.774176155269999278e+00,-3.789189100269999333e+00,-1.629010200500000227e+00,-1.801284074779999855e+00,0.000000000000000000e+00
2.050018833000000207e+00,8.721553500860000696e+00,-7.844909198019998975e+00,-1.227162907770000011e+01,-3.521706104280000194e+00,-1.080031275750000130e+00,-1.255753397939999960e+00,0.000000000000000000e+00
2.055029730000000221e+00,1.636350793089999911e+01,-3.326989875020000209e+00,-2.074915696460000092e+01,-3.425493240360000247e+00,-8.159579038619999558e-01,-7.246127128599999523e-01,0.000000000000000000e+00
2.060037778999999958e+00,2.528702485059999816e+01,6.780160928769999318e-01,-2.054346371160000118e+01,-2.952086687089999995e+00,8.731869608160000573e-02,-2.968526780610000193e-01,0.000000000000000000e+00
2.065038577999999792e+00,2.873183680289999842e+01,-1.527321503220000043e+00,-2.216652200929999950e+01,-2.648565292359999823e+00,-2.967665158210000195e-02,-3.975847363469999785e-01,0.000000000000000000e+00
2.070029577000000121e+00,1.865032590570000082e+01,5.634795108230000515e+00,-1.286467914169999993e+01,-2.790165901179999519e+00,-1.313203930849999868e+00,-1.010442495349999970e+00,0.000000000000000000e+00
2.075023006999999975e+00,1.157032292929999873e+00,6.804348590690000087e+00,-5.702597309349999755e+00,-3.190424919129999815e+00,-2.835162162780000106e+00,-1.630640625949999922e+00,0.000000000000000000e+00
2.079996395000000220e+00,-1.041858830440000006e+01,7.995183346110001033e+00,-4.587076153589999983e+00,-3.491423130040000267e+00,-4.230428695680000573e+00,-1.692901730539999816e+00,0.000000000000000000e+00
2.085024884000000078e+00,-1.108571599660000118e+01,8.326796058139999346e+00,-6.733645991959999577e+00,-3.154050588610000094e+00,-5.217333316800000453e+00,-1.768341541290000096e+00,0.000000000000000000e+00
2.090010964999999832e+00,-1.753307193479999881e+01,1.291592066869999833e+01,-9.519133034810000282e+00,-2.094454050059999961e+00,-5.126498699189999897e+00,-1.712103962899999887e+00,0.000000000000000000e+00
2.095054344999999874e+00,-1.652015512119999840e+01,1.593819928259999941e+01,-1.885312343720000072e+01,-1.126046299929999828e+00,-4.258518695830000311e+00,-1.539593696590000116e+00,0.000000000000000000e+00
2.099996127999999906e+00,-1.373141170690000123e+01,1.161193650390000087e+01,-1.362092421030000011e+01,1.345592886210000005e-01,-2.963277816769999795e+00,-1.132243394849999918e+00,0.000000000000000000e+00
2.105017875000000149e+00,-1.092190958219999963e+01,5.859150391580000061e+00,-1.557652051819999883e+01,4.465096890929999840e-01,-1.398036360739999928e+00,-4.684463143350000025e-01,0.000000000000000000e+00
2.109997659999999886e+00,-3.620486206880000335e+00,4.172220802470000045e+00,-1.265659051809999980e+01,4.398873448369999134e-02,-5.437942147250000025e-01,1.040516868229999919e-01,0.000000000000000000e+00
2.115128724999999932e+00,-9.027460547610000052e-01,4.340239281569999719e+00,-9.621208092410000745e+00,-6.945627927779999267e-01,-7.180341482160000899e-01,4.542224109170000523e-01,0.000000000000000000e+00
2.120134204999999827e+00,1.218215075910000111e+00,3.337510684520000215e+00,-6.807386350949999887e+00,-9.161052107809999345e-01,-1.315528154370000147e+00,3.238125145440000074e-01,0.000000000000000000e+00
2.125015702999999867e+00,-1.521779505050000036e+00,9.217410434139999831e-01,-9.618514031020000132e+00,-7.477217912670000022e-01,-1.995797276500000050e+00,1.647668033840000157e-01,0.000000000000000000e+00
2.130010475000000181e+00,-3.076896631559999484e+00,-2.469851067640000064e+00,-1.173222175650000132e+01,-5.761494636539999936e-01,-2.421838760380000011e+00,1.256549209360000030e-01,0.000000000000000000e+00
2.135139942999999985e+00,-5.556767281179999962e+00,-4.747720596789999803e+00,-1.232079087570000020e+01,-5.882849097249999160e-01,-2.702949047089999723e+00,1.322507858280000115e-01,0.000000000000000000e+00
2.140014647000000103e+00,-9.483577737310000089e+00,-4.499236249830000034e+00,-1.284371467969999969e+01,-6.584185361859999919e-01,-2.529910564420000174e+00,1.539682596920000091e-01,0.000000000000000000e+00
2.145151364999999810e+00,-8.549225341860001492e+00,-1.853454614789999955e+00,-1.378215755929999986e+01,-8.364357948299999679e-01,-2.322209596630000039e+00,-1.655479818579999873e-01,0.000000000000000000e+00
2.150010559000000043e+00,-1.042764137940000069e+01,-5.672895998570000042e-01,-1.336257254930000116e+01,-9.089401364329999788e-01,-1.402587652210000257e+00,-2.659935057160000005e-01,0.000000000000000000e+00
2.155008425000000116e+00,-8.618108323950000482e+00,1.251928544939999943e+00,-1.170876840020000031e+01,-1.041357040410000101e+00,-5.076030492780000403e-01,-1.544562913479999820e-02,0.000000000000000000e+00
2.160108092999999840e+00,-4.129395806219999798e+00,5.218003528359999699e+00,-9.672977442609999699e+00,-1.010018229479999974e+00,-3.123250231149999820e-02,2.259139567610000121e-01,0.000000000000000000e+00
2.165170149000000155e+00,-2.720199747170000126e+00,5.919497016000000222e+00,-8.181126773489999948e+00,-8.187600374219999866e-01,-1.084621474150000014e-01,2.750548422340000077e-01,0.000000000000000000e+00
2.170118151000000051e+00,-2.680630537849999939e+00,4.035506393169999484e+00,-9.917596930840000269e+00,-5.205196738239999954e-01,-4.291035830969999743e-01,1.793951094150000036e-01,0.000000000000000000e+00
2.174982945000000001e+00,-3.482631395369999439e+00,1.194721241470000139e+00,-1.002451533679999862e+01,-3.205936551090000086e-01,-7.022880911830000628e-01,7.277685403820000065e-02,1.000000000000000000e+00
2.179933158999999954e+00,-3.307458368339999843e+00,1.670312398970000001e-01,-9.911687414530000240e+00,-1.804676204919999916e-01,-8.889926671979999639e-01,1.608881168070000131e-02,0.000000000000000000e+00
2.184994759999999925e+00,-4.399317201230000585e+00,-1.810906353119999812e-01,-1.026963926740000055e+01,-1.238852366809999883e-01,-8.370814323430000314e-01,1.847026310859999770e-02,0.000000000000000000e+00
2.190141692000000084e+00,-4.058771241159999654e+00,1.934460946200000087e-01,-1.045183240240000089e+01,-1.802005618809999765e-01,-6.162453889850000310e-01,-1.974672265349999845e-02,0.000000000000000000e+00
2.195007073999999836e+00,-3.940591728719999853e+00,1.599013697510000220e+00,-1.046194580010000053e+01,-2.731704711910000194e-01,-3.483321666720000098e-01,-7.811103761200000051e-02,0.000000000000000000e+00
2.200017579999999917e+00,-4.246172758390000190e+00,1.117596939120000021e+00,-1.029903954939999977e+01,-3.321098983290000084e-01,-1.384503543380000146e-01,5.056784022600000796e-03,1.000000000000000000e+00
2.205017937000000039e+00,-3.182811121190000314e+00,1.015945586830000025e+00,-9.786443078270000484e+00,-3.089921176429999972e-01,-5.400358512999999666e-02,8.626113086940000174e-02,1.000000000000000000e+00
2.209959829000000209e+00,-2.880514520030000192e+00,7.786220277680000468e-01,-9.363472517499999981e+00,-2.239129543300000247e-01,-8.375439792870000011e-02,1.151399388910000071e-01,1.000000000000000000e+00
2.214996478999999852e+00,-2.443197746250000080e+00,8.819058035669999907e-01,-9.432686338979999974e+00,-1.488668024539999968e-01,-1.976789534089999911e-01,3.358704596759999605e-02,1.000000000000000000e+00
2.220010777000000157e+00,-2.346846765390000034e+00,7.945828363580000886e-01,-9.289728066860000411e+00,-1.262514293189999914e-01,-3.010751903059999957e-01,-1.983990333969999978e-02,1.000000000000000000e+00
2.225016715999999839e+00,-2.673594940120000096e+00,8.126919090219999475e-01,-9.518623331729999748e+00,-9.644792228939999545e-02,-3.351095020769999655e-01,-5.743386596440000491e-02,1.000000000000000000e+00
2.230123664999999811e+00,-3.084122198899999834e+00,9.061136314980000606e-01,-9.848931975410000206e+00,-8.000282943249999168e-02,-2.768988311289999893e-01,-4.608856514100000135e-02,1.000000000000000000e+00
2.235013578999999861e+00,-3.132674925149999900e+00,1.043262778949999969e+00,-9.669790629269998661e+00,-6.496073305610000626e-02,-2.152243554589999830e-01,-1.002618856729999876e-02,1.000000000000000000e+00
2.240016797000000004e+00,-2.850047777829999962e+00,9.672807785129999836e-01,-9.419548624990000008e+00,-6.662923842670000207e-02,-1.110819280149999977e-01,4.233196377749999842e-04,1.000000000000000000e+00
2.245169214000000135e+00,-2.219059466650000090e+00,6.766974114939999785e-01,-9.336854559689999888e+00,-7.109974324699999682e-02,-8.784101158380000496e-02,1.078937388960000097e-02,1.000000000000000000e+00
2.250006958999999807e+00,-1.738416030720000061e+00,3.914132833929999666e-01,-9.420707147369999035e+00,-5.935113877059999821e-02,-1.469359993930000052e-01,-1.521617360410000043e-02,1.000000000000000000e+00
2.255005965000000057e+00,-1.289744480850000041e+00,5.407396292459999421e-01,-9.729388481139999101e+00,-4.408078640699999995e-02,-2.264055758709999921e-01,-6.465287506580000287e-02,1.000000000000000000e+00
2.260123892999999828e+00,-2.071066707489999992e+00,6.433544562749999862e-01,-9.143999160970000872e+00,-5.700350925329999985e-02,-3.040015399460000434e-01,-5.544412881140000499e-02,1.000000000000000000e+00
2.265178956000000188e+00,-2.015214179630000046e+00,8.102049875769999909e-01,-9.122586370589999660e+00,-1.770650222899999848e-02,-3.533242344860000328e-01,-9.452652186160000192e-02,1.000000000000000000e+00
2.270139878000000166e+00,-2.716572204319999795e+00,6.636432841309999331e-01,-9.266055514850000563e+00,-3.445618599650000086e-02,-3.494429588319999946e-01,-8.548887073989998309e-02,1.000000000000000000e+00
2.275165814999999814e+00,-2.663437410979999864e+00,3.624607816859999887e-01,-9.275946209739998949e+00,-3.858230262989999909e-02,-2.928728759290000205e-01,-8.060047775510001400e-02,1.000000000000000000e+00
2.280185105999999795e+00,-2.589694421639999966e+00,2.471417549769999722e-01,-9.258006648420000317e+00,-2.311103790999999644e-02,-2.705967724319999768e-01,-9.966339915989998188e-02,1.000000000000000000e+00
2.285024487999999909e+00,-2.686951265299999836e+00,2.201836054250000119e-01,-9.366357133030000170e+00,-3.759092837569999457e-02,-2.438923865560000126e-01,-9.031763672830001033e-02,1.000000000000000000e+00
2.290171788999999958e+00,-2.657049171250000175e+00,4.053970562879999906e-01,-9.400300319159999418e+00,-7.096359878779999464e-02,-2.643969953060000266e-01,-8.915307372810001019e-02,1.000000000000000000e+00
2.295056982999999828e+00,-3.148352971270000467e+00,8.462106591989999593e-01,-9.518195461699999527e+00,-8.450873941179999627e-02,-2.382359057660000112e-01,-8.421238511799999937e-02,1.000000000000000000e+00
2.300033802999999821e+00,-3.498124440319999362e+00,8.733241454430000772e-01,-9.543497660739998167e+00,-9.030617773530000281e-02,-2.386376112699999663e-01,-6.668680906299999378e-02,1.000000000000000000e+00
2.305223616999999781e+00,-3.474470885269999698e+00,6.237443313980000070e-01,-9.515722349589999851e+00,-9.014177322389999025e-02,-1.982552856210000047e-01,-5.663642659780000060e-02,1.000000000000000000e+00
2.310038534999999893e+00,-3.305047507809999452e+00,2.446685149979999918e-01,-9.412344977220000075e+00,-7.204096764330000791e-02,-1.265534609560000079e-01,-5.740306898950000430e-02,1.000000000000000000e+00
2.315180253999999938e+00,-3.369847019979999470e+00,1.601319636370000105e-02,-9.596928806679999369e+00,-7.132104784249999885e-02,-6.269631534809999573e-02,-4.383265972140000521e-02,1.000000000000000000e+00
2.320157796000000161e+00,-3.218105429670000017e+00,7.570059424970000672e-02,-9.653785835409999905e+00,-9.497401863339999251e-02,-1.187918148929999890e-02,-3.892966359850000280e-02,1.000000000000000000e+00
2.325020562999999818e+00,-2.956177956040000332e+00,5.536734181650000419e-01,-9.559286181499999202e+00,-1.102184951310000022e-01,-1.474599912759999923e-02,-2.380753494799999967e-02,1.000000000000000000e+00
2.330135272999999785e+00,-2.865696305600000215e+00,9.636424220110000327e-01,-9.588460838060001379e+00,-1.288206875319999889e-01,-1.351077947769999989e-02,-3.440160304309999861e-02,1.000000000000000000e+00
2.335176397000000126e+00,-3.042066141199999851e+00,9.224493378139999589e-01,-9.461017530450000379e+00,-1.183749437329999904e-01,1.144438702610000094e-02,-2.967242524030000092e-02,1.000000000000000000e+00
2.339991105999999821e+00,-3.084739454020000160e+00,7.577855759670000246e-01,-9.405765014310000893e+00,-8.261963725090000488e-02,2.631484717129999734e-02,-3.069465793669999901e-02,1.000000000000000000e+00
2.345204526999999928e+00,-3.160255590509999823e+00,6.894455416470000042e-01,-9.484081010649999754e+00,-3.504455834630000599e-02,4.675921425219999733e-02,-1.279077865180000030e-02,1.000000000000000000e+00
2.350050940000000033e+00,-3.037848231249999920e+00,6.138255794520000030e-01,-9.393919093690000111e+00,-3.705829847599999630e-03,7.389898598189999224e-02,-1.811418496070000064e-02,1.000000000000000000e+00
2.355171184000000029e+00,-3.064728931650000376e+00,7.113741725990000431e-01,-9.537254382440000455e+00,-1.035133842379999886e-03,8.743167668580001384e-02,-1.888007670640000010e-02,1.000000000000000000e+00
2.360041932000000120e+00,-2.916499733379999793e+00,7.786036883939999598e-01,-9.376983740980000093e+00,-8.656824938950001547e-03,8.474811911580000523e-02,1.413978077470000143e-02,1.000000000000000000e+00
2.365067207000000060e+00,-2.969187367470000005e+00,7.164957533970000014e-01,-9.460973106789998255e+00,-1.683019800109999747e-03,9.747324883940000628e-02,6.912521552290000655e-03,1.000000000000000000e+00
2.370022635000000211e+00,-2.985978927799999738e+00,5.007727623759999913e-01,-9.365708898250000303e+00,1.139581482860000175e-02,8.202848583459999843e-02,1.757962070409999772e-02,1.000000000000000000e+00
2.375135615000000033e+00,-2.818089920290000272e+00,6.096748529800000149e-01,-9.367121687660000973e+00,2.478146180509999824e-02,9.247094392780000338e-02,1.615244522690000017e-02,1.000000000000000000e+00
2.380061417999999929e+00,-2.754103770340000423e+00,7.238801645600000390e-01,-9.337676981989998737e+00,5.369842797519999711e-02,1.007348895070000055e-01,1.604926399889999855e-02,1.000000000000000000e+00
2.385060380000000091e+00,-2.782771061890000119e+00,7.019348016680000413e-01,-9.409575512510000905e+00,4.824038967489999857e-02,1.058880612250000103e-01,1.808372326200000102e-02,0.000000000000000000e+00
2.390191064000000143e+00,-2.693256502919999740e+00,6.319427623569999763e-01,-9.359770155850000606e+00,5.470001697540000096e-02,9.131322056060001136e-02,9.338645264510000293e-03,0.000000000000000000e+00
2.395052453999999997e+00,-2.572480544250000278e+00,6.086995782080000250e-01,-9.521772151149999530e+00,6.498856097459999870e-02,6.030301377180000838e-02,1.785350032150000003e-04,0.000000000000000000e+00
2.400007467000000005e+00,-2.604668411150000029e+00,7.158114243940000287e-01,-9.522035770519998721e+00,6.075515598059999522e-02,4.484994336959999967e-02,-1.464629312980000051e-03,0.000000000000000000e+00
2.405219178999999929e+00,-2.648742822940000075e+00,6.112605878019999883e-01,-9.525974863530001002e+00,4.326656833290000448e-02,3.093365021049999941e-02,-2.866496564820000294e-03,0.000000000000000000e+00
2.409979589999999838e+00,-2.790298242530000028e+00,6.510664188920000095e-01,-9.518686460089998747e+00,4.073319956659999380e-02,9.194971062239999313e-03,-1.921973191200000057e-03,1.000000000000000000e+00
2.415046261000000083e+00,-2.564063136780000196e+00,6.024972529689999190e-01,-9.544843230130000578e+00,4.787888377900000048e-02,6.441676989200000036e-03,-7.564964238550000476e-03,1.000000000000000000e+00
2.420016915999999796e+00,-2.404192600560000059e+00,4.469574028949999667e-01,-9.588608137579999635e+00,7.838698476550000349e-02,-1.370139420029999923e-02,-1.920066215099999751e-02,1.000000000000000000e+00
2.425208078999999906e+00,-2.443249038050000266e+00,5.744722048370000111e-01,-9.568680032789998791e+00,7.340595871210001122e-02,-3.274666517969999913e-02,-2.082910947499999957e-02,1.000000000000000000e+00
2.430022150000000103e+00,-2.397081307250000126e+00,5.085530409890000048e-01,-9.609918636630000677e+00,6.281606853009999436e-02,-5.206746235490000013e-02,-2.585165202619999977e-02,1.000000000000000000e+00
2.435178657999999885e+00,-2.360472409029999774e+00,4.355588241879999600e-01,-9.653983988330001154e+00,6.250634044410000034e-02,-8.476673811669999115e-02,-4.164582490919999797e-02,1.000000000000000000e+00
2.440031788000000201e+00,-2.327242047340000397e+00,5.067812455430000806e-01,-9.636626610820000494e+00,7.956633716819999647e-02,-1.039453074340000033e-01,-3.228962048890000186e-02,1.000000000000000000e+00
2.445033351999999827e+00,-2.338566574429999712e+00,5.876777599019999965e-01,-9.645987144360001153e+00,6.510678678749999559e-02,-1.467858850960000183e-01,-3.049293160440000316e-02,1.000000000000000000e+00
2.450031565000000189e+00,-2.380129149529999655e+00,7.756332942810000297e-01,-9.667155604590000451e+00,7.145896553989998512e-02,-1.859205663199999803e-01,-3.644346445800000084e-02,1.000000000000000000e+00
2.455030160000000183e+00,-2.358506369659999713e+00,9.148314101560000022e-01,-9.656714290080000040e+00,7.913272082810000885e-02,-1.879880726339999975e-01,-4.493866860870000118e-02,1.000000000000000000e+00
2.460028878000000141e+00,-2.568349728059999837e+00,9.248764918960000747e-01,-9.545636426339999758e+00,7.736463099719999292e-02,-2.253488302230000073e-01,-5.411398410799999475e-02,1.000000000000000000e+00
2.465030538000000160e+00,-2.651005214910000074e+00,7.080032348610000303e-01,-9.492408694019999871e+00,9.331902116540000125e-02,-2.604965269569999853e-01,-6.916055083269999348e-02,1.000000000000000000e+00
2.470036604000000136e+00,-2.652920400879999807e+00,5.040324582919999408e-01,-9.437308738089999594e+00,7.678113877770000040e-02,-2.645038664339999790e-01,-1.030740514399999946e-01,1.000000000000000000e+00
2.475026648000000051e+00,-2.632930336779999880e+00,2.551581667340000262e-02,-9.480228426880000114e+00,6.134802848100000261e-02,-3.007542192939999803e-01,-1.497899293900000206e-01,1.000000000000000000e+00
2.479998639000000171e+00,-2.723981896050000184e+00,2.112317440160000059e-01,-9.587379472569999450e+00,3.070781193670000034e-02,-3.138252794740000184e-01,-1.355023831130000023e-01,0.000000000000000000e+00
2.484999177999999809e+00,-2.618730546510000146e+00,9.741749219410000826e-01,-9.517415709499999821e+00,-7.162204012270000260e-03,-3.200337588789999854e-01,-1.592374444009999890e-01,0.000000000000000000e+00
2.489971134000000141e+00,-2.726423736250000118e+00,7.853877955760000251e-01,-9.493515778480000833e+00,-3.433272242550000283e-03,-3.435321152210000228e-01,-1.466127336030000061e-01,0.000000000000000000e+00
2.494973236999999955e+00,-2.762629606620000011e+00,5.320984594879999419e-01,-9.641880878080000272e+00,1.447184476999999886e-02,-3.649746775630000051e-01,-1.385317146780000175e-01,0.000000000000000000e+00
2.499995717000000006e+00,-2.713537366669999784e+00,6.574401917069999657e-01,-9.694055886479999273e+00,7.513245195150000666e-02,-3.807296752929999473e-01,-1.143476590509999863e-01,0.000000000000000000e+00
2.505215694999999965e+00,-2.430236265610000057e+00,5.204242787089999878e-01,-9.895725290770000626e+00,1.158159673210000101e-01,-4.092197418209999604e-01,-1.121648550029999969e-01,1.000000000000000000e+00
2.510021082000000181e+00,-2.091145765049999827e+00,3.932087154420000341e-01,-1.017121045740000085e+01,1.334927678110000016e-01,-4.572433233259999841e-01,-1.224945038560000116e-01,1.000000000000000000e+00
2.515160841000000147e+00,-1.899553225880000085e+00,2.044452622140000009e-01,-1.032793363549999910e+01,1.611941903830000078e-01,-5.258025526999999810e-01,-1.362732350830000161e-01,1.000000000000000000e+00
2.520165571999999798e+00,-1.669196802420000125e+00,2.703833864910000148e-02,-1.051557334539999999e+01,1.659065634009999901e-01,-5.898262262340000506e-01,-1.347291618589999962e-01,1.000000000000000000e+00
2.525193896000000215e+00,-1.587925755660000160e+00,2.319048584820000147e-01,-1.084397878579999919e+01,1.794990450140000193e-01,-6.941397190090000668e-01,-1.106716617940000091e-01,1.000000000000000000e+00
2.530039751999999975e+00,-1.642043568679999899e+00,7.880234778419999975e-01,-1.093660095539999944e+01,1.879812330009999755e-01,-8.119469881059999672e-01,-9.411243349310001449e-02,1.000000000000000000e+00
2.535023590999999854e+00,-1.868323536490000158e+00,1.071781601949999940e+00,-1.096575924529999924e+01,2.250041365619999956e-01,-9.175081253049999219e-01,-9.223877638579999760e-02,1.000000000000000000e+00
2.539993792000000195e+00,-1.989911249940000237e+00,1.277956720169999949e+00,-1.072759930850000032e+01,3.055632412429999945e-01,-1.029241681100000028e+00,-1.294617354869999903e-01,1.000000000000000000e+00
2.545199106000000100e+00,-2.222220268770000118e+00,1.591047394810000126e+00,-1.075668628680000083e+01,4.041463732720000368e-01,-1.139417767520000124e+00,-1.208980977539999974e-01,0.000000000000000000e+00
2.549933782000000093e+00,-2.220615756179999956e+00,1.702807103330000071e+00,-1.092845038219999942e+01,4.831773340699999642e-01,-1.233090639110000053e+00,-1.479996442790000033e-01,0.000000000000000000e+00
2.555169692000000214e+00,-2.279917986109999628e+00,2.068533681879999975e+00,-1.116092993530000044e+01,5.453014969830000114e-01,-1.324144601820000045e+00,-1.721177250150000004e-01,0.000000000000000000e+00
2.560088468000000006e+00,-2.182350761329999944e+00,1.989695415229999931e+00,-1.128900101940000056e+01,6.340001821520000469e-01,-1.470759153370000183e+00,-1.860089302059999838e-01,0.000000000000000000e+00
2.565018132000000062e+00,-2.302850241150000254e+00,2.066186534229999872e+00,-1.159011045660000150e+01,7.088977694509999150e-01,-1.572423100470000223e+00,-2.223478108639999895e-01,0.000000000000000000e+00
2.570044329999999988e+00,-2.304928800989999971e+00,2.268385807620000083e+00,-1.170757480650000026e+01,7.788129448890001028e-01,-1.737229824070000150e+00,-2.301782518629999774e-01,0.000000000000000000e+00
2.575044585000000108e+00,-2.103160758630000071e+00,1.718400978309999605e+00,-1.168280510690000007e+01,8.549894690510000395e-01,-1.882432937619999969e+00,-2.445602416990000083e-01,0.000000000000000000e+00
2.580048044999999846e+00,-1.995512430940000081e+00,1.456211054339999755e+00,-1.198159633030000037e+01,9.239980578419999535e-01,-2.044920444490000211e+00,-2.694148123260000083e-01,0.000000000000000000e+00
2.585032044000000084e+00,-1.992209297740000107e+00,1.555909738190000002e+00,-1.226612288150000118e+01,9.614692330359999595e-01,-2.222517013550000087e+00,-2.746724486350000105e-01,0.000000000000000000e+00
2.590008171000000026e+00,-1.766825840390000124e+00,1.312059334640000019e+00,-1.245427697059999872e+01,1.013560295100000008e+00,-2.434229373930000051e+00,-2.834028899670000268e-01,0.000000000000000000e+00
2.594988820000000196e+00,-1.527653950049999931e+00,1.147947653720000183e+00,-1.248090895700000047e+01,1.075236320499999954e+00,-2.659003496169999980e+00,-2.787304520610000003e-01,0.000000000000000000e+00
2.599994156999999806e+00,-1.342181062789999935e+00,8.466794457539998930e-01,-1.259410980420000037e+01,1.166058659549999987e+00,-2.878776788709999757e+00,-2.877306640150000261e-01,0.000000000000000000e+00
2.605174938000000218e+00,-1.219311346710000077e+00,4.922326053069999707e-01,-1.267645257190000052e+01,1.274344325070000172e+00,-3.105695247649999935e+00,-2.896902561190000114e-01,0.000000000000000000e+00
2.610016428000000221e+00,-1.144756821789999934e+00,6.249303263119999619e-01,-1.296241120170000016e+01,1.368703484539999904e+00,-3.358647823330000115e+00,-2.642870843409999559e-01,0.000000000000000000e+00
2.615169052999999799e+00,-6.655436378600000369e-01,7.541814870599999887e-01,-1.323753279569999997e+01,1.448109984400000050e+00,-3.628192424769999924e+00,-2.513435780999999647e-01,0.000000000000000000e+00
2.620036875999999904e+00,8.864742074610000577e-02,7.094203351180000672e-01,-1.306799923589999857e+01,1.570893287660000137e+00,-3.912739515299999749e+00,-3.006637990470000243e-01,0.000000000000000000e+00
2.625211504000000140e+00,-3.344509128570000156e-02,8.235694229979999559e-01,-1.307129593930000055e+01,1.686136603360000041e+00,-4.198359966279999966e+00,-2.793376147749999650e-01,0.000000000000000000e+00
2.630130249000000031e+00,3.957483169229999986e-01,7.486464300910000702e-01,-1.317237497160000004e+01,1.822513461109999788e+00,-4.549890995030000163e+00,-2.554562985900000194e-01,0.000000000000000000e+00
2.635160123999999993e+00,5.825775141529999646e-01,9.829614549869999385e-01,-1.351654379829999897e+01,1.971374869349999948e+00,-4.941693305969999450e+00,-2.305386066439999992e-01,0.000000000000000000e+00
2.640038886999999779e+00,1.301714466239999979e+00,1.111904645760000143e+00,-1.388552207220000057e+01,2.106606960300000164e+00,-5.341846466059999798e+00,-2.360063344240000138e-01,0.000000000000000000e+00
2.645202825999999785e+00,1.977998547690000164e+00,1.365389504419999955e+00,-1.388875564730000001e+01,2.223020076750000129e+00,-5.820474147799999720e+00,-2.517221868039999921e-01,0.000000000000000000e+00
2.650040602999999884e+00,2.353365207379999990e+00,1.925601128720000110e+00,-1.416726980630000199e+01,2.339793205259999898e+00,-6.344092845919999668e+00,-2.681534886360000258e-01,0.000000000000000000e+00
2.655021474999999853e+00,2.538395027040000418e+00,2.269470241859999682e+00,-1.410965582170000054e+01,2.476606845860000128e+00,-6.931432247160000948e+00,-2.967232167720000313e-01,0.000000000000000000e+00
2.660158297999999810e+00,2.886432511899999831e+00,2.468312898290000224e+00,-1.434834182819999882e+01,2.692407846449999642e+00,-7.566312789919999560e+00,-2.878686189649999894e-01,0.000000000000000000e+00
2.665056821999999936e+00,3.214724847329999857e+00,2.632124573350000052e+00,-1.492880129079999918e+01,3.021577596660000253e+00,-8.199973106379999876e+00,-2.399514913559999962e-01,0.000000000000000000e+00
2.670189024999999994e+00,2.725615634740000459e+00,3.241424930460000020e+00,-1.497508841019999970e+01,3.477147102360000019e+00,-8.813788413999999349e+00,-1.882650256160000035e-01,0.000000000000000000e+00
2.675166801000000039e+00,3.996853275779999604e-01,3.637966041730000377e+00,-1.546422217269999955e+01,3.983884572980000538e+00,-9.132042884829999707e+00,-1.257082223890000072e-01,0.000000000000000000e+00
2.680036224999999828e+00,-3.970530647649999967e+00,4.231279725159999394e+00,-1.787635462640000128e+01,4.457843780520000188e+00,-9.147766113280001221e+00,-1.191308572890000111e-01,0.000000000000000000e+00
2.685036724999999791e+00,-9.743372582830000184e+00,2.228289359550000182e+00,-1.876454732819999904e+01,4.735741138459999888e+00,-9.150773048399999610e+00,-1.483717560769999833e-01,0.000000000000000000e+00
2.689994535999999936e+00,-1.349756554160000022e+01,-2.995549304700000359e+00,-1.695094073960000003e+01,4.770949363709999780e+00,-9.151574134829999707e+00,-1.338065117599999965e-01,0.000000000000000000e+00
2.694996350999999901e+00,-1.642333608439999892e+01,-5.382462853669999880e+00,-1.653961151680000086e+01,4.479377269740000500e+00,-9.152113914489998336e+00,-1.808119192720000074e-02,0.000000000000000000e+00
2.700036265000000046e+00,-1.795403758550000006e+01,-4.181952799669999443e+00,-1.661250841069999851e+01,3.816738128659999951e+00,-9.147590637210001319e+00,9.250237047669999935e-02,0.000000000000000000e+00
2.705159456000000073e+00,-1.710047196040000017e+01,-3.074363021429999954e+00,-1.606880485359999966e+01,3.220435380940000591e+00,-9.013691902160001490e+00,8.846569061280000479e-02,0.000000000000000000e+00
2.709999643999999819e+00,-1.699489678569999995e+01,-1.551247153210000063e+00,-1.641587524699999889e+01,2.899300813670000032e+00,-8.517148971560001058e+00,3.069899510590000467e-03,0.000000000000000000e+00
2.715035824000000098e+00,-1.594266386079999975e+01,-6.920905762630000790e-01,-1.412266026470000035e+01,2.930948495859999614e+00,-7.962021827700000109e+00,-8.372668921950000842e-02,0.000000000000000000e+00
2.720171746000000113e+00,-1.311031978970000011e+01,1.750725258000000034e-02,-1.391265207119999836e+01,3.288664817809999530e+00,-7.586838245389999180e+00,-3.037998974319999768e-01,0.000000000000000000e+00
2.725042345999999949e+00,-1.299037355990000009e+01,-9.195593154610000042e-01,-1.160682193739999946e+01,3.857991218570000047e+00,-7.459981918330000461e+00,-5.123901963229999801e-01,0.000000000000000000e+00
2.729975361000000156e+00,-1.859065557310000116e+01,2.276909305809999839e+00,-1.471201147430000056e+01,4.684067726140000332e+00,-7.188627243039999115e+00,-6.058558821680000150e-01,0.000000000000000000e+00
2.734996490999999974e+00,-1.555045317999999988e+01,3.172743023899999848e+00,-1.373894619410000040e+01,5.383587360379999964e+00,-6.921068668370000232e+00,-4.341732561590000428e-01,0.000000000000000000e+00
2.739989228999999860e+00,-1.349207688109999914e+01,5.061853181700000093e+00,-1.585007442440000069e+01,6.131322860720000101e+00,-6.550663471220000034e+00,-2.639385461809999889e-01,0.000000000000000000e+00
2.745040791000000091e+00,-1.975255415690000049e+01,1.840142859399999997e+00,-1.621659770629999997e+01,6.610504150390000611e+00,-5.823514461519999408e+00,-8.020449429750000150e-03,0.000000000000000000e+00
2.749994024999999898e+00,-2.228082643389999973e+01,-3.227255535340000314e+00,-1.604436599339999958e+01,6.545757770539999854e+00,-4.727004051209999780e+00,5.859245061869999827e-01,0.000000000000000000e+00
2.754987166999999904e+00,-1.808331979900000164e+01,-3.803865921249999893e+00,-1.636152990889999970e+01,6.386077404019999904e+00,-3.126063823700000022e+00,1.316992044449999844e+00,0.000000000000000000e+00
2.759998781999999817e+00,-1.132689323540000004e+01,-1.407431533600000062e+00,-1.493841433779999939e+01,6.036188602450000218e+00,-1.336661219599999839e+00,1.959099888799999967e+00,0.000000000000000000e+00
2.765018802000000164e+00,-4.108039203000000139e-01,-2.474635963829999952e+00,-1.445236918900000056e+01,5.719771385190000501e+00,2.276740223169999855e-01,2.461025238040000396e+00,0.000000000000000000e+00
2.769965033000000076e+00,2.773207056280000060e+01,-6.613930648259999323e+00,-1.372545893599999900e+01,5.219518184659999172e+00,2.037527322769999927e+00,2.960604190830000260e+00,0.000000000000000000e+00
2.774995325999999984e+00,8.862250842310000820e+00,-3.335218774190000346e+00,-5.407200989090000576e+00,4.410162925719999905e+00,2.286831855770000033e+00,3.291002035140000004e+00,0.000000000000000000e+00
2.780033557999999960e+00,-9.958630367489998747e+00,-6.062797817949999946e+00,-2.034328834520000129e+01,3.026287555690000186e+00,1.529203653339999969e+00,3.073443174359999919e+00,0.000000000000000000e+00
2.785060749999999974e+00,-1.913179775529999915e+01,-1.072140805269999930e+01,-2.673670927969999767e+01,2.015321016309999713e+00,2.017669677729999833e+00,3.843128919599999804e+00,0.000000000000000000e+00
2.790021183999999987e+00,-7.465064662269999651e+00,-6.439606347009999787e+00,-2.182230875890000021e+01,1.554504871370000041e+00,2.278772354130000011e+00,3.568158626559999380e+00,0.000000000000000000e+00
2.795160543999999803e+00,6.700414753489999597e+00,3.905712430779999966e+00,-1.661834661540000013e+01,1.371144056319999915e+00,3.315675735469999719e+00,2.753944396970000152e+00,0.000000000000000000e+00
2.800015725000000177e+00,3.819340261489999833e+00,7.734025395539998904e+00,-1.251384208930000064e+01,1.081996321679999928e+00,5.023754596709999909e+00,2.697824239730000073e+00,0.000000000000000000e+00
2.805221480999999795e+00,1.529205252870000087e-01,4.258233783059999666e+00,-8.340746842080001500e+00,5.280987024309999889e-01,6.383930206299999632e+00,2.809113264080000061e+00,0.000000000000000000e+00
2.810000946999999805e+00,5.412893063250000303e+00,2.302763001259999776e+00,-7.845446958150000150e+00,2.771566212179999988e-01,6.937051773069999427e+00,2.737951040270000025e+00,0.000000000000000000e+00
2.815046494999999815e+00,8.505786597629999335e+00,4.067643991189999753e+00,-5.795041784290000386e+00,5.223842263219999893e-01,6.420201778409999172e+00,2.785046339040000429e+00,0.000000000000000000e+00
2.820150690999999821e+00,1.045496894679999933e+01,7.015457438980000404e+00,-5.934735501660000523e+00,7.765958309170000184e-01,5.693664550780000333e+00,2.592337369920000079e+00,0.000000000000000000e+00
2.825212717999999956e+00,1.050245550510000037e+01,9.494985266509999633e+00,-5.954145720049999646e+00,1.154290556909999932e+00,4.855509758000000176e+00,2.379635572429999790e+00,0.000000000000000000e+00
2.829999912999999978e+00,1.056854038090000003e+01,1.079471644999999924e+01,-5.973380581880000761e+00,1.554918408389999840e+00,4.203520774840000307e+00,2.129225730900000002e+00,0.000000000000000000e+00
2.835024837999999825e+00,8.534788235710001558e+00,1.173024841059999979e+01,-4.514107071230000656e+00,1.923465251919999952e+00,3.732317209240000100e+00,1.898168444630000007e+00,0.000000000000000000e+00
2.840026846000000216e+00,5.410659605110000214e+00,1.219519231920000024e+01,-5.767440076139999761e+00,2.449490308759999735e+00,3.722730875019999885e+00,1.740966439250000164e+00,0.000000000000000000e+00
2.844993108000000159e+00,3.011054040080000327e+00,1.184228722830000002e+01,-7.121070607580000100e+00,2.905502080920000285e+00,3.789765834809999845e+00,1.604219913479999926e+00,0.000000000000000000e+00
2.849990254999999806e+00,1.018012748489999897e+00,1.071713870479999997e+01,-8.552164317919999093e+00,3.259007215500000054e+00,4.140528202059999607e+00,1.580203056340000023e+00,0.000000000000000000e+00
2.854989961999999881e+00,2.566294768290000028e-01,1.049719714619999955e+01,-8.944458000880000981e+00,3.539398193359999834e+00,4.527966499330000616e+00,1.644943237299999916e+00,0.000000000000000000e+00
2.860129854999999832e+00,7.579546489230000461e-02,1.000956443589999978e+01,-1.038415645799999965e+01,3.663656711580000724e+00,4.860403060909999517e+00,1.739606261250000063e+00,0.000000000000000000e+00
2.865078560999999802e+00,-5.428246553600000329e-02,9.727947634690000456e+00,-1.141516656209999958e+01,3.735598802569999766e+00,5.230490684509999433e+00,1.802663445470000125e+00,0.000000000000000000e+00
2.870140721999999922e+00,-3.764143055730000409e-01,1.003383261569999974e+01,-1.210385726680000040e+01,3.715340137480000138e+00,5.482020854950000022e+00,1.849278330800000036e+00,0.000000000000000000e+00
2.875155256000000215e+00,-8.992201456569999252e-01,1.063201361289999980e+01,-1.211074877989999976e+01,3.664062738419999299e+00,5.717498779299999612e+00,1.848537445070000063e+00,0.000000000000000000e+00
2.880134586000000052e+00,-1.616492801709999982e+00,1.128558156630000120e+01,-1.220329145450000041e+01,3.637298345569999647e+00,5.986907482150000348e+00,1.871849536899999888e+00,0.000000000000000000e+00
2.885036819999999835e+00,-1.762239097120000153e+00,1.185513852660000111e+01,-1.229441491000000042e+01,3.601330995560000137e+00,6.360718250269999707e+00,1.914517283440000162e+00,0.000000000000000000e+00
2.890036106999999799e+00,-1.982113289540000212e+00,1.243970951609999887e+01,-1.215142565819999909e+01,3.547928571699999978e+00,6.693379402159999714e+00,2.026798963550000110e+00,0.000000000000000000e+00
2.895154730999999870e+00,-1.898245942670000241e+00,1.337490245400000077e+01,-1.156447917170000039e+01,3.526119947430000234e+00,6.973183631900000456e+00,2.129085302350000042e+00,0.000000000000000000e+00
2.900019232000000002e+00,-1.706207121040000052e+00,1.417734930180000141e+01,-1.082260048220000037e+01,3.535759925839999873e+00,7.176133632660000039e+00,2.286098718640000360e+00,0.000000000000000000e+00
2.905069536000000063e+00,-1.076604638189999852e+00,1.474601077450000020e+01,-1.042327149379999973e+01,3.561129331590000557e+00,7.247440338130000548e+00,2.442168235779999641e+00,0.000000000000000000e+00
2.910018293999999894e+00,-8.908784337689999999e-01,1.534135567150000057e+01,-1.024431427200000044e+01,3.631009817119999372e+00,7.175157070160000039e+00,2.637784719469999928e+00,0.000000000000000000e+00
2.915049236999999849e+00,-1.047456212059999947e+00,1.567836293599999919e+01,-1.027260746960000048e+01,3.683336496349999933e+00,7.061918735499999933e+00,2.819944143299999872e+00,0.000000000000000000e+00
2.920148812999999954e+00,-1.522909385870000021e+00,1.566967460270000068e+01,-1.035760981179999973e+01,3.683847427369999927e+00,6.851174831390000719e+00,3.008633136750000325e+00,0.000000000000000000e+00
2.925214624000000097e+00,-1.942377053079999971e+00,1.553161988469999955e+01,-1.068949315749999940e+01,3.664780378339999700e+00,6.672117710110000210e+00,3.171644449229999996e+00,0.000000000000000000e+00
2.930130414999999822e+00,-2.403251228050000243e+00,1.530854762690000115e+01,-1.135855210999999976e+01,3.587324619290000349e+00,6.486578464509999975e+00,3.331257343289999895e+00,0.000000000000000000e+00
2.935009169999999834e+00,-3.107397276029999933e+00,1.501915200829999897e+01,-1.219339082279999964e+01,3.475568056110000192e+00,6.335288524630001028e+00,3.539835453030000245e+00,0.000000000000000000e+00
