t,ax,ay,az,wx,wy,wz,zv
5.009485999999999627e-03,-4.328389561569999877e+00,-1.293231300060000144e-01,-8.776997155660000161e+00,-1.944387913679999772e-04,-1.162203401329999983e-02,-7.497849874200000590e-03,1.000000000000000000e+00
1.002174500000000031e-02,-4.366007344559999837e+00,-1.160572869879999969e-01,-8.762330916930000768e+00,-1.781493797899999856e-02,6.161567289380000603e-03,-9.841538034379999217e-03,1.000000000000000000e+00
1.499703999999999968e-02,-4.352405227920000286e+00,-1.199680306909999966e-01,-8.786082379389998920e+00,2.995013026519999667e-03,-7.892215624449999689e-03,3.355010412630000005e-04,1.000000000000000000e+00
2.003791200000000147e-02,-4.353543292040000345e+00,-1.378191008730000056e-01,-8.797176604860000637e+00,3.265789244320000274e-03,4.541511647399999740e-03,-1.270377077160000012e-03,1.000000000000000000e+00
2.502725600000000120e-02,-4.334848236190000037e+00,-1.331260750859999953e-01,-8.797702090039999590e+00,-1.409987919030000064e-02,-6.603645160789999372e-03,-3.829465247690000233e-03,1.000000000000000000e+00
2.998025600000000027e-02,-4.355525405769999914e+00,-1.104191623700000041e-01,-8.783665381380000525e+00,-3.230802016329999918e-03,1.411962322889999920e-02,6.191771477459999916e-03,1.000000000000000000e+00
3.499954599999999943e-02,-4.325028852960000059e+00,-1.497580792010000106e-01,-8.792976815079999398e+00,1.078313123429999916e-02,-7.995627820489999669e-04,1.545936567710000029e-03,1.000000000000000000e+00
4.002426800000000173e-02,-4.300509036469999380e+00,-1.594926793520000108e-01,-8.803492948400000628e+00,2.615489764139999895e-03,-5.473638884720000294e-05,2.604827517639999972e-03,1.000000000000000000e+00
4.490802099999999936e-02,-4.390390967450000126e+00,-1.126899933790000002e-01,-8.780598979540000570e+00,1.545604784039999926e-03,-5.644515156750000255e-03,1.879842020570000188e-02,1.000000000000000000e+00
4.997703099999999815e-02,-4.304323334059999340e+00,-1.483761598560000006e-01,-8.778149248300000096e+00,3.155095037069999969e-04,-2.483287360519999959e-03,-5.522679537530000501e-03,1.000000000000000000e+00
5.496854000000000323e-02,-4.375416685680000306e+00,-1.148645609390000072e-01,-8.754512936650000299e+00,-8.819543290880001293e-04,-1.381797529759999990e-02,6.103861145680000537e-03,1.000000000000000000e+00
5.995927499999999938e-02,-4.298904523880000106e+00,-9.997107105399999361e-02,-8.802407491249999438e+00,1.384449657050000181e-03,7.362118456510000769e-03,7.360328454520000379e-04,1.000000000000000000e+00
6.498162500000000119e-02,-4.339428257449999826e+00,-1.413251362329999983e-01,-8.785534097859999392e+00,1.378698367629999956e-02,-1.478399150070000036e-02,-2.588848350570000043e-03,1.000000000000000000e+00
6.999371699999999696e-02,-4.300470458030000387e+00,-1.294079770109999861e-01,-8.779870665269999819e+00,-1.263956353070000253e-02,-7.563475053760000850e-03,-2.200821787120000109e-02,1.000000000000000000e+00
7.496313100000000229e-02,-4.364254947930000128e+00,-1.330252085270000051e-01,-8.783561921000000439e+00,-4.471796564760000155e-03,3.057299181819999895e-03,-6.503475829959999913e-03,1.000000000000000000e+00
8.001466200000000029e-02,-4.364168730950000352e+00,-1.591395002669999947e-01,-8.791891942450000386e+00,-1.246136520060000044e-02,-1.895831339059999773e-02,-8.958273567260000361e-03,1.000000000000000000e+00
8.505378500000000674e-02,-4.338793174420000121e+00,-1.463013537429999900e-01,-8.803879317370000734e+00,4.526058211920000116e-03,5.991440266370000279e-04,-4.133108071980000006e-03,1.000000000000000000e+00
9.005340100000000514e-02,-4.360202749930000010e+00,-1.377193942249999858e-01,-8.775245928080000368e+00,1.178744994100000033e-02,1.773624308409999656e-02,1.050308067349999853e-02,1.000000000000000000e+00
9.495532900000000498e-02,-4.281917440990000046e+00,-1.175344012030000024e-01,-8.776768023080000702e+00,6.556651089339999953e-03,-8.656719699499999809e-03,-1.156496163459999962e-02,1.000000000000000000e+00
9.999245099999999609e-02,-4.324211106839999985e+00,-1.425156337919999960e-01,-8.773277842880000676e+00,4.574073012919999820e-03,-1.339335180820000124e-02,-7.389533333479999903e-03,1.000000000000000000e+00
1.049929269999999998e-01,-4.330805098269999931e+00,-1.425912289120000176e-01,-8.798367860469999968e+00,5.896336864680000629e-03,-8.704911451789998280e-04,-2.001834101970000057e-02,1.000000000000000000e+00
1.100309710000000052e-01,-4.368873547639999799e+00,-9.726455204169999480e-02,-8.775416608469999602e+00,-3.713447658809999647e-04,-7.745881099250000179e-03,-3.072931896900000116e-03,1.000000000000000000e+00
1.150000280000000041e-01,-4.359169022969999752e+00,-1.639586275190000053e-01,-8.803469567520000538e+00,-9.720081463459999752e-03,7.667819503689999629e-03,-1.362505834550000079e-02,1.000000000000000000e+00
1.199887439999999944e-01,-4.346997231399999606e+00,-1.449240466410000039e-01,-8.775714130109999900e+00,-5.400754045700000006e-03,6.317580584439999591e-03,3.365069860590000350e-03,1.000000000000000000e+00
1.249621419999999983e-01,-4.359562698459999552e+00,-1.223191055959999968e-01,-8.790312564310001520e+00,-9.470156393950001500e-03,-8.780146017669999969e-03,8.016422390939999601e-03,1.000000000000000000e+00
1.299420920000000090e-01,-4.322651017910000171e+00,-1.425419829429999952e-01,-8.781278193980000424e+00,1.161455176769999979e-02,-1.072444021699999958e-02,5.284371785819999730e-03,1.000000000000000000e+00
1.349938169999999882e-01,-4.312667384040000051e+00,-1.271176649840000117e-01,-8.781675668869999285e+00,6.809403421360000824e-04,3.278078045699999582e-03,2.468934515489999964e-03,1.000000000000000000e+00
1.400054219999999905e-01,-4.325560767880000768e+00,-1.330091433080000107e-01,-8.785668537889998575e+00,1.563208550210000089e-02,-3.430202836169999811e-03,-6.638312712310000425e-03,1.000000000000000000e+00
1.450135630000000120e-01,-4.333112790690000438e+00,-1.426061616200000048e-01,-8.790681397620000226e+00,-3.290608059610000517e-03,-5.445247516040000076e-03,-6.490369793030000348e-03,1.000000000000000000e+00
1.499874929999999995e-01,-4.324255822759999646e+00,-1.368338892279999941e-01,-8.805423624199999466e+00,2.887060865760000469e-03,4.671483766289999807e-04,-4.121048375959999663e-03,1.000000000000000000e+00
1.549641419999999992e-01,-4.305037619810000216e+00,-1.402286918990000020e-01,-8.787364820419998779e+00,6.341744679959999617e-03,-9.722289629279999915e-03,-1.399261318150000002e-02,1.000000000000000000e+00
1.599764979999999948e-01,-4.379667036599999896e+00,-1.445548571349999922e-01,-8.752847633789999193e+00,3.479079343380000154e-03,6.676855962719999843e-03,-4.711767658590000629e-03,1.000000000000000000e+00
1.650036219999999887e-01,-4.422382727250000478e+00,-1.506412461109999934e-01,-8.769466760160000263e+00,-3.540634352249999754e-04,-9.748430456970000888e-04,2.566801942879999923e-02,1.000000000000000000e+00
1.699934290000000014e-01,-4.239495180319999612e+00,-1.151042057810000019e-01,-8.770822266419999735e+00,4.902874585239999465e-03,-4.964244086300000601e-03,-1.800018548970000118e-02,1.000000000000000000e+00
1.749874289999999999e-01,-4.333937258819999805e+00,-1.532435010310000123e-01,-8.774492479360000985e+00,2.217857539650000195e-02,-1.163784414529999908e-03,-7.125712931159999992e-03,1.000000000000000000e+00
1.800253470000000022e-01,-4.375102212899999898e+00,-1.399696025709999958e-01,-8.760878964550000703e+00,3.984690411019999870e-04,7.029999978839998739e-04,1.449612807480000001e-02,1.000000000000000000e+00
1.849126209999999992e-01,-4.292103319439999787e+00,-1.651674735860000076e-01,-8.791351259709999866e+00,8.819029899310000748e-04,2.938401419670000347e-03,-1.255163829770000218e-02,1.000000000000000000e+00
1.899804740000000103e-01,-4.392644007069999468e+00,-1.342236336650000084e-01,-8.796994818550000872e+00,4.104918800290000003e-03,8.014461025600000052e-03,2.148472471159999699e-03,1.000000000000000000e+00
1.949020220000000081e-01,-4.349288557209999517e+00,-1.196389905330000059e-01,-8.757950509880000567e+00,-3.151040757070000357e-03,-2.166035352269999811e-03,-1.422056695450000206e-03,1.000000000000000000e+00
2.000286820000000132e-01,-4.342705671690000102e+00,-1.650677760710000108e-01,-8.778335126269999122e+00,2.638036012649999998e-02,9.523738175629998734e-03,-8.186008781189999884e-04,1.000000000000000000e+00
2.049927209999999889e-01,-4.354068192699999784e+00,-1.733802983969999767e-01,-8.779289650510001763e+00,4.727884661409999592e-03,2.253583446150000252e-02,2.459879731760000136e-03,1.000000000000000000e+00
2.099364900000000034e-01,-4.319733669159999678e+00,-1.269904036089999910e-01,-8.772907840519998501e+00,5.418990273029999916e-03,-3.583372104909999557e-03,-4.060143139209999863e-03,1.000000000000000000e+00
2.149397919999999906e-01,-4.358938429090000177e+00,-1.471043132890000049e-01,-8.764158132349999519e+00,-2.376560121770000117e-03,6.814921740439999938e-03,4.985810257490000050e-03,1.000000000000000000e+00
2.200188140000000070e-01,-4.306885878030000114e+00,-1.510597272510000033e-01,-8.800508379630000988e+00,8.147231303160000146e-03,-3.527025226499999784e-03,-2.221429254860000316e-03,1.000000000000000000e+00
2.249776820000000122e-01,-4.300136111509999637e+00,-1.616064566359999843e-01,-8.784744993310001249e+00,-4.292272031309999486e-03,-1.172735728320000066e-02,-1.598342694339999898e-02,1.000000000000000000e+00
2.300016350000000098e-01,-4.318187901019999941e+00,-1.318714536480000143e-01,-8.782726639219999853e+00,-6.859543267639999636e-03,-1.267537008970000094e-04,-1.785427145659999881e-02,1.000000000000000000e+00
2.349330059999999998e-01,-4.349107063159999953e+00,-1.426093034250000002e-01,-8.770186891119999828e+00,-4.686399828640000313e-03,1.278593204920000156e-02,7.559960708020000385e-03,1.000000000000000000e+00
2.399629209999999957e-01,-4.311485480780000046e+00,-1.664195012069999979e-01,-8.784673681639999288e+00,4.610277246680000510e-03,2.794943749899999989e-03,-1.066224649549999889e-03,1.000000000000000000e+00
2.449328339999999882e-01,-4.359175452709999732e+00,-1.568164276139999980e-01,-8.793331035350000491e+00,4.114574752749999668e-03,4.698520060630000236e-04,-8.492253720760000249e-03,1.000000000000000000e+00
2.499573700000000120e-01,-4.343151369630001035e+00,-1.591102559060000032e-01,-8.768152170429999614e+00,-4.578006919470000054e-03,8.481496945019999581e-03,-5.159967113290000323e-03,1.000000000000000000e+00
2.549143660000000033e-01,-4.281291125780000151e+00,-1.487057845360000019e-01,-8.784997506760001684e+00,1.642584428189999834e-02,1.270161010320000096e-02,-1.134200580420000048e-02,1.000000000000000000e+00
2.599792389999999731e-01,-4.341019033769999425e+00,-1.379182595319999871e-01,-8.787785091659999992e+00,5.041794385760000816e-03,1.218812912699999973e-02,-2.238639164719999960e-03,1.000000000000000000e+00
2.649525939999999857e-01,-4.313105483190000200e+00,-1.546567105629999828e-01,-8.793900944189999791e+00,7.093071006239999240e-03,-6.815070286390000585e-03,-2.634842880070000035e-03,1.000000000000000000e+00
2.699784310000000187e-01,-4.376600634769999942e+00,-1.399779776739999981e-01,-8.774199633900000350e+00,5.252392729740000023e-04,1.214765198530000020e-02,-4.060080274940000220e-03,1.000000000000000000e+00
2.749702370000000062e-01,-4.316043874730000063e+00,-1.594542105060000048e-01,-8.801988389049999029e+00,-7.317615207279999992e-03,5.984245333819999436e-03,-7.279139012100000264e-03,1.000000000000000000e+00
2.799460990000000038e-01,-4.308914753509999862e+00,-1.281688271380000133e-01,-8.762688644319998943e+00,-8.826159173620000626e-04,-1.129074580969999936e-02,-1.686918735499999891e-02,1.000000000000000000e+00
2.849749389999999827e-01,-4.328220050219999671e+00,-1.430252090159999934e-01,-8.818286028380001085e+00,-1.818360295149999912e-03,7.919650524850000567e-03,-2.176784444599999795e-03,1.000000000000000000e+00
2.899710589999999755e-01,-4.347352912969999927e+00,-1.247155357449999946e-01,-8.781417310189999270e+00,4.355047363789999772e-03,-1.224792189900000133e-02,1.121656736359999840e-03,1.000000000000000000e+00
2.949507749999999984e-01,-4.345466368570000348e+00,-1.366556100519999983e-01,-8.782798535419999553e+00,-1.629534922539999792e-02,6.810576189310000444e-03,8.238523267209999987e-03,1.000000000000000000e+00
2.999726509999999791e-01,-4.281717534500000255e+00,-1.066615816689999996e-01,-8.749836761530000118e+00,5.470740143209999393e-03,-1.305249333379999988e-02,-1.319356355820000201e-02,1.000000000000000000e+00
3.049539059999999968e-01,-4.364467713899999879e+00,-1.269359334750000123e-01,-8.764594770209999552e+00,-6.605207920069999447e-03,6.839395966380000177e-03,-2.993720350789999974e-03,1.000000000000000000e+00
3.099750620000000234e-01,-4.330884008730000012e+00,-1.663928871950000055e-01,-8.778147494739998891e+00,-6.556555163119999865e-04,2.422268502409999878e-03,2.550576580690000136e-03,1.000000000000000000e+00
3.149448220000000132e-01,-4.316538380249999918e+00,-1.425861143459999925e-01,-8.780401411150000612e+00,1.091646775600000133e-02,-8.793250657620000840e-03,-4.517579451199999971e-03,1.000000000000000000e+00
3.199892540000000007e-01,-4.362230456369999843e+00,-1.487951341869999944e-01,-8.814668422410001369e+00,-3.086476121099999709e-03,-1.878471346569999959e-03,6.731530651450000173e-03,1.000000000000000000e+00
3.249939649999999958e-01,-4.328365011649999872e+00,-1.677965434479999907e-01,-8.805399074280000349e+00,-4.993929062040000123e-03,-2.768134465440000129e-03,7.891501300040000208e-03,1.000000000000000000e+00
3.299462470000000258e-01,-4.312563046880000250e+00,-1.366452987200000024e-01,-8.781605526239999904e+00,1.345248892899999983e-04,9.764328598979998483e-03,-1.765434979460000272e-03,1.000000000000000000e+00
3.349477510000000158e-01,-4.362446437209999139e+00,-1.196177924809999904e-01,-8.751006389839998789e+00,-7.329849526289999688e-03,-5.578235723079999486e-03,-1.667362521399999922e-03,1.000000000000000000e+00
3.399114919999999818e-01,-4.359722857459999545e+00,-1.543725415929999845e-01,-8.769470267290000010e+00,5.240905098619999883e-03,4.227895755320000733e-03,1.137237995860000163e-02,1.000000000000000000e+00
3.449486059999999910e-01,-4.335714497629999720e+00,-1.497242043310000048e-01,-8.791507327050000598e+00,-7.999030873179999515e-03,1.017980091270000165e-02,5.864275153730000691e-04,1.000000000000000000e+00
3.500411929999999727e-01,-4.365464323719999484e+00,-1.389355742149999962e-01,-8.784258671099999916e+00,-3.803990082820000139e-03,-1.993586774920000013e-03,2.017127117140000026e-03,1.000000000000000000e+00
3.549107919999999750e-01,-4.302849754380000391e+00,-1.319694797959999888e-01,-8.785603655960001035e+00,-4.606394097210000232e-03,-1.715489197519999868e-03,-5.849705077710000076e-03,1.000000000000000000e+00
3.599488459999999890e-01,-4.361627814300000239e+00,-1.401685135440000063e-01,-8.777894396760000717e+00,4.102705046530000232e-03,6.381627637890000329e-03,7.655947469170000345e-03,1.000000000000000000e+00
3.649445370000000133e-01,-4.279559479680000500e+00,-1.475187119099999888e-01,-8.800642235139999769e+00,-2.391294576229999885e-03,6.619541440160000081e-03,-1.833377592269999981e-02,1.000000000000000000e+00
3.699722409999999795e-01,-4.364614428899999510e+00,-1.376557635380000200e-01,-8.766863299660000663e+00,2.321225590999999918e-03,-2.242210321130000319e-03,-8.760498836639998843e-03,1.000000000000000000e+00
3.749446040000000147e-01,-4.343945734880000131e+00,-1.784338189270000263e-01,-8.798124114840000232e+00,-1.488839462400000022e-02,2.348097041249999888e-03,-3.447663038969999436e-04,1.000000000000000000e+00
3.799702839999999915e-01,-4.302462800889999883e+00,-1.474935683349999915e-01,-8.784850207250000764e+00,2.092163637279999960e-02,7.909465581180000898e-03,1.226803986359999805e-03,1.000000000000000000e+00
3.849688700000000185e-01,-4.314539607649999553e+00,-1.398498029830000100e-01,-8.742040408570000309e+00,-2.637156518179999652e-03,-1.136267674160000010e-03,-1.044379454110000091e-02,1.000000000000000000e+00
3.899498029999999837e-01,-4.351442228109999810e+00,-1.593727975660000074e-01,-8.798025915160000210e+00,1.743243541570000006e-03,-1.888518687339999858e-03,-2.319121500480000268e-03,1.000000000000000000e+00
3.949667570000000016e-01,-4.331413877819999314e+00,-1.282548157870000149e-01,-8.771142584410000609e+00,-3.048423444849999910e-03,1.932355575259999889e-02,1.380677102130000063e-03,1.000000000000000000e+00
3.999010619999999738e-01,-4.319385294119999052e+00,-1.257672915540000158e-01,-8.762532576979999988e+00,-1.073706988249999855e-02,-1.922380737959999975e-02,-5.900267045939999906e-03,1.000000000000000000e+00
4.049543239999999766e-01,-4.319624948090000416e+00,-1.497701258320000006e-01,-8.778484763869998986e+00,-1.828303793450000020e-03,4.413947463039999994e-04,-2.300275955350000127e-03,1.000000000000000000e+00
4.099667559999999877e-01,-4.344485248580000736e+00,-1.376041794810000107e-01,-8.756441858889999708e+00,2.628355985510000183e-03,6.429521832619999530e-03,2.516067354010000003e-03,1.000000000000000000e+00
4.149797720000000245e-01,-4.309344669359999713e+00,-1.330601702429999866e-01,-8.782616164589999386e+00,1.280244532970000078e-02,-3.206345718349999912e-03,-1.241439487789999969e-02,1.000000000000000000e+00
4.200275390000000053e-01,-4.345057787769999180e+00,-1.521269089579999900e-01,-8.783872302129999809e+00,-1.562062092129999982e-02,3.403078299020000086e-03,-5.635399371390000488e-03,1.000000000000000000e+00
4.250047370000000213e-01,-4.367896519310000336e+00,-1.556684448890000017e-01,-8.784758437309999834e+00,-2.907539485020000074e-03,-3.502187086269999746e-03,7.878352887930000284e-03,1.000000000000000000e+00
4.299971389999999727e-01,-4.329526164379999820e+00,-1.606801903700000034e-01,-8.811173566029999904e+00,1.611848128960000049e-04,1.452175900340000030e-03,5.410118959840000234e-03,1.000000000000000000e+00
4.349912690000000137e-01,-4.305793991139999832e+00,-1.533609351319999980e-01,-8.787546022200000806e+00,1.090752240270000117e-02,1.587204821410000133e-02,-6.012068130080000343e-03,1.000000000000000000e+00
4.400129959999999896e-01,-4.338468764769999986e+00,-1.202678538880000009e-01,-8.808324021819998961e+00,-8.068716153499999252e-03,8.484229445459999866e-03,3.736337414010000059e-03,1.000000000000000000e+00
4.449994870000000269e-01,-4.322785457950000243e+00,-1.414208516919999992e-01,-8.786165966020000440e+00,6.037176121029999391e-03,6.766204256560000296e-03,-3.804821521039999672e-03,1.000000000000000000e+00
4.499873930000000133e-01,-4.367178434160000400e+00,-1.391442485300000143e-01,-8.801445952739999967e+00,1.892223372120000076e-04,-1.054981723430000080e-02,7.015457376840000293e-03,1.000000000000000000e+00
4.550305239999999918e-01,-4.327644296159999904e+00,-1.604657987010000009e-01,-8.792827177479999534e+00,-1.428968273099999941e-03,5.116457119580000018e-03,-4.315149970350000766e-03,1.000000000000000000e+00
4.600012310000000104e-01,-4.316418553260000124e+00,-1.428050908590000057e-01,-8.794324722560000751e+00,5.238862941040000427e-04,-7.089087273930000203e-03,2.565311966459999943e-03,1.000000000000000000e+00
4.649655650000000251e-01,-4.317263479659999348e+00,-1.594232673779999998e-01,-8.793952382110001409e+00,-7.883181795479999102e-03,9.372490458189998777e-04,5.470284260810000070e-03,1.000000000000000000e+00
4.699845049999999969e-01,-4.286887338349999688e+00,-1.940828398869999805e-01,-8.817265453160000988e+00,-1.893913373350000068e-02,-5.983434617520000560e-03,-1.231030281629999848e-02,1.000000000000000000e+00
4.749630060000000209e-01,-4.401792943690000293e+00,-1.639706284840000139e-01,-8.793434495719999688e+00,7.131068035959999690e-03,-4.609540104870000349e-03,4.373805597420000330e-03,1.000000000000000000e+00
4.799806520000000076e-01,-4.332545219940000081e+00,-1.201279796259999977e-01,-8.796116866669999368e+00,4.057393409310000240e-03,6.729278247799999699e-04,6.240328773860000233e-03,1.000000000000000000e+00
4.849459819999999977e-01,-4.340370798999999558e+00,-1.290336912060000008e-01,-8.734581909260000998e+00,-3.217041725289999845e-03,6.813922431319999716e-03,1.129447715359999755e-03,1.000000000000000000e+00
4.899234140000000015e-01,-4.331480513319999837e+00,-1.615691750990000120e-01,-8.775449926220000307e+00,1.373025029899999951e-02,-1.764152012770000069e-02,9.205590467899999818e-04,1.000000000000000000e+00
4.949519660000000210e-01,-4.316768681880000180e+00,-1.212198665159999883e-01,-8.780879550050000759e+00,5.677909124640000658e-03,4.488962702450000064e-03,-3.640677314250000303e-04,1.000000000000000000e+00
4.999381540000000235e-01,-4.339717888050000028e+00,-1.187667012099999919e-01,-8.783674149210000337e+00,7.970730774099999902e-03,6.901068147270000668e-03,-3.962188027800000317e-03,1.000000000000000000e+00
5.049363919999999561e-01,-4.371592743480000820e+00,-1.459579471330000044e-01,-8.771082378660000956e+00,1.824646024029999804e-04,-1.254022237839999901e-03,5.540086422119999817e-04,1.000000000000000000e+00
5.099329080000000181e-01,-4.347196261100000569e+00,-1.449509529140000086e-01,-8.780278661549999697e+00,3.033135551960000446e-03,-6.550996564330000167e-03,7.268276996909999593e-03,1.000000000000000000e+00
5.149129359999999878e-01,-4.317333622280000505e+00,-1.319121418520000089e-01,-8.782939405189999604e+00,1.019855216150000049e-02,-2.678825287150000088e-03,1.909997081380000261e-03,1.000000000000000000e+00
5.199679430000000435e-01,-4.355205672300000330e+00,-1.460909806609999861e-01,-8.776551749979999428e+00,5.045995116229999751e-03,-8.974118158219999281e-03,1.026401389389999981e-02,1.000000000000000000e+00
5.249598039999999743e-01,-4.310722679709999561e+00,-1.452100422419999870e-01,-8.806765101939998175e+00,-1.033469475810000135e-02,7.390289101749999458e-03,2.612217562270000102e-03,1.000000000000000000e+00
5.300193789999999572e-01,-4.313267980280000913e+00,-1.581685911419999924e-01,-8.792350792140000593e+00,-7.086586207150000032e-03,-1.334411557760000052e-03,-3.828236600380000108e-03,1.000000000000000000e+00
5.349328740000000026e-01,-4.332635820830000206e+00,-1.626850821860000018e-01,-8.770424207010000472e+00,-1.374002359810000060e-02,1.302824821319999811e-03,-7.720599882300000286e-03,1.000000000000000000e+00
5.399141160000000550e-01,-4.369650669499999474e+00,-1.174960054209999993e-01,-8.770805899800000915e+00,-8.393874391910000066e-03,9.339611977339999996e-03,8.241682313380000943e-03,1.000000000000000000e+00
5.449354730000000036e-01,-4.326761083580000111e+00,-1.447996165440000038e-01,-8.765755630680001076e+00,2.720164600760000082e-03,-4.885814152659999701e-03,8.978063706309999739e-04,1.000000000000000000e+00
5.499451229999999802e-01,-4.358222682030000072e+00,-1.378655155650000130e-01,-8.794088575710000910e+00,1.382358092809999987e-02,3.283129539339999826e-03,3.512351540849999697e-03,1.000000000000000000e+00
5.549850189999999683e-01,-4.328479577940000489e+00,-1.604761191659999919e-01,-8.794020186650000070e+00,1.503796596079999895e-02,1.171438582239999956e-02,-7.392191328109999453e-03,1.000000000000000000e+00
5.600232499999999725e-01,-4.338616648809999532e+00,-1.501013853470000159e-01,-8.826692037680000880e+00,-5.202405154710000243e-03,1.154981739819999943e-02,-6.380198523399999676e-03,1.000000000000000000e+00
5.649878000000000400e-01,-4.336813106519999295e+00,-1.208105915960000082e-01,-8.736535965930000813e+00,1.057630497959999999e-02,1.308986451479999917e-03,-1.039432128890000091e-03,1.000000000000000000e+00
5.700102929999999457e-01,-4.310886930359999702e+00,-1.547887029130000092e-01,-8.807180696999999725e+00,7.905730977649998853e-03,-4.174296278509999868e-03,-1.464537344870000309e-04,1.000000000000000000e+00
5.749359809999999849e-01,-4.293060181769999595e+00,-1.773373837259999974e-01,-8.804412401329999582e+00,-1.191611494870000072e-02,6.479285191740000172e-03,-1.218409370629999940e-02,1.000000000000000000e+00
5.799970960000000453e-01,-4.340556092439999958e+00,-1.593659294339999921e-01,-8.795745695269999942e+00,-1.394479302690000136e-03,-1.362021826210000133e-02,-7.775679230689999839e-03,1.000000000000000000e+00
5.849768459999999948e-01,-4.313296329589999978e+00,-1.380444249290000147e-01,-8.795449342670000448e+00,3.633902873840000412e-03,2.049568574880000250e-03,-4.279597662389999189e-03,1.000000000000000000e+00
5.899770330000000396e-01,-4.283044399190000462e+00,-1.271492565650000073e-01,-8.763988621010000202e+00,-8.435820229350000921e-03,4.455044865609999495e-03,-4.482915624979999687e-03,1.000000000000000000e+00
5.950076330000000358e-01,-4.333749042769999171e+00,-1.880984865139999906e-01,-8.811451798450001149e+00,1.233372930439999987e-02,4.875059239569999418e-03,3.517064033079999978e-03,1.000000000000000000e+00
5.999689169999999905e-01,-4.338919138889999694e+00,-1.677953744039999973e-01,-8.808732602619999241e+00,-2.064185217020000126e-03,1.312940614300000045e-03,5.782739259300000156e-03,1.000000000000000000e+00
6.048864449999999948e-01,-4.305112730869999460e+00,-1.556856517519999983e-01,-8.783774686970000189e+00,-4.401201382279999741e-03,-8.801244199280000222e-03,-9.053045883770000773e-03,1.000000000000000000e+00
6.099734230000000146e-01,-4.345554631379999755e+00,-1.630324160520000010e-01,-8.812068469039999741e+00,-1.088469871319999987e-03,3.522815182809999664e-03,-8.250277489419999624e-03,1.000000000000000000e+00
6.149216039999999550e-01,-4.368327019680000589e+00,-1.616081188700000115e-01,-8.782432040189998901e+00,9.450409561399999298e-03,1.746661029759999850e-03,7.267775945369999054e-03,1.000000000000000000e+00
6.200599279999999824e-01,-4.319863433020000087e+00,-1.640188698060000005e-01,-8.778200686230000827e+00,9.620518423620001702e-03,6.906595546750000057e-03,7.823814637959999180e-03,1.000000000000000000e+00
6.249420390000000047e-01,-4.310308838210000104e+00,-1.452043066210000066e-01,-8.805607748589999062e+00,6.884396076200000394e-03,-2.175075002010000078e-03,5.726485978810000625e-04,1.000000000000000000e+00
6.299511300000000258e-01,-4.362285693690000521e+00,-1.294532591910000086e-01,-8.780118502549999704e+00,4.246870521460000100e-04,-9.943544864649999510e-03,1.022827345879999926e-02,1.000000000000000000e+00
6.349435820000000064e-01,-4.291015816459999854e+00,-1.403359059999999825e-01,-8.790310810739999425e+00,1.272427197549999903e-02,-8.547668345270001411e-03,-3.747996641320000110e-03,1.000000000000000000e+00
6.400211099999999487e-01,-4.359787739389999750e+00,-1.663412483390000196e-01,-8.785555725169999164e+00,1.908285776149999959e-05,-1.236434443849999953e-03,5.169282667340000079e-05,1.000000000000000000e+00
6.449317209999999578e-01,-4.333228818290000284e+00,-1.424668444809999990e-01,-8.770579689830000802e+00,-2.895478624849999807e-03,2.936275210229999984e-03,-3.371905535459999818e-03,1.000000000000000000e+00
6.499846919999999750e-01,-4.313670131340000324e+00,-1.411675253849999923e-01,-8.751923504680000576e+00,-1.528146583589999954e-02,-5.391325335949999353e-03,-9.409932419659998784e-03,1.000000000000000000e+00
6.550073039999999569e-01,-4.348831168830000315e+00,-1.928730257059999842e-01,-8.817118738169998693e+00,-6.052567623560000526e-03,-3.262889105829999865e-03,1.675385748970000107e-03,1.000000000000000000e+00
6.599183800000000266e-01,-4.306751145729999841e+00,-1.436104615580000021e-01,-8.763536785580001265e+00,1.003799377940000140e-03,-1.172498799860000225e-02,-1.309268269689999910e-02,1.000000000000000000e+00
6.649323139999999688e-01,-4.380734958090000575e+00,-1.495157583449999994e-01,-8.754263345800000096e+00,3.854176029560000237e-03,3.381486982110000050e-03,1.531621720639999955e-02,1.000000000000000000e+00
6.699674039999999886e-01,-4.303991325630000198e+00,-1.436310750879999931e-01,-8.770379198829999723e+00,-7.540841470469998196e-04,-9.354689158500000684e-03,-6.360266823319999686e-03,1.000000000000000000e+00
6.749807970000000212e-01,-4.361716953890000248e+00,-1.356842442689999984e-01,-8.811209221860000440e+00,-5.198590923100000413e-03,1.198658905919999969e-02,5.064032971860000024e-03,1.000000000000000000e+00
6.799991119999999611e-01,-4.381309543109999538e+00,-1.533243659809999937e-01,-8.789495987230001361e+00,3.023915225640000023e-03,-1.812089607120000168e-02,2.453672327100000009e-02,1.000000000000000000e+00
6.849391280000000082e-01,-4.247389732960000330e+00,-1.654777268450000061e-01,-8.803642586000000492e+00,5.409508477899999460e-03,5.194166675209999952e-03,-4.873455036430000137e-03,1.000000000000000000e+00
6.899793330000000280e-01,-4.335062463459999904e+00,-1.547177565679999922e-01,-8.802183034840000531e+00,-7.768427487459999940e-03,-3.804537002000000188e-03,4.407049156730000194e-03,1.000000000000000000e+00
6.949945810000000002e-01,-4.320891899290000282e+00,-1.244909697419999961e-01,-8.755193904649999581e+00,5.092320498079999994e-03,-1.689007738609999950e-03,-5.423740483819999500e-03,1.000000000000000000e+00
7.000097520000000406e-01,-4.386396344850000517e+00,-1.366282014550000146e-01,-8.789275037950000424e+00,1.623315364119999951e-02,-7.665257900949999474e-03,1.067587919529999763e-02,1.000000000000000000e+00
7.049791760000000407e-01,-4.301927086580000115e+00,-1.486909796929999916e-01,-8.799389604730000869e+00,-6.938181351870000013e-03,1.910989917809999619e-02,-4.813780076800000529e-03,1.000000000000000000e+00
7.099686419999999831e-01,-4.344139503880000142e+00,-1.448306966679999974e-01,-8.771563440170000447e+00,7.616536691779999743e-03,4.933039192109999957e-03,-6.031476426869999442e-03,1.000000000000000000e+00
7.149357440000000397e-01,-4.365423407190000660e+00,-1.306966103159999948e-01,-8.781634752329999571e+00,-1.622193492950000163e-02,6.972449365999999760e-03,1.102518849069999973e-02,1.000000000000000000e+00
7.200209739999999803e-01,-4.341925042699999793e+00,-1.308708343720000056e-01,-8.805247098589999766e+00,-4.580823238940000090e-03,6.996877025810000275e-03,1.179645210500000069e-02,1.000000000000000000e+00
7.249845980000000356e-01,-4.299943219280000228e+00,-1.437033274730000199e-01,-8.769815135200000000e+00,-1.268988940860000039e-02,-1.566712371999999867e-02,-9.615940507499999828e-04,1.000000000000000000e+00
7.300073059999999670e-01,-4.297171416480000339e+00,-1.452549499620000018e-01,-8.794848454169999385e+00,-7.594747934489999922e-03,-8.453914895650000219e-03,5.559630692009999951e-03,1.000000000000000000e+00
7.350276700000000218e-01,-4.304484077579999735e+00,-1.570562459860000148e-01,-8.798516913549999430e+00,2.800574526189999677e-03,2.668224740769999884e-03,-1.984748058019999983e-03,1.000000000000000000e+00
7.399528290000000341e-01,-4.396148800319999772e+00,-1.783318929219999960e-01,-8.802920701469998832e+00,7.036042865369999781e-03,-1.471306011079999768e-02,1.262494456020000176e-02,1.000000000000000000e+00
7.449443510000000046e-01,-4.321165163269999887e+00,-1.343768423320000072e-01,-8.798062155519998484e+00,-3.661986556840000212e-04,-8.842917159200000890e-03,2.792009850960000192e-03,1.000000000000000000e+00
7.499369679999999816e-01,-4.303797848880000387e+00,-1.330958534770000090e-01,-8.784002065990000219e+00,5.086561199279999480e-03,5.577795673159999940e-03,-1.159448269750000017e-02,1.000000000000000000e+00
7.549449099999999691e-01,-4.325046096359999481e+00,-1.464923645370000138e-01,-8.810806486280000627e+00,7.210412994029999183e-03,-8.822603151200000479e-03,-3.705738345160000061e-03,1.000000000000000000e+00
7.599650060000000540e-01,-4.327342390600000144e+00,-1.558119084809999888e-01,-8.798107163710000123e+00,-7.761138491330000014e-03,6.217181216930000231e-04,-6.905662827190000436e-03,1.000000000000000000e+00
7.649418289999999621e-01,-4.381107590800000118e+00,-1.606539599510000138e-01,-8.805402581410000096e+00,-1.092633698139999950e-02,-2.750719431790000016e-03,2.030978351829999806e-02,1.000000000000000000e+00
7.700008780000000552e-01,-4.279622900309999700e+00,-1.533771373479999867e-01,-8.787668771799999945e+00,1.067804917690000008e-02,-7.026135921479999269e-03,-2.305382862690000083e-03,1.000000000000000000e+00
7.749957929999999884e-01,-4.324135703510000539e+00,-1.638470386370000087e-01,-8.759064024080000621e+00,8.053384721279999506e-03,-1.600123709069999935e-03,-4.405528306959999221e-04,1.000000000000000000e+00
7.800135009999999980e-01,-4.359208185940000035e+00,-1.626771911400000103e-01,-8.769249902529999474e+00,-6.733036134389999532e-03,-2.470808103679999709e-04,9.541509672999999581e-03,1.000000000000000000e+00
7.849923149999999961e-01,-4.324417150799999554e+00,-1.605117932669999914e-01,-8.795406088049999127e+00,-1.185329165310000004e-03,-8.160794153810000187e-03,-6.480794399980000571e-05,1.000000000000000000e+00
7.899691220000000236e-01,-4.330438018530000654e+00,-1.544288566239999938e-01,-8.777699166450000590e+00,-3.212092444300000162e-03,3.510890994220000182e-03,-4.086330533030000343e-03,1.000000000000000000e+00
7.949850950000000305e-01,-4.340613083319999177e+00,-1.592972481119999950e-01,-8.792994350739999021e+00,-5.369820632040000173e-03,-1.223727501929999968e-02,-6.031374447050000254e-03,1.000000000000000000e+00
8.000056190000000012e-01,-4.331460055049999980e+00,-1.641095620309999947e-01,-8.788919648640000304e+00,-7.740030996499999878e-03,-1.128368265929999975e-02,1.340201124550000045e-04,1.000000000000000000e+00
8.049855949999999982e-01,-4.338536277050000223e+00,-1.138559958180000026e-01,-8.764714012669999832e+00,-1.414604950700000139e-03,-2.419521659610000125e-02,-2.454288303849999631e-03,1.000000000000000000e+00
8.099371340000000030e-01,-4.298910076840000372e+00,-1.390962903350000113e-01,-8.783252124400000582e+00,-5.545290186999999931e-04,6.746653001760000157e-03,-1.084072794769999973e-02,1.000000000000000000e+00
8.149054869999999839e-01,-4.345660429840000560e+00,-1.306576117459999908e-01,-8.783566597180000102e+00,-1.937406603250000107e-03,-7.024947088209999337e-03,-1.179354079070000019e-02,1.000000000000000000e+00
8.199377439999999684e-01,-4.332613901260000233e+00,-1.570023969069999914e-01,-8.790306719089999277e+00,-1.777646690609999830e-02,2.419113647190000022e-03,-2.543991897260000027e-03,1.000000000000000000e+00
8.249434300000000331e-01,-4.319868693720000152e+00,-1.343562927339999880e-01,-8.777848219530000051e+00,1.125177950599999966e-03,-1.857174001629999932e-02,8.954012766480000038e-03,1.000000000000000000e+00
8.299691399999999941e-01,-4.334043934069999437e+00,-1.570814534919999783e-01,-8.805395567150000602e+00,6.131919100880000098e-03,-8.543739095329999818e-04,1.159152947370000256e-02,1.000000000000000000e+00
8.349278060000000501e-01,-4.271787384380000496e+00,-1.392224191989999971e-01,-8.790897086199999322e+00,-1.376716978850000064e-02,-1.806837879120000087e-02,-2.093353308740000199e-03,1.000000000000000000e+00
8.399472329999999598e-01,-4.302032300519999630e+00,-1.558176623679999873e-01,-8.790350558230000999e+00,-1.673577935430000047e-03,2.187468577179999679e-03,-7.816043682399999304e-03,1.000000000000000000e+00
8.449623229999999596e-01,-4.355555800909999498e+00,-1.474122649939999807e-01,-8.783118268890000024e+00,-5.196637939659999594e-03,-1.189237344079999842e-03,1.139082107689999915e-02,1.000000000000000000e+00
8.499494119999999597e-01,-4.287743370659999442e+00,-1.496808127140000222e-01,-8.773347985499999169e+00,-1.897289603950000000e-02,-1.437670364979999789e-02,-7.641450501979999387e-03,1.000000000000000000e+00
8.549908139999999879e-01,-4.348294577739999944e+00,-1.506270988539999967e-01,-8.749203724330000043e+00,1.186396460979999984e-03,-8.013952523470001255e-03,-6.571111734959999466e-04,1.000000000000000000e+00
8.600043870000000368e-01,-4.378730340269999743e+00,-1.579015925020000044e-01,-8.778062154540000606e+00,-1.457756757740000068e-02,-3.436463885009999482e-04,5.883709527549999332e-03,1.000000000000000000e+00
8.649691130000000117e-01,-4.325201871440000012e+00,-1.388818803999999907e-01,-8.769363299780000176e+00,1.901287585499999988e-02,-1.168966107070000190e-02,-2.498563146219999736e-03,1.000000000000000000e+00
8.699633559999999655e-01,-4.412895644719999844e+00,-1.327805404500000119e-01,-8.764888200189998813e+00,-6.083774846050000150e-03,-4.411012399939999266e-03,1.741877198220000145e-02,1.000000000000000000e+00
8.749555380000000326e-01,-4.319390847069999317e+00,-1.187129343300000056e-01,-8.782150885160000087e+00,-1.703180372709999987e-02,-3.636771813039999489e-03,-2.318284474310000013e-03,1.000000000000000000e+00
8.800063529999999634e-01,-4.376939072939999953e+00,-1.294453955450000082e-01,-8.774486634139998742e+00,-7.633722852920000156e-03,2.360215876250000057e-04,2.063224278390000249e-02,1.000000000000000000e+00
8.849187859999999572e-01,-4.313750503099999634e+00,-1.308742867040000035e-01,-8.804158718830001007e+00,-2.031867951150000129e-02,-5.586693994699999666e-03,8.869837969540000575e-03,1.000000000000000000e+00
8.899590219999999885e-01,-4.351841164299999676e+00,-1.139706260400000087e-01,-8.778958226600000359e+00,-1.160451583559999993e-02,-1.151487231249999875e-02,1.182376127689999980e-02,1.000000000000000000e+00
8.949972999999999956e-01,-4.351081578109999626e+00,-1.006761871160000016e-01,-8.754044734620000767e+00,1.178628299390000020e-04,-2.511020749809999772e-03,1.514460053289999955e-02,1.000000000000000000e+00
8.999629409999999607e-01,-4.303254535789999835e+00,-1.368471871009999952e-01,-8.803198933890000077e+00,-1.854742318389999978e-02,-1.215671934189999949e-02,2.863750094549999750e-03,1.000000000000000000e+00
9.049213879999999932e-01,-4.356244952219999078e+00,-1.391237628639999946e-01,-8.796832905989999674e+00,-3.127277828749999537e-03,-3.345838282259999946e-03,1.087984256449999951e-02,1.000000000000000000e+00
9.099482509999999857e-01,-4.328811001850000117e+00,-1.605290001300000158e-01,-8.794422337709999482e+00,-5.607127211990000151e-03,-2.189601538699999760e-03,7.175421342250000445e-03,1.000000000000000000e+00
9.149264249999999876e-01,-4.283862437569999848e+00,-1.476831817560000093e-01,-8.817954604469999680e+00,7.609982043499999987e-03,7.522511295969999115e-04,-5.953192710880000210e-03,1.000000000000000000e+00
9.199310739999999598e-01,-4.375149559169999591e+00,-1.830574236070000027e-01,-8.790845648270000368e+00,-1.667581871149999978e-02,-4.243752919140000271e-04,1.683981530370000021e-02,1.000000000000000000e+00
9.249056509999999953e-01,-4.291287911399999544e+00,-1.449127123960000096e-01,-8.784560868910000764e+00,-1.120254397390000115e-02,-8.124457672239999637e-03,-7.073693908750000418e-03,1.000000000000000000e+00
9.299314749999999519e-01,-4.367309367069999837e+00,-1.567186480620000044e-01,-8.779349271739999239e+00,-7.081546820699999474e-03,7.518571335819999348e-03,1.582586904989999798e-03,1.000000000000000000e+00
9.349356490000000353e-01,-4.355770612699999766e+00,-1.744906159930000034e-01,-8.775355233670000032e+00,9.681887924670000423e-03,-1.891106017870000005e-03,-6.655398756269999836e-04,1.000000000000000000e+00
9.399478970000000322e-01,-4.367583215569999844e+00,-1.542506139810000121e-01,-8.772002416110000311e+00,-4.355175769889999926e-04,2.046284824609999678e-02,4.503544420000000006e-03,1.000000000000000000e+00
9.449305559999999771e-01,-4.362220519500000115e+00,-1.493479366310000167e-01,-8.754215415010000001e+00,-1.154007483270000009e-02,-1.888579456139999942e-03,8.221725001930000470e-03,1.000000000000000000e+00
9.498660030000000143e-01,-4.389336489959999810e+00,-1.043078033500000057e-01,-8.775788948909999831e+00,4.460923373699999216e-03,-2.346863038840000040e-03,2.183735370640000478e-02,1.000000000000000000e+00
9.549336889999999745e-01,-4.316126000059999690e+00,-1.069900738370000021e-01,-8.805921052329999554e+00,-6.425352301450000005e-03,5.407665390520000753e-03,4.159028641880000050e-03,1.000000000000000000e+00
9.599209189999999836e-01,-4.375629451650000057e+00,-1.472500236370000160e-01,-8.788667719710000270e+00,3.527856897559999744e-04,1.270132511849999916e-02,1.224392931910000051e-02,1.000000000000000000e+00
9.648939389999999783e-01,-4.321956021390000124e+00,-1.185163431790000055e-01,-8.758466642710001082e+00,-8.379284292459999658e-03,1.124993199480000140e-03,3.610660089179999668e-03,1.000000000000000000e+00
9.700073790000000029e-01,-4.355882256390000151e+00,-1.425914115749999933e-01,-8.787225704209999932e+00,5.541424732659999165e-03,-4.871888086199999639e-05,1.752866245809999932e-02,1.000000000000000000e+00
9.749502500000000182e-01,-4.273067779579999836e+00,-1.485505757080000100e-01,-8.786161289849999889e+00,-2.849413547660000108e-03,1.673373579980000012e-02,-7.774818688630000425e-03,1.000000000000000000e+00
9.799983190000000066e-01,-4.342858816419999712e+00,-1.175792267249999995e-01,-8.787138025920000928e+00,-5.168742965910000028e-03,1.363969780500000166e-02,-5.172726698219999933e-03,1.000000000000000000e+00
9.849625669999999555e-01,-4.339433225889999690e+00,-1.271934519000000041e-01,-8.795624114720000719e+00,-5.494666751470000422e-03,1.823694631459999924e-02,-7.474021986130000537e-04,1.000000000000000000e+00
9.899938449999999834e-01,-4.284443744589999881e+00,-1.248194527779999952e-01,-8.782305783460000015e+00,8.465256541970000992e-03,-2.375689568000000172e-03,-7.240908220410000040e-03,1.000000000000000000e+00
9.949714170000000246e-01,-4.353673640430000269e+00,-1.402140423190000040e-01,-8.795053621350000128e+00,2.284937538209999910e-03,-1.021388731899999965e-02,-3.879028139639999727e-03,1.000000000000000000e+00
9.999478729999999871e-01,-4.337862323309999546e+00,-1.487478518460000065e-01,-8.821092317969998930e+00,3.107829717919999811e-03,-3.299805149440000057e-02,-1.112187001849999912e-02,1.000000000000000000e+00
1.004979386999999891e+00,-4.355311763019999560e+00,-1.411970163409999868e-01,-8.771188177120000873e+00,-1.448160782460000164e-02,-1.055043376979999947e-02,-6.899078376590000831e-03,1.000000000000000000e+00
1.010003481999999897e+00,-4.361811061910000120e+00,-1.494144259959999943e-01,-8.754704075310000277e+00,-1.100418251009999994e-02,7.845744490619999470e-03,5.472814664240000133e-03,1.000000000000000000e+00
1.014981334000000013e+00,-4.353868578480000195e+00,-1.172652380059999999e-01,-8.758006039460001446e+00,-1.176224276419999930e-02,9.138934314249998886e-03,4.904439672830000069e-03,1.000000000000000000e+00
1.019935051999999898e+00,-4.379316323469999439e+00,-1.103253831389999912e-01,-8.789638610569999955e+00,-9.056566283110000989e-03,-7.200716063380001785e-04,6.342517212029999234e-03,1.000000000000000000e+00
1.024959799999999976e+00,-4.371736243600000016e+00,-6.258110090040000517e-02,-8.764180344189998806e+00,-1.323596388100000028e-02,-5.848077125850000262e-04,1.166574656960000025e-02,1.000000000000000000e+00
1.029959367000000015e+00,-4.365359109780000857e+00,-1.630023497079999828e-01,-8.821966178200000286e+00,-1.449323166160000100e-02,7.378501351919999202e-03,1.466003339739999946e-02,1.000000000000000000e+00
1.034917372000000002e+00,-4.324288263730000637e+00,-8.037489250389999451e-02,-8.754780063160001902e+00,-4.417592659590000373e-03,1.585396379229999861e-02,5.390809383240000377e-04,1.000000000000000000e+00
1.040026200000000012e+00,-4.305899497340000437e+00,-1.306904728359999934e-01,-8.777228041810001713e+00,-5.312856286760000643e-03,1.989256218079999902e-02,3.891543019559999799e-04,1.000000000000000000e+00
1.044960950999999971e+00,-4.357919022909999995e+00,-1.136583452210000039e-01,-8.751050813500000913e+00,-2.966796979309999690e-03,1.064964570110000022e-02,4.976294934750000523e-03,1.000000000000000000e+00
1.049942592000000063e+00,-4.376183286139999851e+00,-9.434623517589998953e-02,-8.723412864989999349e+00,2.595980418849999725e-03,1.087649725379999794e-04,1.297358889130000026e-02,1.000000000000000000e+00
1.054948855999999990e+00,-4.324938544330000134e+00,-1.088988026689999972e-01,-8.753298300160000878e+00,-9.267093613740000346e-03,9.801393374799998587e-03,-2.269728574900000372e-03,1.000000000000000000e+00
1.059929278000000030e+00,-4.366410080139999650e+00,-1.089389154829999984e-01,-8.761404449729999655e+00,-2.350416500119999804e-03,2.609870210290000242e-02,-6.466873455790000513e-04,1.000000000000000000e+00
1.064920443999999966e+00,-4.330755998440000809e+00,-1.151743940729999943e-01,-8.781385161489998481e+00,5.373721476640000612e-03,1.164700649680000012e-02,-8.130099158730000070e-04,1.000000000000000000e+00
1.069941873000000099e+00,-4.366342567860000301e+00,-1.139059359070000027e-01,-8.788592900910000338e+00,7.401130162180000020e-03,9.981187060479998485e-03,-2.966851461680000170e-03,1.000000000000000000e+00
1.074927525000000106e+00,-4.378865949349999731e+00,-1.474793936790000093e-01,-8.819384929530000861e+00,-3.807211294769999657e-03,9.767120704049999519e-03,1.554374350230000026e-03,1.000000000000000000e+00
1.079903746999999914e+00,-4.387784876600000494e+00,-1.066050017760000052e-01,-8.769562037220000050e+00,-3.125008428469999797e-03,9.022306650879998238e-03,1.042041741309999991e-02,1.000000000000000000e+00
1.084963174000000086e+00,-4.295862379709999956e+00,-1.224729992490000141e-01,-8.807083666369999619e+00,-5.761075764890000346e-03,9.968739002939999705e-03,-1.617380790410000158e-02,1.000000000000000000e+00
1.089930397000000051e+00,-4.411571118119999468e+00,-1.271774780130000004e-01,-8.808874641439999209e+00,1.390440110120000003e-02,1.017652638260000027e-02,6.426032632590000272e-03,1.000000000000000000e+00
1.094928469999999932e+00,-4.266060238899999746e+00,-1.727931826909999968e-01,-8.825109152399999601e+00,-2.212738152590000215e-03,1.260045543310000030e-02,-5.910791456700000175e-03,1.000000000000000000e+00
1.099957775000000026e+00,-4.299584030580000160e+00,-1.510588778680000133e-01,-8.794930287239999700e+00,2.106947079299999886e-02,9.109241887930000919e-03,-1.008344814179999889e-02,1.000000000000000000e+00
1.104931901000000050e+00,-4.326019617560000086e+00,-1.664235928610000026e-01,-8.785164095499998993e+00,-3.927397541699999967e-03,2.142206765709999978e-03,-2.722401637580000242e-03,1.000000000000000000e+00
1.109988248999999927e+00,-4.351913645019999777e+00,-1.449449250319999882e-01,-8.787015860849999527e+00,2.554879290979999995e-03,2.082211431119999987e-03,5.814663134520000470e-03,1.000000000000000000e+00
1.114941004000000069e+00,-4.303818014890000043e+00,-1.209157507369999912e-01,-8.754149364039999881e+00,7.675145752729999396e-03,7.416212465610000359e-03,-3.825214225800000183e-03,1.000000000000000000e+00
1.119961953000000010e+00,-4.316443687709999644e+00,-1.547403154599999719e-01,-8.808024162089999720e+00,-7.155867642720000052e-04,8.501594420519998935e-04,5.474046338350000351e-04,1.000000000000000000e+00
1.124948046000000090e+00,-4.371998693930000179e+00,-1.389066586480000032e-01,-8.781907139530000350e+00,-2.301638596690000200e-04,1.381249912079999913e-02,1.267363969240000061e-02,1.000000000000000000e+00
1.129956487999999926e+00,-4.307966658999999865e+00,-1.343110653529999976e-01,-8.802116399350000009e+00,7.659693248569999190e-03,8.556344546380000721e-04,-9.670644998549998705e-03,1.000000000000000000e+00
1.134935722999999896e+00,-4.329742437480000206e+00,-1.282545235270000084e-01,-8.774581326689999017e+00,7.403486408290000688e-03,2.334010321650000115e-03,-2.522499300540000100e-03,1.000000000000000000e+00
1.139980661999999922e+00,-4.356744426169999684e+00,-1.427543105190000050e-01,-8.810750956699999747e+00,7.346775382760000611e-03,1.786921359600000120e-02,6.024512462319999220e-03,1.000000000000000000e+00
1.144902319999999918e+00,-4.311458592769999321e+00,-1.282498930169999884e-01,-8.783460798720000184e+00,1.591594889760000048e-02,8.495433256029999436e-03,-7.751487195490000537e-03,1.000000000000000000e+00
1.149862560000000089e+00,-4.333939889169999837e+00,-1.440307875959999928e-01,-8.811404452170000567e+00,1.180326752360000113e-02,-1.270581502470000080e-03,7.449474651369999154e-04,1.000000000000000000e+00
1.154872351000000075e+00,-4.343864486330000219e+00,-1.379764651259999808e-01,-8.803945368339999078e+00,2.272170782090000493e-02,-7.375901099290000512e-03,8.261388167739998692e-03,1.000000000000000000e+00
1.159987002000000045e+00,-4.268885817719999309e+00,-1.513581074089999923e-01,-8.825064144209999739e+00,2.772284671660000047e-02,5.317992996420000014e-03,-6.118332035840000002e-03,1.000000000000000000e+00
1.165005545999999947e+00,-4.307995008309999818e+00,-1.496013360029999906e-01,-8.768383641089998903e+00,1.105503085999999871e-02,1.125281862910000076e-02,-1.144349947570000130e-02,1.000000000000000000e+00
1.169996456000000018e+00,-4.298260965280000789e+00,-1.079250896649999875e-01,-8.759405384869999978e+00,1.073057856410000038e-02,-1.100083626810000048e-02,-1.710702478889999933e-02,1.000000000000000000e+00
1.174991560000000046e+00,-4.370024178979999618e+00,-1.486447202650000021e-01,-8.795792457020001009e+00,2.198498696090000343e-02,-7.092687301340000992e-03,8.551441133020001167e-03,1.000000000000000000e+00
1.180040017000000052e+00,-4.334809950000000356e+00,-1.222872856849999967e-01,-8.785613008310001248e+00,1.809147372840000031e-02,-2.075625117869999998e-03,1.845787512140000105e-03,1.000000000000000000e+00
1.184996852999999906e+00,-4.328023358600000314e+00,-1.460883685789999831e-01,-8.786658133450000463e+00,1.799602434040000268e-02,7.189298514279999879e-03,-7.906232960519999492e-03,1.000000000000000000e+00
1.189993056999999910e+00,-4.319713210899999822e+00,-1.637090732049999997e-01,-8.754768957239999594e+00,7.526739500459999135e-03,-1.539827883239999924e-02,-1.406536344439999857e-02,1.000000000000000000e+00
1.195011829000000025e+00,-4.335364661269999864e+00,-1.746375319159999828e-01,-8.778682916789998458e+00,7.342173717919999940e-03,-1.007283665240000028e-02,-9.928604587909999057e-03,1.000000000000000000e+00
1.199956070999999902e+00,-4.382829592280000242e+00,-1.113840436130000139e-01,-8.764120138430000040e+00,1.864989101890000139e-02,-4.244013689459999981e-03,6.139043718579999601e-03,1.000000000000000000e+00
1.205006191000000060e+00,-4.258208064100000634e+00,-1.570318421970000045e-01,-8.785055958950000132e+00,1.632040739059999884e-02,1.136150909589999942e-03,-3.305229591210000033e-03,1.000000000000000000e+00
1.210006013000000102e+00,-4.356284115180000249e+00,-1.638328091819999943e-01,-8.782454836539999476e+00,1.165240071710000030e-03,2.510475460440000656e-04,-7.330257445569999912e-03,1.000000000000000000e+00
1.214948828999999897e+00,-4.323755179760000011e+00,-1.293738920780000135e-01,-8.768468396769998563e+00,9.107966907319998973e-03,1.279579941180000128e-03,-5.675497464839999659e-03,1.000000000000000000e+00
1.219999666999999954e+00,-4.355646694059999824e+00,-1.330288983219999888e-01,-8.791390422670000149e+00,-3.819290082900000157e-03,-1.063277199860000050e-02,-3.683824557809999619e-03,1.000000000000000000e+00
1.224883555999999984e+00,-4.349558898580000665e+00,-1.530086967610000126e-01,-8.767135102339999264e+00,2.108507230879999583e-02,1.166058005769999911e-03,-9.196606464680000606e-03,1.000000000000000000e+00
1.229907137000000095e+00,-4.363195502009999949e+00,-1.363549192049999803e-01,-8.768351492389999891e+00,1.101154834029999816e-03,-7.446307223290000304e-03,-9.451690129940001905e-03,1.000000000000000000e+00
1.234904629999999948e+00,-4.357348821809999606e+00,-1.567577744960000075e-01,-8.784085652619999962e+00,1.788473501799999962e-02,7.966381963339999595e-04,-6.167325656859999096e-03,1.000000000000000000e+00
1.239863198000000111e+00,-4.346603263650000493e+00,-1.555948499300000010e-01,-8.774266853909999497e+00,2.137979492550000013e-02,6.046716589479999258e-03,7.524508982899999303e-03,1.000000000000000000e+00
1.244925610999999988e+00,-4.330626234580000400e+00,-1.111123505320000121e-01,-8.734195540289999116e+00,4.379502497609999608e-03,1.266110502179999819e-02,-4.808713681999999927e-03,1.000000000000000000e+00
1.249936264000000019e+00,-4.306283820480000024e+00,-1.506048961559999788e-01,-8.751360610100000770e+00,-4.121874459089999720e-03,1.399718411269999969e-02,-1.648104563359999858e-02,1.000000000000000000e+00
1.255002152000000093e+00,-4.354204970819999687e+00,-1.436742383759999908e-01,-8.778606344419999985e+00,2.144099026920000262e-02,2.242087945339999930e-02,-7.968216203149998747e-03,1.000000000000000000e+00
1.259979930000000081e+00,-4.344763188740000004e+00,-1.519890622570000127e-01,-8.777349622360000936e+00,6.300046108659999519e-03,-7.667944766580000321e-03,-4.341940395529999240e-03,1.000000000000000000e+00
1.264978152000000078e+00,-4.301280020840000162e+00,-1.558642779890000163e-01,-8.797488739550001213e+00,-4.988456144929999912e-03,1.586911827329999872e-02,-4.033592995260000189e-03,1.000000000000000000e+00
1.269973500999999949e+00,-4.325253309369999855e+00,-1.412291102459999892e-01,-8.775889486680000573e+00,4.503877833489999989e-03,-6.122305057940000649e-04,-1.636342704300000270e-02,1.000000000000000000e+00
1.274948739000000053e+00,-4.338417911369999658e+00,-1.413128247409999871e-01,-8.777640714260000365e+00,-1.475283317270000005e-02,3.856723662470000133e-03,-1.222453359510000150e-02,1.000000000000000000e+00
1.279954864000000025e+00,-4.350669782430000687e+00,-1.664453663010000140e-01,-8.793129959819999897e+00,1.747733354570000022e-02,2.419404685500000079e-03,9.831192437560001569e-04,1.000000000000000000e+00
1.284987195000000026e+00,-4.324166975430000726e+00,-1.903048739840000059e-01,-8.806877914660001139e+00,3.339879913259999930e-05,2.727924287320000057e-02,-6.244138814510000017e-03,1.000000000000000000e+00
1.289974473000000010e+00,-4.332513655759999693e+00,-2.127401392849999906e-01,-8.786530707680000774e+00,1.515009719880000029e-02,-1.165719144050000010e-02,-7.546343840659999573e-03,1.000000000000000000e+00
1.294889436999999921e+00,-4.331256056910000041e+00,-1.698058191769999947e-01,-8.763667133969999412e+00,1.184088177979999990e-02,-9.966632351279999455e-03,2.486911369489999864e-03,1.000000000000000000e+00
1.299978225999999903e+00,-4.277349986940000015e+00,-1.806242599100000013e-01,-8.768913802449999295e+00,1.314949709920000022e-02,8.716946467760000594e-03,-5.298451520499999901e-03,1.000000000000000000e+00
1.304923564999999952e+00,-4.283293697780000464e+00,-1.974718064719999944e-01,-8.783657198069999339e+00,-5.921077681710000366e-04,7.386377546939998893e-04,-4.535445477809999285e-04,1.000000000000000000e+00
1.309911649000000011e+00,-4.303379623469999693e+00,-1.936447407309999924e-01,-8.770570922010000103e+00,3.136479528619999946e-03,9.077901486310000932e-04,-6.059023551640000359e-03,1.000000000000000000e+00
1.314964752999999931e+00,-4.341350457689999942e+00,-1.388917990059999885e-01,-8.771765100230000556e+00,5.536978133020000956e-03,-1.158488541840000004e-02,8.235836867239999500e-04,1.000000000000000000e+00
1.319950358000000046e+00,-4.316524643990000243e+00,-1.544078321029999923e-01,-8.776521939360000246e+00,1.021577976640000024e-02,2.913419157269999966e-03,-3.255515592170000159e-03,1.000000000000000000e+00
1.324961695999999911e+00,-4.328681237990000596e+00,-1.723827387269999956e-01,-8.793014808999998877e+00,4.288665950300000682e-03,1.502502523359999960e-02,-2.526042284440000243e-03,1.000000000000000000e+00
1.329995161999999898e+00,-4.348048201760000175e+00,-1.520074107640000116e-01,-8.781945717979999344e+00,-5.496845114979999683e-03,6.101859267799999466e-03,-2.816491760309999706e-04,1.000000000000000000e+00
1.335007617000000035e+00,-4.316833856069999698e+00,-1.639694777069999887e-01,-8.784608215189999569e+00,4.196288064119999624e-04,6.310301367189999691e-03,-7.624475285409999803e-03,1.000000000000000000e+00
1.339978667000000012e+00,-4.299243838839999832e+00,-1.531315924889999902e-01,-8.764726872149999792e+00,-1.950899255460000238e-03,2.240730915219999852e-03,-1.832738332450000243e-02,1.000000000000000000e+00
1.345000618999999897e+00,-4.398588010169999230e+00,-1.663607019580000124e-01,-8.788029421810001907e+00,6.762839620929999565e-04,6.001179572189999957e-03,1.354895438999999951e-02,1.000000000000000000e+00
1.349947926000000020e+00,-4.237957595490000173e+00,-1.460817561749999938e-01,-8.764321798480001036e+00,7.654522545640000605e-03,-9.572176495569999916e-04,-1.553253363820000094e-02,1.000000000000000000e+00
1.354996459000000097e+00,-4.373516697280000365e+00,-1.855948331299999976e-01,-8.810615347619998872e+00,-2.405962441119999674e-03,-5.638424307110000144e-03,4.589435644449999657e-03,1.000000000000000000e+00
1.359974491000000008e+00,-4.355757460959999605e+00,-1.354753142259999821e-01,-8.801916492860000218e+00,1.436816994100000066e-03,-4.037513397630000493e-03,3.270352492109999693e-03,1.000000000000000000e+00
1.364992994000000071e+00,-4.336286452290000426e+00,-1.306275454009999948e-01,-8.784549762999999345e+00,3.626067657020000216e-03,1.388447731729999801e-02,6.304497364909999622e-04,1.000000000000000000e+00
1.369954665000000071e+00,-4.306357762500000241e+00,-1.594128555819999959e-01,-8.807343194089998661e+00,-8.315578103069999269e-03,1.310344226659999889e-02,-1.143826637419999986e-02,1.000000000000000000e+00
1.374878312000000102e+00,-4.316681003590000287e+00,-1.580779902490000166e-01,-8.780615346160001167e+00,6.291698198770000541e-03,2.071312628690000213e-02,-5.991498939689999907e-03,1.000000000000000000e+00
1.379973973000000020e+00,-4.320485072049999431e+00,-1.700444137060000138e-01,-8.798911465830000722e+00,1.231580041349999944e-03,1.085132919250000015e-02,-1.093274168669999998e-02,1.000000000000000000e+00
1.385004791000000068e+00,-4.333446260430000585e+00,-1.149430330030000030e-01,-8.748423972130000337e+00,3.975600469860000007e-03,-1.006251573560000036e-02,-2.031277399509999904e-03,1.000000000000000000e+00
1.389882872999999908e+00,-4.322329823130000470e+00,-1.303856903360000041e-01,-8.748165613450000322e+00,1.937379827719999887e-03,1.425523683429999987e-02,-1.363058574500000198e-03,1.000000000000000000e+00
1.394822695000000001e+00,-4.367021197780000641e+00,-1.663457783839999982e-01,-8.791258320720000796e+00,-8.247045800090000919e-03,1.025613769890000061e-02,8.313074707979999436e-03,1.000000000000000000e+00
1.399893231000000071e+00,-4.297076723930000064e+00,-1.244838458809999909e-01,-8.756351842519999096e+00,-1.476943306620000229e-02,9.853059425950000047e-03,-7.519265636800000555e-03,1.000000000000000000e+00
1.404871377000000088e+00,-4.340995068380000710e+00,-1.412992894060000060e-01,-8.766394513099999841e+00,-6.268685683609998872e-03,9.464733302590001146e-03,9.870163165030001323e-03,1.000000000000000000e+00
1.409910473000000053e+00,-4.279073449730000256e+00,-1.439369535660000032e-01,-8.801776792130000970e+00,2.720065647739999901e-03,1.300349272790000087e-02,-1.109333336349999956e-02,1.000000000000000000e+00
1.414894577999999958e+00,-4.295909433719999448e+00,-1.678527123480000049e-01,-8.803694023929999446e+00,-1.269978936760000031e-02,5.956452805550000937e-03,-7.813087664540000962e-03,1.000000000000000000e+00
1.419881058000000085e+00,-4.322094845340000546e+00,-1.428714614930000071e-01,-8.811642352579999837e+00,1.485104439779999855e-03,1.339207775889999889e-02,-1.356942113489999820e-03,1.000000000000000000e+00
1.424880872999999992e+00,-4.306159025059999479e+00,-1.403243068939999949e-01,-8.798121192230000887e+00,6.633332930510000246e-03,2.748240344229999771e-02,-1.030185911800000041e-02,1.000000000000000000e+00
1.429886377000000097e+00,-4.331790017659999492e+00,-1.763520807490000231e-01,-8.836156031589998960e+00,1.136854290960000180e-02,-7.605260238049999823e-03,-4.094570409510000196e-03,1.000000000000000000e+00
1.434885932999999891e+00,-4.307867874800000330e+00,-1.724574296649999949e-01,-8.801382824380000969e+00,1.610182225700000072e-03,1.353402808309999913e-02,-1.366108562799999912e-02,1.000000000000000000e+00
1.439892120999999969e+00,-4.375718006709999663e+00,-1.793261463900000241e-01,-8.780352895830001003e+00,-2.241329522800000144e-03,3.100568428640000174e-04,-8.631597738710001123e-04,1.000000000000000000e+00
1.445008561999999941e+00,-4.326405402009999790e+00,-1.831348362249999862e-01,-8.802215183550000432e+00,-8.551920764149999318e-04,2.508732117710000056e-02,-5.945834331209999199e-03,1.000000000000000000e+00
1.449912794000000060e+00,-4.372721455239999777e+00,-1.457744620580000150e-01,-8.748611603649999680e+00,7.143814116720000919e-03,2.175901830200000289e-02,9.309863671660000006e-03,1.000000000000000000e+00
1.454949508999999974e+00,-4.281480803140000013e+00,-1.629360978050000131e-01,-8.794718105790000351e+00,7.332600653170000607e-03,2.618494257330000047e-02,-6.298913154749999875e-03,1.000000000000000000e+00
1.459987885999999957e+00,-4.341036277169999735e+00,-1.483869552450000073e-01,-8.772660003239998616e+00,1.646965369579999824e-02,6.301688496020000849e-03,-3.597031347449999861e-03,1.000000000000000000e+00
1.464956206000000094e+00,-4.344900843640000510e+00,-1.662036482329999898e-01,-8.767890304619999853e+00,-1.066236523909999939e-03,1.641638390719999882e-02,3.376537701119999933e-03,1.000000000000000000e+00
1.469987232999999893e+00,-4.257314622390000025e+00,-2.026120737029999952e-01,-8.831108100549998952e+00,-2.313980832700000129e-02,2.637624740600000295e-02,-9.074473753569999371e-03,1.000000000000000000e+00
1.474938531000000053e+00,-4.311287035590000372e+00,-1.988022513580000039e-01,-8.808123530810000545e+00,-1.314714550969999906e-03,1.120832376179999902e-02,-4.387600347399999600e-05,1.000000000000000000e+00
1.479966904000000083e+00,-4.281853143580000243e+00,-2.071412050329999865e-01,-8.803706883410001183e+00,-1.724482979630000221e-03,1.404467597599999909e-02,1.238279277459999970e-03,1.000000000000000000e+00
1.484989850000000056e+00,-4.293594142519999934e+00,-1.831853608350000051e-01,-8.784769543230000366e+00,-4.668469540770000571e-03,1.656328700480000013e-02,8.121058344840000748e-03,1.000000000000000000e+00
1.489946103999999938e+00,-4.289181879030000921e+00,-1.508068484689999988e-01,-8.768497622860000007e+00,3.926102537659999746e-03,6.580580491569999052e-03,-4.648977890610000129e-03,1.000000000000000000e+00
1.494993092000000079e+00,-4.292798900490000236e+00,-1.582683434559999935e-01,-8.788748968250001070e+00,-6.810723338279999796e-03,2.270984463390000180e-02,5.688774399460000408e-03,1.000000000000000000e+00
1.500034277999999999e+00,-4.288554102520000022e+00,-1.665464520549999883e-01,-8.796127388069999498e+00,-1.032697409389999980e-02,-4.624467808750000290e-03,-2.079996978859999755e-03,1.000000000000000000e+00
1.505020712999999954e+00,-4.314634884719999341e+00,-1.643524308759999886e-01,-8.812036320339998952e+00,-1.999167352909999792e-02,-5.552014335989999792e-03,1.015581656249999951e-02,1.000000000000000000e+00
1.509989248999999978e+00,-4.276227704910000149e+00,-1.450861783999999877e-01,-8.789205479850000557e+00,-2.706614555789999942e-03,2.037382125849999948e-02,-2.488930011170000130e-03,1.000000000000000000e+00
1.514951917000000092e+00,-4.326934394319999377e+00,-1.797227992909999905e-01,-8.816800173739999025e+00,-2.440582029519999894e-03,7.581141311680000827e-03,-3.027469385420000249e-03,1.000000000000000000e+00
1.519961348000000045e+00,-4.328185855690000139e+00,-1.617124012289999913e-01,-8.792236810369999489e+00,4.285570234059999511e-03,8.312607184050000569e-03,3.356256755070000184e-03,1.000000000000000000e+00
1.525067940000000011e+00,-4.370235191389999940e+00,-1.295092728280000105e-01,-8.805157082219999154e+00,-1.196414791050000141e-02,1.436706818639999980e-02,2.753156470130000560e-03,1.000000000000000000e+00
1.529983088000000047e+00,-4.312464847200000229e+00,-1.275079338100000015e-01,-8.813616867529999510e+00,-4.177878610789999628e-03,6.064311135560000905e-03,1.601451262830000041e-02,1.000000000000000000e+00
1.534971022999999990e+00,-4.276236765000000162e+00,-1.457372901189999959e-01,-8.865474480539999647e+00,-8.426789194350000137e-03,2.123210579160000281e-03,2.038662554700000022e-03,1.000000000000000000e+00
1.539982552999999976e+00,-4.296626934339999870e+00,-1.575891472859999864e-01,-8.856154863529999588e+00,1.367745269090000007e-02,4.762338008729999003e-03,3.866143757480000002e-03,1.000000000000000000e+00
1.544992767000000100e+00,-4.274585198399999619e+00,-1.192859301780000020e-01,-8.830066482550000373e+00,3.537822514769999992e-03,6.389059126380000533e-05,-7.633538916710000052e-03,1.000000000000000000e+00
1.549994313000000012e+00,-4.304064390859999811e+00,-1.334246835729999969e-01,-8.806658718950000519e+00,1.194595079870000055e-02,1.148202829060000069e-02,5.576504394409999808e-03,1.000000000000000000e+00
1.555004625000000029e+00,-4.290685269329999940e+00,-1.703906515940000199e-01,-8.830517733449999795e+00,5.274776369329999860e-03,7.416603621099999467e-03,-4.235654138029999911e-03,1.000000000000000000e+00
1.559993221000000041e+00,-4.297983317389999947e+00,-1.616482134190000142e-01,-8.782833606729999687e+00,6.433151662350000168e-03,-3.588573308659999753e-03,-1.079805754129999941e-02,1.000000000000000000e+00
1.564993070000000097e+00,-4.334703274759999836e+00,-1.668926534109999860e-01,-8.832191219620000311e+00,1.024049520489999851e-02,-9.377799928189999717e-03,9.789721108969999183e-03,1.000000000000000000e+00
1.569977594999999893e+00,-4.253341627100000188e+00,-2.001233986929999986e-01,-8.821374642050001214e+00,-2.883594250309999898e-03,3.160572145129999979e-03,-8.313690312209999489e-03,1.000000000000000000e+00
1.574902274000000046e+00,-4.308393652240000371e+00,-1.928132583430000047e-01,-8.811188763600000584e+00,-1.298027578739999926e-03,4.952522926029999210e-03,-1.047472935170000105e-02,1.000000000000000000e+00
1.580002032999999972e+00,-4.363687084919999570e+00,-1.795336516609999933e-01,-8.796417895450000302e+00,1.222216710449999973e-02,-1.386094465850000110e-02,5.925547331569999514e-03,1.000000000000000000e+00
1.584987292999999964e+00,-4.288044691700000577e+00,-1.618580202440000060e-01,-8.801144923969999923e+00,-7.091604173180000338e-03,3.713230602439999885e-03,1.588768092920000204e-03,1.000000000000000000e+00
1.589955436999999971e+00,-4.281306615610000144e+00,-1.366899689790000150e-01,-8.773128205269999924e+00,5.256155971439999824e-03,-9.187472052870000391e-03,1.383745810019999887e-03,1.000000000000000000e+00
1.594939899000000105e+00,-4.296120153859999569e+00,-2.165115841149999887e-01,-8.784903398739999147e+00,-9.986826917160001021e-04,4.031256306920000254e-03,-4.752831999210000227e-03,1.000000000000000000e+00
1.599918756999999969e+00,-4.363524880089999947e+00,-1.713820007189999772e-01,-8.808024746610000122e+00,1.072015799579999901e-02,-1.578637398779999829e-03,4.904960282149999420e-03,1.000000000000000000e+00
1.604997468999999954e+00,-4.295234018680000432e+00,-2.156301616380000008e-01,-8.818029423269999612e+00,1.047567091879999905e-02,-1.742925727739999976e-03,1.327336998660000105e-03,1.000000000000000000e+00
1.609995309999999957e+00,-4.255203329319999561e+00,-1.775012690509999991e-01,-8.793265568889999884e+00,-4.497632849959999624e-03,-5.171424709260000760e-04,-1.570458291099999844e-03,1.000000000000000000e+00
1.614991185999999912e+00,-4.363461167209999658e+00,-1.738265808599999962e-01,-8.818111256339999926e+00,-7.351178210229999954e-04,6.858068983999999688e-03,4.970665089790000067e-03,1.000000000000000000e+00
1.619969682000000022e+00,-4.324031366359999851e+00,-1.727107285720000107e-01,-8.809764283750000757e+00,1.508624944840000065e-02,-3.596374765040000372e-03,1.217090804129999752e-02,1.000000000000000000e+00
1.624974315000000002e+00,-4.272312869559999449e+00,-1.264627721380000014e-01,-8.813377798069998548e+00,-8.252628147600001365e-03,-4.584894049909999693e-03,8.628398180010000626e-03,1.000000000000000000e+00
1.629969486000000023e+00,-4.278180008019999647e+00,-1.600212332709999852e-01,-8.851856874070000103e+00,7.236039265989999657e-03,1.751504372809999967e-03,-3.234559902920000184e-03,1.000000000000000000e+00
1.634989497999999930e+00,-4.270978990599999747e+00,-1.638073276810000090e-01,-8.860210860920000542e+00,4.838129971180000176e-03,2.307022456079999874e-03,1.929656835269999947e-03,1.000000000000000000e+00
1.639970954000000036e+00,-4.271589815980000537e+00,-1.730855714999999795e-01,-8.842740670680001358e+00,-6.663309410210000588e-03,1.773308031260000146e-03,-4.847582429650000059e-03,1.000000000000000000e+00
1.644893592999999932e+00,-4.344587832169999331e+00,-1.343880943780000059e-01,-8.786906555259999863e+00,1.917475089429999946e-02,-2.047058753669999884e-02,4.029589705169999737e-03,1.000000000000000000e+00
1.649870670999999955e+00,-4.297656277390000668e+00,-1.713494318899999869e-01,-8.783987452939999940e+00,1.817498728630000115e-02,-8.989213965830000416e-03,5.149385891850000348e-03,1.000000000000000000e+00
1.654857478999999909e+00,-4.329664403809999840e+00,-1.490185128799999814e-01,-8.839671346239999394e+00,1.350140571590000005e-02,-1.684590801599999965e-02,-7.808180525899999398e-03,1.000000000000000000e+00
1.659823358999999998e+00,-4.365376353180000280e+00,-2.168192435580000021e-01,-8.831429587589999741e+00,1.378651056439999904e-02,1.602113712580000059e-03,7.877563126389999781e-03,1.000000000000000000e+00
1.664970980000000100e+00,-4.208325842809999884e+00,-1.804610869709999954e-01,-8.845623532639999453e+00,1.935206353659999629e-02,-1.326227188109999934e-02,-7.184727583079999992e-04,1.000000000000000000e+00
1.669943576000000096e+00,-4.326452456020000170e+00,-2.353306316800000131e-01,-8.901034454219999503e+00,1.545715425160000024e-02,-2.032315731050000213e-02,4.631081596020000281e-03,1.000000000000000000e+00
1.674900167000000106e+00,-4.324817256040000224e+00,-2.193822624469999871e-01,-8.849529892430000544e+00,2.587166056040000189e-02,-1.273640431460000035e-02,3.530774964020000090e-03,1.000000000000000000e+00
1.679958411999999957e+00,-4.218811580990000643e+00,-2.162547415430000064e-01,-8.852906090860001243e+00,2.803256362679999725e-02,-2.396383136509999678e-02,6.968184374270000071e-03,1.000000000000000000e+00
1.684995895999999993e+00,-4.300927846399999588e+00,-1.401333052329999940e-01,-8.896904807069999421e+00,2.528410404919999993e-02,-1.860471069809999795e-02,-1.456544036049999945e-03,1.000000000000000000e+00
1.689945398999999959e+00,-4.317833973019999938e+00,-2.179992653900000021e-01,-8.820206182789998905e+00,3.923228010540000255e-02,-3.180475533009999994e-02,2.475389512260000192e-03,1.000000000000000000e+00
1.694928014000000038e+00,-4.201531068109999545e+00,-2.089629588340000121e-01,-8.842859913150000750e+00,4.211880639200000359e-02,-2.739230357109999694e-02,-1.258581597359999943e-02,1.000000000000000000e+00
1.699880845000000029e+00,-4.294069943330000250e+00,-2.219844443019999836e-01,-8.863468985929999988e+00,2.775728330020000093e-02,-2.676706574860000104e-02,-1.476196106520000217e-02,1.000000000000000000e+00
1.704924947000000079e+00,-4.224899084209999600e+00,-2.340920115289999992e-01,-8.850522995120000402e+00,3.438378125430000681e-02,-3.663358464839999717e-02,-5.923809483649999756e-03,1.000000000000000000e+00
1.709929838000000091e+00,-4.231684214309999525e+00,-2.137277072840000069e-01,-8.972284749960000028e+00,4.762504249809999812e-02,-4.043943807480000763e-02,5.147898569699999559e-03,1.000000000000000000e+00
1.714923785000000089e+00,-4.170456715410000292e+00,-2.197087179220000019e-01,-8.956900133819999610e+00,3.084664791820000002e-02,-6.979834288360001193e-02,8.780742995440000628e-03,1.000000000000000000e+00
1.719946028999999932e+00,-4.178203676269999889e+00,-2.311546063699999876e-01,-8.919978224139999412e+00,3.518712520600000143e-02,-6.902177631860001439e-02,-1.982343848789999783e-03,1.000000000000000000e+00
1.724876714000000089e+00,-4.159629616450000178e+00,-3.673063585530000341e-01,-8.970082855999999438e+00,5.638634786010000149e-02,-8.635751903060000234e-02,-5.104454234239999381e-03,1.000000000000000000e+00
1.729924189999999973e+00,-3.999761418309999872e+00,-4.859253583889999728e-01,-9.135346483439999332e+00,4.675082117319999397e-02,-1.168033182619999943e-01,-1.243026694279999967e-03,1.000000000000000000e+00
1.734952065000000099e+00,-4.031063150030000486e+00,-4.427424155489999569e-01,-9.087188309470001002e+00,5.787923559550000457e-02,-1.397317200900000111e-01,2.634204737839999921e-02,1.000000000000000000e+00
1.739956966000000049e+00,-4.168070112530000593e+00,-3.218548497270000142e-01,-8.927237401489998447e+00,7.098641246560000173e-02,-1.780212819579999883e-01,4.452040046450000260e-02,1.000000000000000000e+00
1.745000907999999962e+00,-4.097892122200000209e+00,-2.073491121630000045e-01,-8.892153813150001085e+00,6.609863042830001201e-02,-2.230680137870000024e-01,2.493035048249999872e-02,1.000000000000000000e+00
1.749991987000000027e+00,-4.108461739270000024e+00,-3.935968014450000330e-01,-9.067926559640000050e+00,8.280307054520000265e-02,-2.636614739889999726e-01,6.210216507319999552e-02,1.000000000000000000e+00
1.754981179999999918e+00,-3.983616631459999891e+00,-1.996548130669999754e-01,-9.174768977770000333e+00,8.421353250739999075e-02,-2.538311481480000076e-01,6.449646502730001230e-02,1.000000000000000000e+00
1.759973460999999961e+00,-4.223061055130000518e+00,-1.555429553460000169e-01,-9.121773300639999249e+00,9.695994853970001104e-02,-3.219217061999999907e-01,7.060203701260001075e-02,1.000000000000000000e+00
1.764970101000000069e+00,-4.444409265620000049e+00,1.092100331760000043e-01,-8.867261363949999975e+00,1.037714779379999980e-01,-3.964931964869999881e-01,6.603610515589999896e-02,1.000000000000000000e+00
1.769998479999999930e+00,-4.424945563480000565e+00,-6.293078198769999632e-02,-8.840190401679999255e+00,1.020844802260000017e-01,-4.458811879159999547e-01,3.813644871119999807e-02,1.000000000000000000e+00
1.774941486999999984e+00,-4.636589833819999562e+00,-1.537980479069999962e-01,-8.957925969739999772e+00,1.349860727789999881e-01,-5.000298023220000054e-01,3.990145027639999814e-02,1.000000000000000000e+00
1.779967623999999971e+00,-4.464064398690000601e+00,-1.520185714789999976e-01,-8.838668891199999322e+00,1.709225624799999843e-01,-4.702833890910000370e-01,1.650568284089999962e-02,1.000000000000000000e+00
1.785010492000000060e+00,-4.739306404190000599e+00,-2.796875684690000030e-01,-8.704605288670000718e+00,1.725963056089999947e-01,-4.522895514970000086e-01,1.660423912110000136e-02,1.000000000000000000e+00
1.789940379999999998e+00,-4.880187870040000320e+00,-2.767234762330000319e-01,-8.561852183719999232e+00,1.780370622870000030e-01,-4.171730279919999562e-01,1.175949629399999918e-02,1.000000000000000000e+00
1.794937776000000040e+00,-4.696332062599999801e+00,-5.967048602379999567e-01,-8.884535154840000004e+00,1.665108501909999816e-01,-3.775876760480000316e-01,2.589732594790000036e-02,1.000000000000000000e+00
1.799924931000000061e+00,-4.534149157780000827e+00,-8.132790612600000468e-01,-9.093568365899999506e+00,1.869833469390000114e-01,-3.798196911810000076e-01,5.163294449450000351e-02,1.000000000000000000e+00
1.804876965999999916e+00,-4.438037684760000268e+00,-7.367729638800000203e-01,-9.289814576099999499e+00,1.836100518699999851e-01,-3.711180388930000462e-01,7.080508023499999803e-02,1.000000000000000000e+00
1.809827599999999981e+00,-4.513351868950000068e+00,-6.209085965149999664e-01,-9.131850458019998840e+00,1.761754602189999908e-01,-4.188830852509999869e-01,8.458008617159999687e-02,1.000000000000000000e+00
1.815000114000000053e+00,-4.321972680260000033e+00,-6.279942439269999843e-01,-9.060096304400000022e+00,1.461012959480000040e-01,-4.709618985649999812e-01,8.221054077150000139e-02,1.000000000000000000e+00
1.819958203000000108e+00,-4.182380669700000553e+00,-4.241918461940000218e-01,-9.073003132250001102e+00,1.496164947749999974e-01,-5.087686181070000258e-01,1.044433116909999903e-01,1.000000000000000000e+00
1.824914683999999898e+00,-3.892073197009999763e+00,-5.071428453970000527e-01,-9.340170552369999157e+00,1.151031777260000111e-01,-5.108396410939999299e-01,1.131364107129999991e-01,1.000000000000000000e+00
1.829910533999999922e+00,-3.819762286300000032e+00,-9.343860785190000184e-01,-9.752888014670000771e+00,8.118405938150000112e-02,-5.238234996799999710e-01,1.170071288940000009e-01,1.000000000000000000e+00
1.834885598000000062e+00,-3.584164308919999709e+00,-6.410008058209999415e-01,-9.967755923239998594e+00,5.042034015059999874e-02,-5.463269948960000066e-01,1.330210864540000149e-01,1.000000000000000000e+00
1.839913842999999938e+00,-3.436496543930000147e+00,-7.103874996490000537e-01,-1.061956914190000134e+01,3.275791928170000006e-02,-5.980264544489999334e-01,1.739188581710000014e-01,1.000000000000000000e+00
1.844944598000000102e+00,-3.279750569470000432e+00,-1.567437240509999885e+00,-1.118089369589999826e+01,-2.332620322699999887e-02,-7.093698382379999279e-01,2.128299921750000101e-01,1.000000000000000000e+00
1.849935286000000012e+00,-3.411445104779999848e+00,-1.723661090790000294e+00,-1.102664070730000034e+01,-1.109538152810000122e-01,-8.415192961690000084e-01,2.295840531590000178e-01,1.000000000000000000e+00
1.854914452000000047e+00,-3.097186263140000229e+00,-1.760331802190000072e+00,-1.114771272630000176e+01,-1.967618465419999907e-01,-9.758120775220000542e-01,2.484435141090000077e-01,0.000000000000000000e+00
1.859871695000000047e+00,-3.418464043629999782e+00,-1.804552782840000091e+00,-1.115334167209999983e+01,-2.593936324119999748e-01,-1.109923124310000064e+00,2.869145870210000338e-01,0.000000000000000000e+00
1.864904762000000105e+00,-4.082131658480000702e+00,-1.329909025720000137e+00,-1.141466504239999935e+01,-2.820808589459999904e-01,-1.206840991970000054e+00,3.357512354850000214e-01,0.000000000000000000e+00
1.869877046999999903e+00,-4.366401312309999838e+00,-1.147571221629999805e+00,-1.148676464839999944e+01,-2.544963657859999895e-01,-1.295795321459999982e+00,3.918776512150000113e-01,0.000000000000000000e+00
1.874893015999999912e+00,-4.207549013219999523e+00,-1.409565769149999870e+00,-1.147291147960000046e+01,-1.838699430229999987e-01,-1.373106241229999913e+00,4.297306239600000577e-01,0.000000000000000000e+00
1.879963755999999986e+00,-4.079910767559999485e+00,-1.439434545449999936e+00,-1.157637886839999908e+01,-1.384069919589999975e-01,-1.491285800929999850e+00,4.647358059880000170e-01,0.000000000000000000e+00
1.884916081000000077e+00,-4.350463446210000029e+00,-1.477895939659999991e+00,-1.185788344140000028e+01,-1.084003075960000007e-01,-1.612725019450000019e+00,5.187829732890000267e-01,0.000000000000000000e+00
1.889932492000000019e+00,-4.356887341770000255e+00,-1.813067951599999894e+00,-1.211919044499999920e+01,-1.291244179010000159e-01,-1.736460447309999822e+00,5.590404868130000038e-01,0.000000000000000000e+00
1.894943371999999959e+00,-4.409305219019999278e+00,-2.049996300800000171e+00,-1.216390169339999971e+01,-1.331344544889999926e-01,-1.877689361570000104e+00,6.062227487560000183e-01,0.000000000000000000e+00
1.899953618999999927e+00,-5.009584065280000331e+00,-1.952195851790000214e+00,-1.278141984380000196e+01,-1.426096856590000073e-01,-1.958572626109999826e+00,6.705121397969999730e-01,0.000000000000000000e+00
1.904936262999999963e+00,-5.257793102429999976e+00,-2.664756969149999932e+00,-1.278265669209999977e+01,-1.897960752249999994e-01,-2.017055034640000244e+00,7.036631703380000769e-01,0.000000000000000000e+00
1.909954861999999975e+00,-4.902053372630000183e+00,-2.642560042649999996e+00,-1.256174950339999974e+01,-2.507264018059999766e-01,-2.072919368740000046e+00,7.176883220669999508e-01,0.000000000000000000e+00
1.914938448000000015e+00,-4.428192582580000369e+00,-1.961878164630000088e+00,-1.262884560200000017e+01,-3.426350057129999849e-01,-2.087370395659999822e+00,7.023698091509998909e-01,0.000000000000000000e+00
1.919957187999999926e+00,-4.130029135690000075e+00,-1.202930413010000033e+00,-1.305292090920000092e+01,-3.836309611800000074e-01,-2.050239562990000319e+00,6.779661774640000083e-01,0.000000000000000000e+00
1.925031869999999978e+00,-3.691279698769999840e+00,-9.835651930339999183e-01,-1.298828214049999907e+01,-4.058677554129999643e-01,-1.983201980590000080e+00,6.051131486890000133e-01,0.000000000000000000e+00
1.929990966999999946e+00,-4.479128404569999944e+00,-3.272864463210000130e-01,-1.308829968109999875e+01,-3.273275196550000099e-01,-1.936491012569999892e+00,5.123306512830000381e-01,0.000000000000000000e+00
1.934915106000000051e+00,-4.077349392640000403e+00,-6.375411760190000110e-02,-1.313033849540000020e+01,-2.070357352499999914e-01,-1.806138992309999747e+00,4.114779829980000359e-01,0.000000000000000000e+00
1.939923304999999987e+00,-2.739703781320000253e+00,-5.547461619629999729e-01,-1.296506960730000024e+01,-7.003349252049999654e-03,-1.666020274160000092e+00,2.997583746909999736e-01,0.000000000000000000e+00
1.944964558999999982e+00,-1.440881675520000238e+00,-8.516520465350000402e-01,-1.288403149250000013e+01,1.766579449179999928e-01,-1.517303824420000113e+00,2.339183241130000090e-01,0.000000000000000000e+00
1.949957335999999986e+00,4.583382267500000010e-03,-1.136312160989999986e+00,-1.288891926450000014e+01,2.331110239029999809e-01,-1.401505351069999961e+00,1.543916314839999804e-01,0.000000000000000000e+00
1.954954721000000006e+00,1.366750855909999895e+00,-1.449166104259999921e+00,-1.256971653670000144e+01,2.914777398110000028e-01,-1.326407074929999874e+00,1.150058135390000097e-01,0.000000000000000000e+00
1.959931517000000012e+00,2.518380413010000041e+00,-1.626777902750000004e+00,-1.240568332790000028e+01,2.439118921759999836e-01,-1.290607333179999872e+00,8.370347321030000010e-02,0.000000000000000000e+00
1.964904572000000016e+00,3.268450592290000234e+00,-1.269494158379999904e+00,-1.203915887690000019e+01,2.280983328819999878e-01,-1.244976282120000111e+00,5.731388181449999925e-02,0.000000000000000000e+00
1.969956443000000057e+00,4.000473950489999986e+00,-8.073497442759999254e-01,-1.192738660119999849e+01,2.605929672720000423e-01,-1.167035460469999952e+00,4.249819740650000177e-02,0.000000000000000000e+00
1.974900313000000018e+00,4.420837543640000256e+00,-1.281677859579999912e-01,-1.202356500199999978e+01,3.462443053719999608e-01,-1.075531482699999986e+00,3.156693652269999817e-02,0.000000000000000000e+00
1.979959425000000106e+00,4.751831539240000346e+00,3.316010581170000249e-01,-1.208781798619999925e+01,4.840349256989999738e-01,-9.526975750920000374e-01,1.859224960209999999e-02,1.000000000000000000e+00
1.984951499999999980e+00,4.863617551249999948e+00,6.246489520869999978e-01,-1.212222411359999974e+01,6.068321466449999591e-01,-7.827106714249999486e-01,1.106086000800000045e-02,1.000000000000000000e+00
1.989899606999999904e+00,5.087508431959999911e+00,7.698959196729999732e-01,-1.216801205130000163e+01,7.649584412569999659e-01,-6.275181770319999686e-01,-1.787891238929999876e-02,1.000000000000000000e+00
1.994958051000000010e+00,5.216576125899999639e+00,8.466234047180000166e-01,-1.230797347970000111e+01,9.322621226309999454e-01,-4.508633613589999589e-01,-3.291908651590000345e-02,1.000000000000000000e+00
1.999962500000000087e+00,5.330625114410000087e+00,8.475436613680000786e-01,-1.241714580210000030e+01,1.056035757060000080e+00,-2.483328729870000195e-01,-3.295980021359999623e-02,1.000000000000000000e+00
2.004965165000000216e+00,5.501712917949999948e+00,8.786940749789999838e-01,-1.246258887190000131e+01,1.166855692860000016e+00,-5.213851854209999859e-02,-3.818205744030000320e-02,0.000000000000000000e+00
2.009965456000000206e+00,5.530632138450000568e+00,9.452492717079999940e-01,-1.245007776539999966e+01,1.232184171679999940e+00,1.413541287179999884e-01,-3.374519571660000022e-02,0.000000000000000000e+00
2.014968878999999990e+00,5.580548554259999960e+00,9.601596213969999516e-01,-1.249450142900000138e+01,1.277525067330000041e+00,3.211836218829999812e-01,-2.926347777249999754e-02,0.000000000000000000e+00
2.019938214999999815e+00,5.504550187209999557e+00,1.212418226200000060e+00,-1.264717036329999900e+01,1.294785141939999829e+00,5.110189318660000035e-01,-1.628530025479999963e-02,0.000000000000000000e+00
2.024980397999999848e+00,5.282009259800000578e+00,1.618858800189999947e+00,-1.276402797949999979e+01,1.343764424320000206e+00,6.935071349140000674e-01,1.879907771940000222e-02,0.000000000000000000e+00
2.029880497999999811e+00,5.096660291190000081e+00,1.925267512849999862e+00,-1.276953183760000066e+01,1.366824865340000139e+00,8.853942155839999995e-01,4.218061640859999822e-02,0.000000000000000000e+00
2.034928872000000055e+00,5.019052150849999450e+00,2.278283224520000427e+00,-1.281171678239999956e+01,1.412012696270000145e+00,1.057105660439999983e+00,9.218695759770000053e-02,0.000000000000000000e+00
2.039947639999999840e+00,4.975314131409999341e+00,2.704266557240000424e+00,-1.295280867609999831e+01,1.458860635760000024e+00,1.264003157620000151e+00,1.415212601420000049e-01,0.000000000000000000e+00
2.044946307000000019e+00,4.852266720669999422e+00,3.153052235010000093e+00,-1.310699853630000078e+01,1.493609309199999791e+00,1.441645026210000013e+00,1.854505389930000137e-01,0.000000000000000000e+00
2.049947072000000148e+00,4.586053240280000942e+00,3.527820782669999655e+00,-1.319463707230000082e+01,1.557433247569999901e+00,1.591091990470000272e+00,2.482660412790000104e-01,0.000000000000000000e+00
2.054902452999999962e+00,4.290834614669999603e+00,3.819701496019999976e+00,-1.325992933640000082e+01,1.616698145870000047e+00,1.734678387640000263e+00,3.192891776560000117e-01,0.000000000000000000e+00
2.059936099999999826e+00,3.952714712719999746e+00,3.931139425240000040e+00,-1.332353233230000100e+01,1.679383158680000099e+00,1.888650894169999983e+00,3.725260794160000222e-01,0.000000000000000000e+00
2.064887200999999894e+00,3.630812370580000170e+00,3.940338338480000591e+00,-1.335929338150000056e+01,1.691857933999999952e+00,2.040413856509999846e+00,4.261443912979999693e-01,0.000000000000000000e+00
2.069934497000000206e+00,3.316525764160000112e+00,3.816098795350000294e+00,-1.355198219150000050e+01,1.693057298659999876e+00,2.172282218929999953e+00,4.830490648749999893e-01,0.000000000000000000e+00
2.074918135999999969e+00,2.916116579279999677e+00,3.628364392910000014e+00,-1.366843531849999849e+01,1.642114400859999934e+00,2.281307458879999750e+00,5.754588246349999769e-01,0.000000000000000000e+00
2.079931192000000095e+00,2.633971078000000077e+00,3.413104562420000043e+00,-1.380937991269999898e+01,1.566952466960000123e+00,2.392341136929999834e+00,6.364307999610000488e-01,0.000000000000000000e+00
2.084986649000000192e+00,2.205988826550000059e+00,3.324063466179999704e+00,-1.395459853099999847e+01,1.499849438670000090e+00,2.488431930540000003e+00,7.155534625049999597e-01,0.000000000000000000e+00
2.090026946000000052e+00,1.838109892269999879e+00,3.372698902279999800e+00,-1.400147835559999976e+01,1.404107689860000008e+00,2.583812713619999979e+00,7.762954831119999177e-01,0.000000000000000000e+00
2.094949428000000058e+00,1.377935974529999719e+00,3.371755191690000153e+00,-1.402286367349999985e+01,1.333144307139999984e+00,2.684658288959999695e+00,8.439913988109999377e-01,0.000000000000000000e+00
2.099894051999999789e+00,1.039130136129999826e+00,3.401999231040000460e+00,-1.399343299630000104e+01,1.281686186789999793e+00,2.789969682689999786e+00,8.823377490039999715e-01,0.000000000000000000e+00
2.104937554999999794e+00,6.672084292670000805e-01,3.392344975249999894e+00,-1.399985455380000055e+01,1.258257508280000048e+00,2.878984928129999510e+00,9.562726616859998918e-01,0.000000000000000000e+00
2.109958322999999858e+00,4.821801439779999643e-01,3.263284880090000062e+00,-1.390743229069999920e+01,1.265306830410000138e+00,2.954543352129999967e+00,9.882319569589999020e-01,0.000000000000000000e+00
2.114995962000000063e+00,2.256359342800000334e-01,2.987292056219999825e+00,-1.387787652579999964e+01,1.282782554630000016e+00,3.016119480129999975e+00,1.026585221289999961e+00,0.000000000000000000e+00
2.119995047000000188e+00,2.786229988440000124e-02,2.717814313339999899e+00,-1.377272220690000104e+01,1.282100200649999966e+00,3.087154388430000118e+00,1.053746342660000002e+00,0.000000000000000000e+00
2.124986761000000168e+00,-2.107368731709999832e-01,2.362182720079999854e+00,-1.372104111950000060e+01,1.280894875529999810e+00,3.127269983290000166e+00,1.096727848050000009e+00,0.000000000000000000e+00
2.129920677999999956e+00,-4.499489493940000417e-01,2.125709567299999936e+00,-1.380574535559999916e+01,1.295015931129999798e+00,3.177772760390000339e+00,1.127270698550000061e+00,0.000000000000000000e+00
2.134970382000000111e+00,-9.892014453550000974e-01,1.962662300739999921e+00,-1.390438459349999967e+01,1.299552559849999955e+00,3.212289810180000149e+00,1.156662106510000010e+00,0.000000000000000000e+00
2.140028640999999787e+00,-1.396721485149999831e+00,1.872296970159999630e+00,-1.394795602420000158e+01,1.335835576060000029e+00,3.258241891860000017e+00,1.168607115749999981e+00,0.000000000000000000e+00
2.144985601000000131e+00,-1.781724280440000197e+00,1.809631693540000086e+00,-1.391110425719999988e+01,1.358610272409999986e+00,3.338326692580000365e+00,1.203446269040000072e+00,0.000000000000000000e+00
2.150074259000000154e+00,-2.028433142159999925e+00,1.746997396590000085e+00,-1.384838622750000070e+01,1.390500068659999977e+00,3.399493455890000071e+00,1.217374086379999998e+00,0.000000000000000000e+00
2.155008185999999881e+00,-2.207808443190000247e+00,1.823735037700000117e+00,-1.371928989200000082e+01,1.405327677730000113e+00,3.460753202440000287e+00,1.228274106980000058e+00,0.000000000000000000e+00
2.159986520999999993e+00,-2.391317044630000055e+00,1.742781386329999904e+00,-1.353179631249999915e+01,1.401889204980000025e+00,3.497914552689999734e+00,1.236941456789999894e+00,0.000000000000000000e+00
2.164959013999999904e+00,-2.542461253559999967e+00,1.614187447379999973e+00,-1.334333827200000044e+01,1.399869799610000021e+00,3.540113210680000400e+00,1.236999630929999983e+00,0.000000000000000000e+00
2.169913789999999842e+00,-2.724101723040000422e+00,1.480442117020000170e+00,-1.320241355150000118e+01,1.374327898029999995e+00,3.548011541369999744e+00,1.239615440369999932e+00,0.000000000000000000e+00
2.174896679000000166e+00,-3.027964258349999938e+00,1.371178901479999990e+00,-1.303074999390000066e+01,1.376560211179999937e+00,3.527513742450000045e+00,1.245679140090000026e+00,0.000000000000000000e+00
2.179963702999999864e+00,-3.475417810730000223e+00,1.320726186829999982e+00,-1.284878365349999818e+01,1.365846872329999906e+00,3.481337785719999633e+00,1.264935731889999859e+00,0.000000000000000000e+00
2.184967470000000134e+00,-3.900053674369999612e+00,1.354166830270000066e+00,-1.260017012720000018e+01,1.326699376110000106e+00,3.456606626509999725e+00,1.278343439099999923e+00,0.000000000000000000e+00
2.189953245999999965e+00,-4.290583854780000372e+00,1.524573227429999900e+00,-1.218605507300000035e+01,1.328893899920000177e+00,3.413624525070000360e+00,1.277603507040000030e+00,0.000000000000000000e+00
2.194942350999999903e+00,-4.571467081040000657e+00,1.667762970220000085e+00,-1.168599776549999980e+01,1.310440301899999938e+00,3.347543239589999775e+00,1.291656851770000003e+00,0.000000000000000000e+00
2.200077809000000162e+00,-4.701498943839999889e+00,1.494477948889999963e+00,-1.126144548849999971e+01,1.326092720029999894e+00,3.235558509829999707e+00,1.330307483670000179e+00,0.000000000000000000e+00
2.205002970999999867e+00,-5.026032511259999502e+00,1.056595869389999942e+00,-1.114690959320000019e+01,1.322611331939999912e+00,3.122451782229999750e+00,1.356114745139999966e+00,0.000000000000000000e+00
2.209995868000000030e+00,-5.903700311930000666e+00,8.075364259550000812e-01,-1.114388410789999995e+01,1.323355078700000131e+00,2.968760728839999974e+00,1.385900616649999861e+00,0.000000000000000000e+00
2.215024834999999914e+00,-6.841386820230000332e+00,8.005827343590000700e-01,-1.079741109589999937e+01,1.281130909920000116e+00,2.861186504359999994e+00,1.444642305369999935e+00,0.000000000000000000e+00
2.220031987000000040e+00,-7.462193490739998936e+00,9.555061695679999412e-01,-1.033194696280000002e+01,1.261808156970000150e+00,2.744407653809999736e+00,1.501780986789999828e+00,0.000000000000000000e+00
2.225009829999999855e+00,-7.729162173419999782e+00,9.827571645870000205e-01,-9.773954183580000787e+00,1.260656237600000118e+00,2.683900356290000122e+00,1.550166964529999802e+00,0.000000000000000000e+00
2.230066031999999865e+00,-8.034334622280001170e+00,8.577245713819999784e-01,-9.343481868879999652e+00,1.242484569549999973e+00,2.619386196140000234e+00,1.626302599910000035e+00,0.000000000000000000e+00
2.234928828000000145e+00,-8.124336964770000336e+00,7.247918725769999515e-01,-9.083829062170000412e+00,1.264923214910000038e+00,2.562217235569999918e+00,1.688518285749999848e+00,0.000000000000000000e+00
2.240018134000000050e+00,-8.482469434929999608e+00,6.995796899089999910e-01,-8.960351735580001531e+00,1.287244200710000008e+00,2.437753200529999997e+00,1.778102755549999969e+00,0.000000000000000000e+00
2.245048687999999792e+00,-9.009155221719998607e+00,6.319799525629999914e-01,-8.759607629439999599e+00,1.291245341300000016e+00,2.314966440200000086e+00,1.844947218890000240e+00,0.000000000000000000e+00
2.249969618999999810e+00,-9.625334816949999706e+00,4.534544732970000047e-01,-8.500134855479998919e+00,1.316544532780000054e+00,2.212781429290000101e+00,1.881832003590000246e+00,0.000000000000000000e+00
2.255009906000000175e+00,-1.035524132910000006e+01,3.019879736099999601e-01,-8.167201123989999090e+00,1.314470529560000100e+00,2.168921947479999890e+00,1.911767482759999970e+00,0.000000000000000000e+00
2.260005948999999958e+00,-1.108727783910000042e+01,8.183339334969999546e-02,-7.933065035850000335e+00,1.296983242030000039e+00,2.186761379240000469e+00,1.942233443259999692e+00,0.000000000000000000e+00
2.264959176000000074e+00,-1.156050091569999871e+01,3.915750954919999804e-02,-7.445124282520000136e+00,1.248727083210000144e+00,2.254715204240000048e+00,1.949892282490000239e+00,0.000000000000000000e+00
2.270005953000000076e+00,-1.143579784679999989e+01,-6.452797435149999934e-03,-6.769725605599999696e+00,1.185816645620000109e+00,2.306990385059999760e+00,1.939054012299999963e+00,0.000000000000000000e+00
2.275043967999999861e+00,-1.073393435679999897e+01,-2.196640202640000039e-01,-6.008024025230000120e+00,1.103903770450000099e+00,2.324726581570000228e+00,1.898504495620000121e+00,0.000000000000000000e+00
2.280043016000000033e+00,-9.873018953439999024e+00,-4.255329220729999751e-01,-5.242489734840000359e+00,9.907597303389998888e-01,2.260726928710000028e+00,1.864250302309999663e+00,0.000000000000000000e+00
2.285042058999999792e+00,-8.797199985730001615e+00,-4.269458210779999985e-01,-4.555315279930000294e+00,8.571700453759999450e-01,2.119370460509999887e+00,1.815604209900000043e+00,0.000000000000000000e+00
2.289986122999999818e+00,-8.116995954360001875e+00,-3.894760317200000044e-01,-4.043859503230000207e+00,6.939564347269999711e-01,1.901787996290000171e+00,1.789010643959999980e+00,0.000000000000000000e+00
2.294933530999999860e+00,-8.047813697060000493e+00,-3.547728940640000328e-01,-3.729092127549999969e+00,5.397666692729999882e-01,1.651874303819999890e+00,1.739316105840000182e+00,0.000000000000000000e+00
2.299954440000000044e+00,-8.639028946910000784e+00,-4.285308252470000356e-01,-3.657086921790000389e+00,3.926837444309999592e-01,1.429033040999999837e+00,1.737753987309999859e+00,0.000000000000000000e+00
2.304975542000000210e+00,-9.220064748039998648e+00,-2.187049659730000151e-01,-3.580996200280000430e+00,2.313490957019999905e-01,1.225209951400000108e+00,1.714373588559999995e+00,0.000000000000000000e+00
2.309995471000000133e+00,-9.834411282630000528e+00,1.363686737360000067e-01,-3.642085752009999844e+00,7.649306952949999627e-02,1.075511097909999991e+00,1.668635964390000170e+00,0.000000000000000000e+00
2.314994625999999833e+00,-1.054058971320000104e+01,5.192070849390000298e-01,-3.648978726390000205e+00,-7.915704697369999043e-02,9.850511550900000746e-01,1.657797575000000023e+00,0.000000000000000000e+00
2.319961129000000177e+00,-1.140882800680000031e+01,9.585584698100000356e-01,-3.582414834900000233e+00,-1.813391149040000094e-01,9.201881885529999971e-01,1.599016427989999878e+00,0.000000000000000000e+00
2.324957196000000170e+00,-1.264608315259999927e+01,1.251823330999999984e+00,-3.605705986380000283e+00,-2.383962869640000037e-01,8.632222414019999901e-01,1.539180397990000060e+00,0.000000000000000000e+00
2.329923838000000025e+00,-1.363469671500000047e+01,1.127354728349999835e+00,-3.561098490630000057e+00,-2.996084988120000236e-01,8.134244680399999039e-01,1.468321800230000029e+00,0.000000000000000000e+00
2.334985609999999934e+00,-1.473538416650000116e+01,7.834555123389999043e-01,-3.609614391990000115e+00,-3.575207889079999868e-01,7.584067583079999730e-01,1.410190224649999990e+00,0.000000000000000000e+00
2.339956670999999933e+00,-1.549117330799999870e+01,2.535089701880000046e-01,-3.169891726129999920e+00,-4.610962569709999848e-01,7.286176085469999730e-01,1.352875590320000043e+00,0.000000000000000000e+00
2.344940938999999780e+00,-1.570759721380000151e+01,2.951464736840000297e-02,-2.338969602279999727e+00,-5.933579802509999501e-01,7.031543850900000558e-01,1.297147274020000074e+00,0.000000000000000000e+00
2.349998981999999792e+00,-1.532232363880000037e+01,1.373512093669999878e-01,-9.541635958519999461e-01,-7.775754332539999147e-01,6.133836507800000115e-01,1.284689426419999947e+00,0.000000000000000000e+00
2.355005343000000195e+00,-1.494074307300000015e+01,7.588042514899998592e-01,2.102257453110000229e-01,-9.442299008369999802e-01,4.314965307710000308e-01,1.247746825220000133e+00,0.000000000000000000e+00
2.359997240999999857e+00,-1.456883049930000062e+01,1.099679735770000111e+00,1.265956924160000163e+00,-1.031229615210000006e+00,1.393762975929999925e-01,1.208482146259999945e+00,0.000000000000000000e+00
2.364978495999999986e+00,-1.482184664450000078e+01,1.128722144249999948e+00,1.865287529790000010e+00,-1.026944756510000056e+00,-2.339411377910000089e-01,1.121018528939999870e+00,0.000000000000000000e+00
2.369974522000000139e+00,-1.588957875180000023e+01,1.172544992429999766e+00,1.951047558529999781e+00,-9.463662505149998960e-01,-6.215764284129999817e-01,1.035512685779999886e+00,0.000000000000000000e+00
2.374980772999999878e+00,-1.658882241470000096e+01,1.125390953999999999e+00,1.971591164870000190e+00,-8.668414950370000316e-01,-9.459382295610000435e-01,9.355193972589999074e-01,0.000000000000000000e+00
2.379974466999999816e+00,-4.771213992840000806e+00,-8.895552807939999695e+00,-1.279093702920000020e+01,-1.348175883289999932e+00,-1.111322402949999955e+00,9.621316194529999644e-01,0.000000000000000000e+00
2.384978208000000155e+00,-2.629398304809999942e+01,-2.850381539829999866e+00,1.560911053609999932e+00,-2.705382823939999959e+00,-2.656917095179999855e+00,7.091835737230000047e-01,0.000000000000000000e+00
2.389937728000000039e+00,4.196105243669999929e+00,-5.691904065900000198e+00,-4.687898580769999768e+00,-3.852487087250000108e+00,-2.857516288759999856e+00,7.528697252270000195e-01,0.000000000000000000e+00
2.394912689999999955e+00,3.159937026079999711e+00,-2.717295550159999795e+00,-7.949214791139999292e+00,-4.159564495089999703e+00,-3.421833753590000082e+00,1.614492297169999979e+00,0.000000000000000000e+00
2.399983710999999964e+00,6.577667494740000009e+00,4.506722513929999785e+00,-2.128633024310000010e+01,-3.855008602139999851e+00,-3.809211969380000173e+00,1.689025044440000123e+00,0.000000000000000000e+00
2.404955709999999858e+00,2.080699189839999974e+01,1.000327030419999907e+01,-2.852230441020000029e+01,-3.165386199949999924e+00,-3.536436080930000614e+00,1.293950200079999835e+00,0.000000000000000000e+00
2.409994860999999933e+00,8.923862956619998954e+00,1.006634372320000104e+01,-2.122071649189999931e+01,-2.476321220400000023e+00,-3.844563484190000491e+00,3.721938133240000335e-01,0.000000000000000000e+00
2.414920286000000083e+00,-1.291714582660000055e+01,4.246438131330000587e+00,-1.407481948609999911e+01,-1.817202210429999854e+00,-4.679944038389999506e+00,-4.011164009570000188e-01,0.000000000000000000e+00
2.419933109000000027e+00,-2.598532041900000067e+01,2.675175195050000010e+00,-1.038914593680000031e+01,-1.102502465249999952e+00,-5.282979965210000017e+00,-6.190115213390000592e-01,0.000000000000000000e+00
2.424915262999999932e+00,-2.546431033969999902e+01,6.341833370519998958e+00,-1.232609482740000040e+01,-3.128841519359999990e-01,-5.298179626459999625e+00,-7.368513345720000274e-01,0.000000000000000000e+00
2.429965315000000015e+00,-2.364706217989999715e+01,7.690427076830000708e+00,-1.604926779400000214e+01,2.231103554370000158e-02,-4.300154209140000461e+00,-6.352009773250000269e-01,0.000000000000000000e+00
2.434947320000000026e+00,-1.599154625739999958e+01,3.170386231640000219e+00,-1.493517374839999867e+01,1.856697350740000099e-02,-2.779073238370000087e+00,-5.647752285000000594e-01,0.000000000000000000e+00
2.439943812000000101e+00,-8.681901289430001611e+00,-4.733537538459999805e-01,-1.225103520250000066e+01,-1.481851041320000062e-01,-1.752526402470000022e+00,-3.669579327109999678e-01,0.000000000000000000e+00
2.444966620000000201e+00,-2.977243540419999945e+00,7.494988822020000052e-01,-8.989551526579999674e+00,-5.017946958540000502e-01,-1.557707548140000009e+00,8.232891559600000186e-02,0.000000000000000000e+00
2.449957373000000160e+00,5.813837377910000548e-01,2.642721370689999905e+00,-7.763955254380000781e+00,-7.500225305559999889e-01,-1.862339258190000013e+00,2.933278679849999904e-01,0.000000000000000000e+00
2.454971093999999798e+00,2.188948406029999738e+00,1.539081352990000040e+00,-7.348571787739999195e+00,-8.171939253809999970e-01,-2.457509040830000213e+00,3.566409945489999456e-01,0.000000000000000000e+00
2.459965008000000175e+00,1.633341060660000066e+00,4.298525023049999949e-01,-5.792811833280000933e+00,-4.747036397459999946e-01,-3.159559965130000148e+00,1.908072382209999862e-01,0.000000000000000000e+00
2.464947834000000171e+00,-1.980577458270000202e+00,-4.074897907839999944e-01,-6.425677774900000472e+00,4.543400928380000175e-02,-3.428719282149999881e+00,6.667059659959999329e-02,0.000000000000000000e+00
2.469958553000000112e+00,-5.316814031199999846e+00,-1.998239517820000088e+00,-7.295867202510000205e+00,2.987004518510000262e-01,-3.376553058619999881e+00,-4.956454038619999974e-02,0.000000000000000000e+00
2.474991269000000216e+00,-8.350557457469999889e+00,-3.683358258119999729e+00,-9.520594924060000963e+00,1.985426843169999789e-01,-3.163972377779999956e+00,-6.125032901759999704e-02,0.000000000000000000e+00
2.479944973999999913e+00,-1.116399750609999941e+01,-4.072947650549999743e+00,-1.154952008749999948e+01,-2.046124637130000146e-01,-2.827607393259999657e+00,-3.706016764040000189e-02,0.000000000000000000e+00
2.484960683999999809e+00,-1.184384205650000155e+01,-3.460541144119999579e+00,-1.268790803190000105e+01,-5.963922739029999809e-01,-2.558958530429999989e+00,-3.255710378290000567e-02,0.000000000000000000e+00
2.489934204999999956e+00,-1.087649690759999999e+01,-2.366441254309999742e+00,-1.192639174490000009e+01,-8.014813065530000946e-01,-2.307050466540000233e+00,-6.607564538719999658e-02,0.000000000000000000e+00
2.495063564000000067e+00,-1.162357199670000085e+01,-4.111269782419999963e+00,-1.148855328540000009e+01,-9.412353038789998960e-01,-2.237957477570000187e+00,-4.140897095199999600e-02,0.000000000000000000e+00
2.499813510000000072e+00,-1.339170628930000007e+01,-2.955797870679999773e-01,-1.196935059670000001e+01,-8.897181749339999612e-01,-1.944521546359999853e+00,-4.054019972680000111e-02,0.000000000000000000e+00
2.504898251000000187e+00,-1.193101063689999997e+01,2.605736040380000063e+00,-1.032249641289999964e+01,-9.510099291799999355e-01,-1.597061872479999867e+00,2.153428830209999645e-02,0.000000000000000000e+00
2.509907918000000127e+00,-9.389091527410000637e+00,3.067627283440000241e+00,-9.386806631339998930e+00,-8.644594550130000332e-01,-1.276298880579999961e+00,4.944884032010000291e-02,0.000000000000000000e+00
2.514950139000000195e+00,-7.656807131310000791e+00,2.673681449360000073e+00,-9.088832569550000073e+00,-6.399637460710000392e-01,-1.006964683529999904e+00,9.740597754720001222e-02,0.000000000000000000e+00
2.520010064000000050e+00,-8.717341436119999898e+00,4.955282566250000187e+00,-1.048529628050000007e+01,-3.899805247779999928e-01,-9.235216975210001067e-01,1.168769374489999902e-01,0.000000000000000000e+00
2.524968492999999814e+00,-6.596079349740000097e+00,1.293334760430000063e+00,-9.905177009730000037e+00,-2.862521111970000032e-01,-7.967586517329999785e-01,4.977821931240000025e-02,0.000000000000000000e+00
2.529976996999999894e+00,-5.760040029010000673e+00,1.185554696129999863e+00,-9.346979063339999172e+00,-1.507053226229999876e-01,-8.432425856590000102e-01,9.445092640819999913e-03,1.000000000000000000e+00
2.534989817000000034e+00,-5.996003332569999955e+00,-8.565117615260000594e-01,-9.410551664059999766e+00,-1.576431393620000010e-01,-8.105338215830000248e-01,-2.290590479970000190e-02,1.000000000000000000e+00
2.539978346999999914e+00,-5.901088083600000367e+00,-5.113614860059999545e-01,-8.742138608250000331e+00,-2.498781532050000087e-01,-6.371587514880000525e-01,1.250765006989999935e-02,1.000000000000000000e+00
2.545010308000000165e+00,-4.631950191319999632e+00,-4.381981231829999990e-01,-8.584657305249999482e+00,-2.873304188249999891e-01,-5.095240473750000110e-01,1.579710654909999984e-02,1.000000000000000000e+00
2.549969871000000055e+00,-4.356680421030000083e+00,-2.102593735860000257e-01,-8.925358163610001228e+00,-3.302429318430000205e-01,-3.982493877409999938e-01,2.840931713579999615e-02,1.000000000000000000e+00
2.554978753999999963e+00,-3.465201244880000253e+00,-8.033918004310000027e-01,-9.089313046539999164e+00,-2.545152604579999922e-01,-4.255329966549999954e-01,3.522531362250000148e-03,1.000000000000000000e+00
2.559982934000000210e+00,-4.430756295580000170e+00,1.872663648050000018e-01,-9.660094580160000888e+00,-1.655537337059999892e-01,-4.380427598950000223e-01,-4.037646204230000563e-02,1.000000000000000000e+00
2.565091295000000216e+00,-5.013496270290000112e+00,4.554517480610000280e-01,-9.535916996350000119e+00,-1.174512580039999976e-01,-4.669128060339999831e-01,-5.193039402369999114e-02,1.000000000000000000e+00
2.569983707000000006e+00,-5.358857521680000069e+00,6.630123658169999601e-01,-9.196952167999999261e+00,-6.639906764029999964e-02,-4.330937862400000005e-01,-6.239996850490000385e-02,1.000000000000000000e+00
2.574968230000000080e+00,-5.190501188919999898e+00,3.184244368870000064e-01,-8.790486167310000098e+00,-4.322095587850000031e-02,-3.428405225280000135e-01,-4.731526225809999653e-02,1.000000000000000000e+00
2.579913648999999864e+00,-5.182566888790000270e+00,-6.536415118100000199e-02,-8.883006045569999287e+00,5.572480149570000364e-04,-2.903642952439999814e-01,-3.919720277190000268e-02,1.000000000000000000e+00
2.584912747999999816e+00,-5.229114704959999749e+00,1.374278365330000029e-01,-9.143190182679999722e+00,2.454152703290000265e-02,-2.996099293230000127e-01,-7.253108173610001153e-02,1.000000000000000000e+00
2.589964605000000031e+00,-5.328862196390000250e+00,1.386597803480000002e-01,-9.190791891810000891e+00,6.245029717680000703e-02,-3.332351148129999996e-01,-1.196472048760000018e-01,1.000000000000000000e+00
2.594937025000000119e+00,-6.052787296069999989e+00,1.880062051209999974e-01,-9.124036569400001184e+00,1.327722817660000054e-01,-3.553292751309999886e-01,-1.363824754949999885e-01,1.000000000000000000e+00
2.599890204999999899e+00,-4.703356846670000202e+00,-1.871395783539999969e-01,-8.898013645089999812e+00,1.906175166369999951e-01,-3.597310483460000041e-01,-1.576653420930000105e-01,1.000000000000000000e+00
2.604890424000000149e+00,-5.703345497369999961e+00,1.396300136199999931e-01,-8.901205134610000513e+00,1.965028941629999859e-01,-3.330593407149999852e-01,-1.338143199680000006e-01,1.000000000000000000e+00
2.609917660999999889e+00,-5.041003285899999575e+00,-4.797886457320000297e-01,-8.841620726739998659e+00,1.731439679859999858e-01,-2.982020378110000203e-01,-7.698837667699999499e-02,1.000000000000000000e+00
2.614919356000000139e+00,-5.788268344630000506e+00,-1.713991199039999858e+00,-8.588807410669998532e+00,1.243248507379999951e-01,-3.088023364540000149e-01,-8.625882864000000705e-02,1.000000000000000000e+00
2.619980856999999830e+00,-5.040729729649999769e+00,-1.276970193349999949e+00,-8.756852193250001193e+00,1.031555756929999901e-01,-2.780935466289999880e-01,-7.621991634369999769e-02,1.000000000000000000e+00
2.624987717000000220e+00,-5.253373532419999492e+00,-4.187135243810000129e-01,-8.624464999500000673e+00,2.769746258849999782e-02,-2.640323638919999660e-01,-5.721420422199999939e-02,1.000000000000000000e+00
2.629994020999999904e+00,-5.101349910309999736e+00,-6.053864716040000538e-01,-8.565826932569999386e+00,1.738005876540000064e-02,-2.469497919080000103e-01,-5.375769734380000248e-02,1.000000000000000000e+00
2.634950964999999812e+00,-5.363679242749999965e+00,-2.765585314619999902e-01,-8.491381055660001564e+00,1.807310804720000177e-02,-1.870425790549999912e-01,-7.063440978530000081e-02,1.000000000000000000e+00
2.639976920000000060e+00,-5.287683213780000280e+00,-5.065596386819999353e-01,-8.376001110810001649e+00,2.980295196179999842e-02,-1.451020687819999933e-01,-9.144216030839999454e-02,1.000000000000000000e+00
2.644977417999999858e+00,-5.330635635800000216e+00,-5.380287263199999837e-01,-8.305134845950000511e+00,4.705521836880000031e-02,-1.033773422240000101e-01,-9.482941031460000170e-02,1.000000000000000000e+00
2.649950252000000006e+00,-5.253374116949999895e+00,-6.165055392509999344e-01,-8.395914602550000438e+00,1.890274137259999668e-02,-7.633521407839999329e-02,-8.410520851610001070e-02,1.000000000000000000e+00
2.654963645000000039e+00,-5.302402644009999833e+00,-2.355061526430000107e-01,-8.396784371120000756e+00,4.411964863540000087e-02,-2.147467248140000340e-02,-1.025990769270000019e-01,1.000000000000000000e+00
2.660021733999999860e+00,-5.114060923319999397e+00,-3.088137279759999854e-01,-8.558153913730000895e+00,4.284536093469999696e-02,-1.154479198160000136e-02,-1.398216336969999862e-01,1.000000000000000000e+00
2.664979966000000200e+00,-5.062500831959999559e+00,-2.741904871559999735e-01,-8.625519476989998324e+00,7.413402944800000227e-02,1.783689670259999693e-02,-1.354224979880000179e-01,1.000000000000000000e+00
2.669992296000000209e+00,-4.890365857439999964e+00,-4.277049688819999917e-01,-8.717684550469998683e+00,9.408348053689999380e-02,1.048838533459999986e-02,-1.524454057219999936e-01,1.000000000000000000e+00
2.674955197000000062e+00,-5.059408711159999683e+00,-5.832730952019999915e-01,-8.631013982749999869e+00,6.590711325409999433e-02,5.403852555899999431e-03,-1.813919842240000191e-01,1.000000000000000000e+00
2.679980647999999910e+00,-4.876413904459999671e+00,-1.351192782899999889e+00,-8.616842249539999443e+00,4.229284450410000090e-02,2.485847100619999975e-03,-1.836578100919999956e-01,1.000000000000000000e+00
2.684946114000000161e+00,-4.687675585670000089e+00,-1.162712165199999870e+00,-8.853953554089999400e+00,1.755911484359999955e-02,2.589774876829999822e-02,-1.443454027180000043e-01,1.000000000000000000e+00
2.689980824000000048e+00,-4.958045601219999376e+00,-5.400135069289999645e-01,-8.489783557330000008e+00,-9.472667239610000831e-03,1.844749227170000214e-02,-1.134885773059999964e-01,1.000000000000000000e+00
2.694987820999999784e+00,-5.002438285180000221e+00,-9.769841341429998938e-01,-8.412049744790000005e+00,-2.489116042849999835e-02,2.053925208750000120e-02,-7.088643312450000622e-02,1.000000000000000000e+00
2.699895208000000046e+00,-4.914918991680000460e+00,-7.446683202399998480e-01,-8.486697866280000113e+00,-8.221833035350000277e-03,1.573623344300000004e-02,-4.854020476340000639e-02,1.000000000000000000e+00
2.705058519000000050e+00,-4.839046004569999226e+00,-2.811388815220000059e-01,-8.377629588789998749e+00,-2.563274931160000169e-03,7.496668491509999969e-03,-4.870879650119999682e-02,1.000000000000000000e+00
2.709937152000000182e+00,-4.969913733669999445e+00,-1.233504122719999985e-01,-8.470954938220000230e+00,-6.901551387269999616e-04,-7.247608620669999772e-03,-3.894507884980000223e-02,1.000000000000000000e+00
2.714942655000000205e+00,-4.737141335109999574e+00,-2.039503731019999822e-01,-8.489569622319999453e+00,1.249933242799999844e-02,-1.883139018900000091e-03,-4.179330915209999997e-02,1.000000000000000000e+00
2.719939756000000042e+00,-4.878872111269999756e+00,-1.056347228389999948e-01,-8.449746730499999359e+00,2.806039899590000164e-02,9.113812819119999908e-03,-3.434826433659999428e-02,1.000000000000000000e+00
2.724876398999999783e+00,-4.752309970409999806e+00,-3.263104408960000313e-01,-8.486459381350000442e+00,6.787936389449999997e-02,-3.954313322900000066e-02,-4.754987359050000251e-02,1.000000000000000000e+00
2.729928377999999878e+00,-4.763633036189999892e+00,-3.676955040009999842e-01,-8.446422554510000680e+00,1.030621975660000050e-01,-5.287466198210000190e-02,-4.063183814290000084e-02,1.000000000000000000e+00
2.734966362000000206e+00,-4.816019641509999616e+00,-4.472105739389999890e-01,-8.450099781719998759e+00,1.022136956450000050e-01,-9.358366578819998782e-02,-3.693880513310000141e-02,1.000000000000000000e+00
2.739949203000000111e+00,-4.739475038750000202e+00,-5.164067866960000419e-01,-8.578390061549999501e+00,1.145338267090000028e-01,-1.177731752399999998e-01,-3.153659030799999680e-02,1.000000000000000000e+00
2.744959950999999787e+00,-4.635919387209999520e+00,-3.831544640160000070e-01,-8.679465002189999723e+00,1.292308270929999892e-01,-1.203739568590000142e-01,-3.894146904350000160e-02,1.000000000000000000e+00
2.749960865999999893e+00,-4.559287398430000415e+00,-3.357640230160000017e-01,-8.792787429989999737e+00,1.556760966780000033e-01,-1.448324918749999968e-01,-2.906993217770000026e-02,1.000000000000000000e+00
2.754928636999999902e+00,-4.653513788349999736e+00,-2.329731635669999856e-01,-8.784119554889999293e+00,1.350223273039999894e-01,-1.738030165430000107e-01,-3.126129135490000183e-02,1.000000000000000000e+00
2.759957575000000052e+00,-4.574740111369999696e+00,-2.215421804269999961e-01,-8.799983478969998885e+00,1.787126213309999934e-01,-2.331693470479999919e-01,-2.715358883140000026e-02,1.000000000000000000e+00
2.764970180999999805e+00,-4.523566973490000365e+00,-1.500116977690000020e-01,-8.788079106170000543e+00,1.911349594589999978e-01,-2.663151323800000414e-01,-5.763447657230000298e-02,1.000000000000000000e+00
2.769951288000000122e+00,-4.522561888100000260e+00,-2.935037114460000152e-01,-8.864196131159999936e+00,2.193793952470000086e-01,-3.160417675969999785e-01,-7.460283488039999578e-02,1.000000000000000000e+00
2.774989845999999982e+00,-4.507775237859999784e+00,-1.066029376830000125e-01,-8.968039951999999815e+00,2.433299124240000111e-01,-3.494420349599999809e-01,-7.999183237549999104e-02,1.000000000000000000e+00
2.779990789000000184e+00,-4.483042655400000243e+00,1.750706626369999963e-01,-8.998411709389998236e+00,2.429811358450000014e-01,-3.863493204119999858e-01,-1.029258221389999922e-01,1.000000000000000000e+00
2.784947657000000021e+00,-4.548805751899999805e+00,2.998243658349999952e-01,-9.035970163410000922e+00,2.653079330920000145e-01,-4.314567744730000154e-01,-1.187108457090000069e-01,1.000000000000000000e+00
2.789951131000000029e+00,-4.576354560830000473e+00,3.399628994780000135e-01,-9.096492144389998202e+00,2.853931188580000056e-01,-4.747916460040000342e-01,-1.517937779430000023e-01,1.000000000000000000e+00
2.794974058999999844e+00,-4.643789974459999748e+00,2.475751962249999882e-01,-9.068387162889999686e+00,3.155050575730000140e-01,-5.359556674959999878e-01,-1.711757928130000217e-01,1.000000000000000000e+00
2.799902240999999847e+00,-4.611902259549999883e+00,-3.553711339519999984e-02,-9.199393131409999924e+00,3.749668598179999868e-01,-6.002027988429999850e-01,-1.957816034560000140e-01,1.000000000000000000e+00
2.804997986000000054e+00,-4.469889159320000083e+00,-4.161201834200000116e-01,-9.269077493010001945e+00,3.919395804410000239e-01,-6.735131144520000168e-01,-2.151891440150000279e-01,1.000000000000000000e+00
2.809992005999999876e+00,-4.304361912510000110e+00,-9.973479999969999676e-01,-9.285536460379999468e+00,3.928462862969999692e-01,-7.257348299029999783e-01,-2.289532423020000096e-01,1.000000000000000000e+00
2.814972328000000079e+00,-4.223224721260000258e+00,-1.484498260539999892e+00,-9.438992745650001126e+00,3.947710692880000427e-01,-7.756758928300000466e-01,-2.093901336190000240e-01,1.000000000000000000e+00
2.819926462999999828e+00,-4.220229338840000288e+00,-1.484708834550000134e+00,-9.580026187190000542e+00,4.032764732840000144e-01,-8.416175842290000153e-01,-1.656484603879999906e-01,1.000000000000000000e+00
2.824967941000000149e+00,-4.307872258719999792e+00,-1.571977952679999957e+00,-9.536953353660001298e+00,3.789208531380000022e-01,-9.235413074489999818e-01,-1.303356885910000040e-01,1.000000000000000000e+00
2.829972323999999873e+00,-4.410668616319999735e+00,-1.462959797949999974e+00,-9.520621812070000800e+00,3.780146837230000112e-01,-1.009518980979999814e+00,-1.325247287749999892e-01,0.000000000000000000e+00
2.834990675999999876e+00,-4.524527927480000322e+00,-1.522302067619999866e+00,-9.659775431210000818e+00,4.085002243520000076e-01,-1.079081654549999936e+00,-9.708851575849999915e-02,0.000000000000000000e+00
2.839982297999999794e+00,-4.513349238600000035e+00,-1.537885713460000137e+00,-9.948369670239999962e+00,4.230368733409999860e-01,-1.159289836879999980e+00,-6.665423512460000310e-02,0.000000000000000000e+00
2.844992842999999993e+00,-4.462421307649999669e+00,-1.430027688549999842e+00,-1.026096145550000038e+01,4.524551630020000048e-01,-1.243610501289999837e+00,-5.377699434759999897e-02,0.000000000000000000e+00
2.849953654000000114e+00,-4.380372262259999872e+00,-1.641701477250000041e+00,-1.063399864929999872e+01,4.772173464299999668e-01,-1.356697082519999986e+00,-4.065137729050000148e-02,0.000000000000000000e+00
2.854974933999999909e+00,-4.128610793330000028e+00,-1.575631360620000088e+00,-1.085501105190000004e+01,4.962846636770000264e-01,-1.480952382089999908e+00,-1.159146707500000040e-02,0.000000000000000000e+00
2.860023675999999959e+00,-4.155556960180000203e+00,-1.828565088199999966e+00,-1.124388995799999869e+01,5.305279493330000706e-01,-1.642618775369999895e+00,1.742413034660000078e-03,0.000000000000000000e+00
2.864998646000000093e+00,-4.366940826019999555e+00,-1.410484929819999955e+00,-1.112959488579999956e+01,5.463091135030000434e-01,-1.800613403320000083e+00,1.392173673959999983e-02,0.000000000000000000e+00
2.869895983999999789e+00,-4.485122676540000519e+00,-6.377058559289999762e-01,-1.122339662059999910e+01,5.873935222630000119e-01,-1.949714660640000208e+00,2.502569742500000000e-02,0.000000000000000000e+00
2.874918404999999844e+00,-4.534772550380000489e+00,-2.738591911089999775e-01,-1.113083874839999865e+01,6.361219286920000160e-01,-2.105734825129999876e+00,2.649512141940000079e-02,0.000000000000000000e+00
2.879980812999999973e+00,-4.655231990449999913e+00,2.373947976680000072e-01,-1.121390047789999933e+01,7.310853004459999527e-01,-2.278662204740000252e+00,1.936929114159999937e-02,0.000000000000000000e+00
2.884985306999999999e+00,-4.523412951969999263e+00,6.838185686100000105e-01,-1.139817451079999877e+01,8.483377695079999947e-01,-2.459878206249999977e+00,4.924627952279999644e-03,0.000000000000000000e+00
2.889922759000000063e+00,-4.381202283339999504e+00,8.241884316789999110e-01,-1.148161617959999958e+01,9.621579647059999019e-01,-2.654982566829999779e+00,-1.489853393290000057e-02,0.000000000000000000e+00
2.894978032000000034e+00,-4.274081340530000439e+00,7.896591162199999570e-01,-1.199926291989999960e+01,1.102984428410000106e+00,-2.884889602659999941e+00,-4.197758436200000470e-02,0.000000000000000000e+00
2.899907477999999816e+00,-4.102572096710000338e+00,1.071056575610000117e+00,-1.267429802420000051e+01,1.240264058109999956e+00,-3.151154994959999733e+00,-6.593361496930000287e-02,0.000000000000000000e+00
2.904865678999999812e+00,-3.774560039519999410e+00,1.207563187379999903e+00,-1.324079559689999996e+01,1.395058631900000012e+00,-3.407361984250000031e+00,-6.474360078570000343e-02,0.000000000000000000e+00
2.909974649000000024e+00,-3.240282774690000256e+00,9.197683551019999459e-01,-1.398158239950000059e+01,1.559250950810000091e+00,-3.715824127200000326e+00,-6.578742712740000276e-02,0.000000000000000000e+00
2.914914900999999947e+00,-2.520978612810000019e+00,5.145278776149999622e-01,-1.474052562109999975e+01,1.743857383729999988e+00,-4.049600124359999498e+00,-5.985644832249999853e-02,0.000000000000000000e+00
2.919905361000000088e+00,-1.871926529420000040e+00,1.863454642679999648e-02,-1.566697294249999928e+01,1.992233514790000104e+00,-4.466002941130000181e+00,-1.019558683039999830e-02,0.000000000000000000e+00
