t,ax,ay,az,wx,wy,wz,zv
5.086934999999999894e-03,-2.535197107780000181e+00,-1.166026824440000026e-01,-9.457810258839998596e+00,3.626452293250000299e-03,2.672135829929999686e-03,-1.116728130729999907e-02,1.000000000000000000e+00
1.011147800000000013e-02,-2.569732414590000236e+00,-1.058828249819999956e-01,-9.455542313909999663e+00,8.288067765530000158e-03,-7.020847406240000171e-04,1.968350028619999820e-03,1.000000000000000000e+00
1.529527800000000069e-02,-2.526582131909999696e+00,-1.337884388510000022e-01,-9.509670794460001630e+00,5.531528033319999503e-03,1.132273301479999952e-02,4.389700479810000611e-03,1.000000000000000000e+00
2.031466599999999859e-02,-2.525187754940000140e+00,-1.381696678769999964e-01,-9.471115730619999340e+00,1.678525935860000111e-03,-1.302539603780000083e-03,1.652282662689999901e-05,1.000000000000000000e+00
2.531005799999999986e-02,-2.497689214900000287e+00,-1.918434999949999997e-01,-9.479681898910000015e+00,-6.250874605029999205e-03,1.976018585259999710e-02,-7.848218083379999641e-03,1.000000000000000000e+00
3.030880600000000064e-02,-2.543261171770000217e+00,-1.488918086269999941e-01,-9.475629408650000585e+00,-2.484195632860000322e-03,1.665035635229999977e-02,-6.149799562989999302e-03,1.000000000000000000e+00
3.531615700000000080e-02,-2.503646661999999967e+00,-9.883414857910000073e-02,-9.447344978929999471e+00,-8.851617574690001308e-03,3.240466117860000411e-03,-4.067525267600000105e-03,1.000000000000000000e+00
4.028507399999999711e-02,-2.539746149379999984e+00,-1.488734875190000084e-01,-9.471033313030000400e+00,9.870940819379999537e-03,1.997439935800000149e-02,-1.102149486539999879e-03,1.000000000000000000e+00
4.531942600000000293e-02,-2.492906072279999830e+00,-1.504376772290000053e-01,-9.503962938210001710e+00,-6.515208515340000471e-04,3.328158054499999680e-04,-9.270801208910000799e-03,1.000000000000000000e+00
5.027245600000000009e-02,-2.517073129799999975e+00,-1.630752870799999921e-01,-9.460362865940000532e+00,-1.048118714239999923e-02,1.042449846859999857e-03,-1.492035947739999910e-02,1.000000000000000000e+00
5.527659299999999887e-02,-2.559549458749999840e+00,-1.403052642660000127e-01,-9.442504553160000924e+00,6.555270403619999596e-03,-1.079987827690000006e-02,-1.141152344640000010e-03,1.000000000000000000e+00
6.027297399999999999e-02,-2.545416888500000141e+00,-1.192690886420000040e-01,-9.476695576579999170e+00,8.676030673089999909e-03,5.404455587269999840e-03,1.654050312939999920e-02,1.000000000000000000e+00
6.531066000000000649e-02,-2.506704296000000110e+00,-1.226065899009999988e-01,-9.455972522019999715e+00,4.986572545020000365e-03,-8.919098414479999237e-03,7.163640111680000949e-03,1.000000000000000000e+00
7.029548900000000267e-02,-2.483727032780000066e+00,-7.862500749610000506e-02,-9.447570019860000556e+00,1.914707827380000209e-04,-9.944422170520000534e-03,4.760848823930000214e-04,1.000000000000000000e+00
7.532173899999999866e-02,-2.511508189149999737e+00,-1.057139346880000136e-01,-9.435118534560000825e+00,-1.033271476629999894e-02,-3.732739947739999436e-03,2.257181564349999923e-03,1.000000000000000000e+00
8.031179300000000632e-02,-2.526277888259999660e+00,-1.681657603530000156e-01,-9.503896887239999813e+00,1.705512776970000144e-02,7.360027171670000153e-03,1.218002662060000026e-02,1.000000000000000000e+00
8.514980199999999666e-02,-2.490830727309999659e+00,-1.260542461359999977e-01,-9.448571890380000227e+00,2.538361819460000120e-03,9.207626804709998294e-03,3.843125654380000027e-03,1.000000000000000000e+00
9.031649599999999611e-02,-2.523786948229999716e+00,-1.143513598530000036e-01,-9.483539743379999720e+00,-4.971992690119999940e-03,-2.422306220979999862e-03,-3.506223671139999630e-03,1.000000000000000000e+00
9.529406899999999514e-02,-2.530448451949999900e+00,-1.127814710549999988e-01,-9.436080073069998519e+00,2.323363907639999781e-03,-1.228081434970000087e-02,-3.108514007179999806e-03,1.000000000000000000e+00
1.001683389999999951e-01,-2.565749190170000027e+00,-1.057934387979999891e-01,-9.460660972100001231e+00,2.045379369520000049e-04,6.556632928549999649e-03,6.160254590209999354e-03,1.000000000000000000e+00
1.052946460000000056e-01,-2.476973759129999841e+00,-1.441899510789999839e-01,-9.470742221130000971e+00,9.123103693129998304e-03,1.025622058659999940e-02,5.219408310949999290e-03,1.000000000000000000e+00
1.102876390000000068e-01,-2.520105921629999912e+00,-1.667914580590000029e-01,-9.492889755529999363e+00,-6.095499731600000949e-03,1.952984370289999891e-03,-7.911049760880000791e-04,1.000000000000000000e+00
1.153124799999999950e-01,-2.515916945509999891e+00,-1.822258316209999784e-01,-9.493644373289999550e+00,-2.434692811220000048e-03,-1.186629012229999981e-02,-1.394472084939999898e-02,1.000000000000000000e+00
1.201677030000000007e-01,-2.516633861599999911e+00,-8.714593014200000543e-02,-9.491528404049999423e+00,7.283458835450000012e-04,-2.276926767079999643e-03,-1.313704904170000069e-02,1.000000000000000000e+00
1.251445780000000063e-01,-2.567795601299999841e+00,-1.096672480240000053e-01,-9.488550849550000166e+00,1.002678461370000093e-02,-3.458403516560000154e-03,6.253980100150000401e-03,1.000000000000000000e+00
1.301738580000000034e-01,-2.527948744080000143e+00,-1.752264011879999805e-01,-9.502536120280000276e+00,1.096059102570000159e-02,-3.233653958889999916e-03,7.819874212149999920e-03,1.000000000000000000e+00
1.353406689999999968e-01,-2.513922264559999675e+00,-1.296792864999999906e-01,-9.464539859360000307e+00,-3.546847263350000334e-03,4.222700372340000216e-03,-3.877866547549999911e-04,1.000000000000000000e+00
1.402937649999999870e-01,-2.494666359950000079e+00,-1.334616454489999937e-01,-9.478400626930000072e+00,-9.492190554739999772e-03,-4.493998363609999665e-03,-5.043196491899999689e-03,1.000000000000000000e+00
1.453301869999999996e-01,-2.520517132779999780e+00,-1.226466022509999920e-01,-9.467608014760001467e+00,4.082959145309999864e-03,-3.233676077800000381e-03,1.145812449980000052e-03,1.000000000000000000e+00
1.503262109999999874e-01,-2.536491531499999841e+00,-1.511648955250000093e-01,-9.482797400580000868e+00,9.677367284889999699e-03,2.202462404969999892e-03,-7.347982376810000167e-03,1.000000000000000000e+00
1.552952009999999938e-01,-2.559333477909999655e+00,-1.485014210700000004e-01,-9.452791553899999144e+00,2.066417364400000272e-03,-1.177563681270000009e-03,-7.710848003630000128e-03,1.000000000000000000e+00
1.602704080000000031e-01,-2.543224639149999966e+00,-1.449747721809999945e-01,-9.448674766230000799e+00,1.977418316530000011e-03,-4.429891239850000141e-03,-5.271351896229999577e-03,1.000000000000000000e+00
1.651998030000000062e-01,-2.519725690140000474e+00,-1.549948930089999899e-01,-9.493677106519999853e+00,1.495928782970000134e-02,-1.009893137960000097e-02,1.510677626360000091e-03,1.000000000000000000e+00
1.702170329999999898e-01,-2.507046533570000069e+00,-1.345919463869999777e-01,-9.473485382359999818e+00,1.211701612919999921e-02,-5.444812122729999170e-03,8.045926224439999041e-04,1.000000000000000000e+00
1.751308299999999873e-01,-2.538987439970000093e+00,-1.216790815260000019e-01,-9.506077153889998854e+00,1.984520582480000031e-03,4.298812709749999929e-04,5.832354072480000614e-04,1.000000000000000000e+00
1.801412340000000112e-01,-2.562704415640000288e+00,-1.380199572080000048e-01,-9.479079256839998635e+00,1.584570482370000269e-02,-1.467513013629999884e-02,1.376730157060000043e-03,1.000000000000000000e+00
1.851494989999999952e-01,-2.498752460219999971e+00,-1.523502785180000096e-01,-9.464929150939999758e+00,-6.364633794869999431e-03,-9.100139141080000257e-03,-4.911679774520000610e-03,1.000000000000000000e+00
1.901532449999999985e-01,-2.530865508309999790e+00,-1.484899498279999841e-01,-9.450475093650000602e+00,5.862371181140000036e-04,-4.069387447090000269e-03,-1.856565475459999795e-02,1.000000000000000000e+00
1.951776030000000051e-01,-2.593509596009999640e+00,-1.236037568449999957e-01,-9.453575982280000289e+00,-2.118543256069999915e-03,-5.877360701560000941e-03,9.070594795049999326e-03,1.000000000000000000e+00
2.001110620000000062e-01,-2.508567167269999842e+00,-1.215426595970000023e-01,-9.492781618980000502e+00,-2.898140810430000023e-03,4.426151979709999455e-03,-9.690904058519999795e-03,1.000000000000000000e+00
2.052777149999999995e-01,-2.538131992190000297e+00,-1.296099658569999924e-01,-9.453983978550001055e+00,-1.066592987630000022e-03,3.869488369669999827e-03,-2.409360604360000126e-03,1.000000000000000000e+00
2.102829479999999973e-01,-2.529040923229999738e+00,-1.071058000379999930e-01,-9.469349305469998868e+00,-2.342617139219999641e-03,-6.533531472089999445e-03,-5.089882761239999422e-03,1.000000000000000000e+00
2.152792910000000115e-01,-2.540987966140000331e+00,-1.213156824400000028e-01,-9.466540677789998526e+00,-2.822746522719999773e-03,1.283426024020000063e-02,-7.281635887919999522e-03,1.000000000000000000e+00
2.201675130000000091e-01,-2.547733056479999814e+00,-1.128666833860000052e-01,-9.443375490780001158e+00,-2.215685555709999942e-03,3.082982730120000328e-04,5.047949030999999802e-03,1.000000000000000000e+00
2.251827459999999892e-01,-2.524763684309999867e+00,-1.093927510650000018e-01,-9.450804179469999511e+00,-1.146199181679999866e-02,1.057258713990000092e-02,9.955353103580000598e-03,1.000000000000000000e+00
2.301673840000000026e-01,-2.453365796789999997e+00,-1.368410404879999986e-01,-9.457996136810001175e+00,-6.543154828249999645e-03,-7.363701704890000810e-03,-1.750534772870000061e-02,1.000000000000000000e+00
2.353217559999999930e-01,-2.550649236190000391e+00,-1.680074097200000005e-01,-9.491931139630001013e+00,1.606121286750000071e-02,1.210031658410000086e-02,-2.989107277240000016e-03,1.000000000000000000e+00
2.403040660000000106e-01,-2.501957685999999903e+00,-1.226815913660000146e-01,-9.470102754179999138e+00,1.035417430099999994e-02,3.557249438020000220e-03,-4.356181249020000569e-03,1.000000000000000000e+00
2.453114100000000075e-01,-2.512190618460000024e+00,-1.392116603430000044e-01,-9.454573761139998922e+00,-8.713694289330000189e-03,9.127739816900000067e-03,1.209968933839999971e-03,1.000000000000000000e+00
2.503293719999999944e-01,-2.527179513279999679e+00,-1.210485742029999978e-01,-9.436649981919998709e+00,-1.048381905999999988e-02,2.024361863729999978e-03,-9.199017658829999541e-03,1.000000000000000000e+00
2.551681920000000159e-01,-2.553554602240000193e+00,-1.319163248369999986e-01,-9.458987485930000716e+00,3.763125743720000058e-03,-1.444981899110000037e-02,-1.055088359859999991e-02,1.000000000000000000e+00
2.602802519999999897e-01,-2.523827864759999873e+00,-1.297326606549999983e-01,-9.462717320110000330e+00,1.886829547580000030e-02,9.518230333920000077e-03,-3.863582620399999990e-03,1.000000000000000000e+00
2.651618290000000155e-01,-2.525166712149999881e+00,-1.300054588470000161e-01,-9.498221764209999307e+00,4.310945048929999864e-03,-3.693527309219999701e-03,-1.428379560819999835e-03,1.000000000000000000e+00
2.701265500000000208e-01,-2.523572720959999849e+00,-1.276176960610000133e-01,-9.489255782939999051e+00,5.364991724489999621e-03,3.670947626230000073e-03,9.988416917620000779e-03,1.000000000000000000e+00
2.753185240000000089e-01,-2.507999888770000130e+00,-1.381805180640000019e-01,-9.480300323069998925e+00,-5.677934270350000999e-03,-8.705293759700000189e-03,4.239532165229999670e-03,1.000000000000000000e+00
2.802209620000000179e-01,-2.511091425050000048e+00,-1.107803786319999928e-01,-9.475704811980000031e+00,6.284806411709999846e-03,1.002364791929999822e-03,-3.114258870479999887e-04,1.000000000000000000e+00
2.851499800000000251e-01,-2.501360596890000121e+00,-1.488648840879999991e-01,-9.474498943320000421e+00,-2.783386502409999994e-03,2.685471437869999846e-03,-5.255258642140000526e-03,1.000000000000000000e+00
2.903125169999999922e-01,-2.456845747859999651e+00,-1.465975145450000017e-01,-9.472019985980001167e+00,-7.773462682959999398e-03,7.920295931399999600e-03,-1.396115962419999974e-02,1.000000000000000000e+00
2.951921080000000086e-01,-2.555470665000000086e+00,-1.154746191290000057e-01,-9.462931255119999108e+00,6.000712979579999641e-03,1.673630997539999818e-02,1.080809626729999952e-02,1.000000000000000000e+00
3.003638539999999857e-01,-2.508339203729999856e+00,-1.308302009669999877e-01,-9.466467612549999799e+00,1.264866255220000249e-02,1.014958415179999934e-02,-8.107342757279999146e-03,1.000000000000000000e+00
3.053037129999999766e-01,-2.512328857890000045e+00,-1.465149051619999976e-01,-9.475849188879999829e+00,5.997618660329999581e-03,-1.077896170320000006e-02,-5.001191981140000291e-03,1.000000000000000000e+00
3.102975459999999797e-01,-2.496735567440000025e+00,-1.356815408550000046e-01,-9.460460481089999263e+00,-8.023395785129999866e-04,-9.372553322460000372e-04,-9.124542586509999664e-03,1.000000000000000000e+00
3.153405570000000213e-01,-2.533053373750000059e+00,-1.333223557099999790e-01,-9.470655127369999704e+00,-2.343225991349999916e-03,-1.936529949309999735e-02,-4.485224373640000345e-03,1.000000000000000000e+00
3.202930330000000048e-01,-2.518013041000000118e+00,-1.405683173829999910e-01,-9.480351760999999655e+00,1.719557866449999972e-02,-1.507862657309999924e-02,-3.929463680830000243e-03,1.000000000000000000e+00
3.253086230000000190e-01,-2.517374743099999979e+00,-1.488454122020000103e-01,-9.468779396629999567e+00,-1.150822732600000065e-02,-1.036361232399999992e-02,3.571108682079999607e-03,1.000000000000000000e+00
3.301761979999999763e-01,-2.507416243659999822e+00,-1.476170851170000020e-01,-9.470720593819999422e+00,1.413237582889999983e-02,-4.760718438770000088e-03,-1.930095371789999990e-03,1.000000000000000000e+00
3.353049260000000031e-01,-2.523954413749999848e+00,-1.524924452020000043e-01,-9.479382039179998998e+00,-4.392922390250000343e-03,6.874026730659999612e-03,7.049795240159999719e-03,1.000000000000000000e+00
3.401130540000000257e-01,-2.487782737909999931e+00,-9.074086762769999204e-02,-9.486135020569999909e+00,3.552266396579999846e-03,-1.128585427069999899e-03,3.575955284759999887e-03,1.000000000000000000e+00
3.453028049999999904e-01,-2.479456808120000133e+00,-1.315158086109999847e-01,-9.522940610399999173e+00,-4.196981899439999712e-03,-7.413560524579999883e-06,-2.090558409689999980e-03,1.000000000000000000e+00
3.504118789999999817e-01,-2.514568745770000113e+00,-1.427910258010000044e-01,-9.465776123160001276e+00,2.063571708279999910e-03,-5.763271357859999812e-03,-7.558315061029999976e-03,1.000000000000000000e+00
3.552991070000000029e-01,-2.559285839370000204e+00,-1.534192046579999913e-01,-9.458432190139999918e+00,1.885836943979999963e-03,4.926758818329999949e-03,7.866962812840000083e-03,1.000000000000000000e+00
3.601787329999999732e-01,-2.523366676989999835e+00,-1.400718847690000102e-01,-9.439803477510000818e+00,-1.267621293659999988e-03,-8.543800562619999900e-03,-9.526875801379999439e-03,1.000000000000000000e+00
3.653272329999999735e-01,-2.525922791209999740e+00,-1.323497295509999949e-01,-9.486799621960001261e+00,-1.940495858429999916e-04,5.993632599710000015e-03,2.441918244590000116e-03,1.000000000000000000e+00
3.703496130000000219e-01,-2.505651572080000111e+00,-1.478624107809999866e-01,-9.497101235749999759e+00,3.409950062630000278e-03,-6.417017430069999265e-03,-1.558168674819999976e-03,1.000000000000000000e+00
3.753270579999999912e-01,-2.539733582159999781e+00,-1.237871779869999939e-01,-9.472800322710000387e+00,-1.305947825310000039e-02,-7.095545064659999554e-03,1.071098959069999995e-03,1.000000000000000000e+00
3.801974870000000006e-01,-2.536914140829999997e+00,-1.215151414019999959e-01,-9.488115380739998272e+00,5.669130012390000140e-03,8.674510754639999655e-03,-1.399917178790000038e-03,1.000000000000000000e+00
3.853085849999999812e-01,-2.534646195900000176e+00,-1.320562173640000003e-01,-9.466737661669998971e+00,-6.209395942280000703e-04,-4.494791850450000070e-03,-2.034437842670000236e-03,1.000000000000000000e+00
3.901790669999999905e-01,-2.498925770959999682e+00,-1.546750499379999921e-01,-9.461158400229999543e+00,1.210410986100000051e-02,-8.191254455599998943e-04,-1.129851676520000035e-02,1.000000000000000000e+00
3.951667509999999828e-01,-2.560788352889999953e+00,-1.369499259560000015e-01,-9.475538807759999571e+00,-8.200381882489999122e-03,3.294222988189999851e-04,9.884185157719998713e-03,1.000000000000000000e+00
4.001786199999999849e-01,-2.503762397329999612e+00,-1.306583149989999915e-01,-9.431729476650000166e+00,-1.872430322690000169e-03,-4.512367770080000402e-03,6.985641084609999461e-03,1.000000000000000000e+00
4.051300629999999847e-01,-2.548005735949999906e+00,-1.127439885889999910e-01,-9.439099128629999669e+00,3.337706439199999899e-03,-1.434833277020000110e-02,7.260905578729999477e-03,1.000000000000000000e+00
4.102514769999999755e-01,-2.491924367759999814e+00,-1.322579596150000036e-01,-9.495015661639998328e+00,-5.159187596289999990e-03,-1.112712360920000039e-02,-2.129569463429999837e-02,1.000000000000000000e+00
4.152314200000000177e-01,-2.543611592640000474e+00,-1.438344065069999955e-01,-9.441910678919999356e+00,1.508142566310000056e-03,-2.007192466410000122e-03,-1.193021424110000082e-02,1.000000000000000000e+00
4.202981459999999836e-01,-2.548108319540000277e+00,-1.381697866080000003e-01,-9.481988422289999718e+00,-6.476116366680000243e-03,-2.894793869930000103e-03,-9.432906284930001051e-03,1.000000000000000000e+00
4.251633049999999914e-01,-2.561828509590000191e+00,-1.176278973059999983e-01,-9.443253325700000644e+00,-2.292037010190000126e-03,7.001797202969998806e-04,2.113576279950000070e-03,1.000000000000000000e+00
4.301697749999999765e-01,-2.500305827140000048e+00,-1.271997903089999993e-01,-9.441388116349999748e+00,8.930036798120001215e-03,-3.529489040369999464e-04,-7.413008250300000788e-03,1.000000000000000000e+00
4.353406619999999894e-01,-2.543506378700000070e+00,-1.407247135209999944e-01,-9.500369297629999821e+00,1.569358259439999903e-02,-6.829129531979999737e-03,-4.869487136600000876e-03,1.000000000000000000e+00
4.403116029999999959e-01,-2.506844873519999961e+00,-1.310176589640000000e-01,-9.463319377650000419e+00,-5.097884219139999992e-03,-1.131715718660000151e-03,-2.584173344080000108e-03,1.000000000000000000e+00
4.451757880000000167e-01,-2.552885616940000268e+00,-1.429690766479999875e-01,-9.493758939580001055e+00,-9.079852141440001440e-03,-9.317627176639999703e-03,-6.247447337959999986e-03,1.000000000000000000e+00
4.501891459999999845e-01,-2.534288176240000023e+00,-1.450003998130000027e-01,-9.443183183080000376e+00,-8.198380470280000609e-03,-1.593562960619999969e-02,-6.526225246490000367e-03,1.000000000000000000e+00
4.553246790000000099e-01,-2.571963242379999848e+00,-1.391514363219999995e-01,-9.458476029279999864e+00,-1.404524780810000083e-03,-1.224035746420000081e-03,7.549160160120000664e-03,1.000000000000000000e+00
4.601580319999999946e-01,-2.494426121450000089e+00,-9.427161730340000156e-02,-9.490185172749999509e+00,-1.456109806899999861e-03,5.904852878300000368e-04,-1.148359198120000105e-02,1.000000000000000000e+00
4.653177769999999880e-01,-2.554868022930000038e+00,-1.139603421079999901e-01,-9.430285707579999510e+00,-1.642263960089999832e-03,-9.020389989020000414e-04,-1.607574522499999933e-03,1.000000000000000000e+00
4.703059669999999914e-01,-2.543701901269999954e+00,-1.308629159270000009e-01,-9.463276707560000389e+00,-1.642141863700000148e-02,-2.769567770880000147e-03,-2.490711631249999808e-03,1.000000000000000000e+00
4.752920359999999733e-01,-2.576450909190000083e+00,-1.654550218229999814e-01,-9.482731934129999374e+00,-1.662998460229999894e-03,2.670653630049999849e-03,3.251064801590000230e-03,1.000000000000000000e+00
4.801896480000000245e-01,-2.514506494190000385e+00,-1.724293726139999872e-01,-9.440218488050000190e+00,-5.883854348209999890e-03,8.914589881899999749e-03,6.695136427880000497e-03,1.000000000000000000e+00
4.853463310000000197e-01,-2.484118954709999993e+00,-1.155646628989999980e-01,-9.466862164830001092e+00,-1.247523166239999926e-02,-1.063076779249999879e-04,-5.534796044229999684e-03,1.000000000000000000e+00
4.901789380000000085e-01,-2.545690152479999746e+00,-1.261733150719999974e-01,-9.467170792390000145e+00,-1.918891258540000172e-02,6.393433548510000022e-03,-4.911301657559999584e-04,1.000000000000000000e+00
4.951524070000000166e-01,-2.558921097709999870e+00,-1.843281559290000093e-01,-9.463570722070000940e+00,-6.872116588060000163e-03,1.011301111429999990e-02,-2.595173195000000186e-03,1.000000000000000000e+00
5.003023189999999953e-01,-2.574846688859999677e+00,-1.246389085789999934e-01,-9.436696743669999776e+00,-1.010338123889999856e-02,-1.073497347529999910e-02,5.780478939409999795e-03,1.000000000000000000e+00
5.052908510000000408e-01,-2.513100719040000097e+00,-9.768021103739998878e-02,-9.472231582910000114e+00,-2.181807719169999785e-02,1.043469551949999935e-02,-4.344586748630000113e-03,1.000000000000000000e+00
5.102741119999999464e-01,-2.536042326430000049e+00,-1.203138575870000004e-01,-9.476794360780001369e+00,-8.691186085340000742e-03,6.273492239419999755e-03,-3.574747825039999941e-03,1.000000000000000000e+00
5.153404539999999479e-01,-2.518136375120000103e+00,-1.575105290920000012e-01,-9.499062891210000359e+00,-1.543230097739999897e-02,3.376427572219999670e-03,6.639352068310000292e-03,1.000000000000000000e+00
5.203586719999999666e-01,-2.549672207850000039e+00,-6.118288800760000173e-02,-9.515455807609999539e+00,-1.714876294139999757e-02,-4.110315348949999774e-03,1.540221553300000039e-02,1.000000000000000000e+00
5.251754589999999556e-01,-2.526953595570000211e+00,-1.320797078379999934e-01,-9.472391741900000994e+00,-1.341428887099999946e-02,-4.415397532279999315e-03,-1.363371615299999911e-03,1.000000000000000000e+00
5.301482140000000065e-01,-2.499611415129999958e+00,-1.726070307360000056e-01,-9.467198849439999009e+00,-2.496375236660000168e-05,-5.108369980009999992e-03,-1.348397973919999993e-02,1.000000000000000000e+00
5.353421510000000438e-01,-2.515840665399999843e+00,-1.430782817769999937e-01,-9.475665649010000635e+00,-3.184476168830000214e-03,7.765760645270000651e-03,1.812399132179999929e-03,1.000000000000000000e+00
5.403002059999999496e-01,-2.507453068539999830e+00,-1.288362780700000043e-01,-9.487145074400000766e+00,7.871537469329999842e-03,3.313553053889999999e-03,3.172553377229999673e-03,1.000000000000000000e+00
5.452354480000000114e-01,-2.541126497830000108e+00,-1.413340867239999965e-01,-9.422423303640000469e+00,1.287569291890000057e-02,-3.719087457280000151e-03,1.803116127850000125e-02,1.000000000000000000e+00
5.503367919999999636e-01,-2.484352471200000245e+00,-1.644423193829999963e-01,-9.486312715229999526e+00,-3.907628823069999972e-03,-4.312173463399999671e-03,-2.439728472380000082e-03,1.000000000000000000e+00
5.552768719999999769e-01,-2.567972711440000388e+00,-1.501739208600000042e-01,-9.503162143220000857e+00,1.354812411589999873e-03,-1.061513274910000186e-02,-3.138007596139999944e-04,1.000000000000000000e+00
5.602975190000000216e-01,-2.495885672609999606e+00,-1.369436697460000019e-01,-9.465365788789998902e+00,-3.342918818820000363e-03,-8.831770159299999479e-03,-9.157865308229999959e-03,1.000000000000000000e+00
5.653285609999999517e-01,-2.552619951740000115e+00,-1.490786729690000145e-01,-9.492744209580001424e+00,1.520686782900000080e-03,-4.551272373649999266e-03,1.139668654649999939e-02,1.000000000000000000e+00
5.703320769999999929e-01,-2.524538643380000114e+00,-1.094380606450000015e-01,-9.459967144620000212e+00,-2.009930554779999767e-03,-2.753536216909999862e-02,2.757350215690000141e-03,1.000000000000000000e+00
5.752941660000000512e-01,-2.492711426490000104e+00,-1.663372114849999972e-01,-9.422440839300000093e+00,-3.178133396430000025e-03,4.791662096979999036e-03,-3.616284113380000258e-03,1.000000000000000000e+00
5.801707489999999856e-01,-2.554117496820000000e+00,-1.323319655660000205e-01,-9.487682250019998875e+00,-2.023904025549999944e-02,9.182370267810000333e-03,1.052565872670000249e-02,1.000000000000000000e+00
5.853357409999999650e-01,-2.500034316720000316e+00,-4.991505497349999626e-02,-9.448844862099999631e+00,-5.285542458300000225e-03,-3.812821814790000319e-03,-4.004613496359999726e-03,1.000000000000000000e+00
5.903089820000000376e-01,-2.559053491919999868e+00,-1.478824945879999853e-01,-9.494929736930000530e+00,-1.070510223509999956e-02,8.476919494570000699e-03,1.617756485940000100e-02,1.000000000000000000e+00
5.953341180000000232e-01,-2.544356273530000045e+00,-1.188528177250000040e-01,-9.455792489280000268e+00,-2.870230237019999638e-03,-3.779877442869999634e-04,8.417673408989998635e-03,1.000000000000000000e+00
6.001949979999999796e-01,-2.505236561540000295e+00,-1.987937392580000073e-01,-9.466049094880000681e+00,2.060341648759999970e-03,1.631875522430000164e-03,3.221198683599999727e-03,1.000000000000000000e+00
6.053205099999999783e-01,-2.530295014950000088e+00,-1.616991216220000083e-01,-9.445670908239998553e+00,-3.279110649600000104e-03,-5.274819210169999495e-03,4.424719139930000447e-03,1.000000000000000000e+00
6.101726530000000093e-01,-2.545079911629999803e+00,-7.861103376969999501e-02,-9.473186691669999604e+00,-1.177735254170000044e-02,-7.319182623180000256e-04,4.050350747999999917e-03,1.000000000000000000e+00
6.151876099999999958e-01,-2.549703187510000024e+00,-1.226122341900000162e-01,-9.473937217779999642e+00,-2.249240176750000059e-03,-2.527253702280000350e-03,3.839954035360000108e-03,1.000000000000000000e+00
6.201246240000000132e-01,-2.573757140059999671e+00,-1.363531930390000091e-01,-9.421873268539998847e+00,-1.786240609359999879e-03,-1.391095691359999810e-03,4.263332113619999579e-03,1.000000000000000000e+00
6.251622409999999519e-01,-2.482157299250000282e+00,-8.900886533650000099e-02,-9.418402962089999164e+00,-1.332495827229999985e-02,9.073893539610000322e-03,-4.409260582180000304e-03,1.000000000000000000e+00
6.301468120000000006e-01,-2.543284552640000307e+00,-1.323640777370000132e-01,-9.487926580169999013e+00,-1.062208134679999867e-02,-2.481426578020000037e-03,8.479311130939999955e-03,1.000000000000000000e+00
6.353233900000000434e-01,-2.520011229080000081e+00,-9.163274756670000687e-02,-9.462594570510001191e+00,2.559327753260000511e-03,8.961691055449998687e-04,-4.986124113200000353e-04,1.000000000000000000e+00
6.402897770000000044e-01,-2.565370712240000017e+00,-1.140634736889999945e-01,-9.451128004600001020e+00,-4.192607942969999932e-03,-6.392592098560000331e-03,3.721686778589999856e-03,1.000000000000000000e+00
6.453157320000000308e-01,-2.546642923159999850e+00,-1.837877289089999977e-01,-9.524231819260000620e+00,-1.869797520340000033e-02,1.023447606710000193e-03,1.296813320370000105e-02,1.000000000000000000e+00
6.503188469999999777e-01,-2.531588854149999790e+00,-6.781777771109999409e-02,-9.465901795360000648e+00,1.156858354809999975e-02,3.012816887349999985e-04,2.154248999429999797e-03,1.000000000000000000e+00
6.552793439999999858e-01,-2.509452133409999952e+00,-5.614593502000000264e-02,-9.477705630399999137e+00,8.880949579179999928e-03,-1.893815957009999801e-02,-2.785367658360000161e-03,1.000000000000000000e+00
6.602867820000000165e-01,-2.583841019439999886e+00,-1.320682091960000137e-01,-9.483447388929999278e+00,4.658150486649999603e-03,4.377897363159999854e-03,-5.812649615109999855e-03,1.000000000000000000e+00
6.653374100000000180e-01,-2.493797760420000120e+00,-1.203471753350000145e-01,-9.460331886280000546e+00,-1.162079069760000097e-02,3.632593899969999932e-03,-1.546931220219999875e-03,1.000000000000000000e+00
6.703176269999999715e-01,-2.533504916909999682e+00,-1.002571305870000040e-01,-9.501579257939999579e+00,1.174508943220000095e-04,2.122704870999999813e-02,-9.258259087799999495e-03,1.000000000000000000e+00
6.752139200000000230e-01,-2.545535254179999818e+00,-8.200018301759999517e-02,-9.445054822170000364e+00,7.775199133899999594e-03,-4.911524709310000070e-03,-2.381175290790000230e-04,1.000000000000000000e+00
6.803050470000000516e-01,-2.503433896029999772e+00,-6.545983924100000351e-02,-9.454934411150000884e+00,-3.765952307729999830e-03,3.829644992949999670e-03,-8.900809101760000577e-03,1.000000000000000000e+00
6.851456360000000023e-01,-2.558967274940000092e+00,-1.331578493299999943e-01,-9.457050380389999233e+00,8.375595323739999654e-03,6.954062730069999684e-03,-6.280102301389999843e-03,1.000000000000000000e+00
6.901588730000000060e-01,-2.542461838079999925e+00,-1.655789039309999988e-01,-9.479216619489998052e+00,-1.340127084400000211e-03,4.938785918060000640e-03,4.097714088859999784e-03,1.000000000000000000e+00
6.951423119999999845e-01,-2.552185651979999914e+00,-1.109322903910000130e-01,-9.500164714969999480e+00,1.759935636069999854e-03,-2.831541467459999881e-03,3.382003633309999674e-03,1.000000000000000000e+00
7.001523210000000219e-01,-2.572369192830000095e+00,-1.093875725659999992e-01,-9.468497657080000351e+00,-2.912111813199999739e-03,-5.890073254699998949e-03,1.423450885339999812e-03,1.000000000000000000e+00
7.052867860000000544e-01,-2.538790748350000293e+00,-1.335166635720000106e-01,-9.496552369689998940e+00,-5.432179663329999957e-03,-1.946146250700000200e-03,-3.862773068249999737e-03,1.000000000000000000e+00
7.102721880000000265e-01,-2.544766023370000241e+00,-8.559791524869998780e-02,-9.451940490030001030e+00,6.615706253799999957e-03,6.876060739159999512e-03,4.563191905619999969e-04,1.000000000000000000e+00
7.153213379999999733e-01,-2.517256377420000302e+00,-1.725508618349999856e-01,-9.461199901280000546e+00,9.929046500469999176e-04,-1.442644163029999961e-03,-3.269515698780000191e-03,1.000000000000000000e+00
7.201302969999999748e-01,-2.546913264529999665e+00,-1.356190518119999855e-01,-9.457660036720000107e+00,1.190869137640000091e-03,4.560402594509999682e-04,4.164285957809999925e-03,1.000000000000000000e+00
7.251593929999999855e-01,-2.535024966079999942e+00,-1.464856699340000012e-01,-9.469958961799999742e+00,-6.903849076479999514e-03,7.970025762920000117e-03,1.336168032139999941e-02,1.000000000000000000e+00
7.302940420000000321e-01,-2.495583474790000089e+00,-2.119186303020000051e-01,-9.467385311919999324e+00,6.196442060169999981e-03,4.474968183789999887e-03,7.404617033899999617e-03,1.000000000000000000e+00
7.353211309999999612e-01,-2.438553135319999843e+00,-1.052196848980000016e-01,-9.497532612899998838e+00,-1.495300512760000013e-02,-2.507814206179999859e-03,-1.459383871410000096e-02,1.000000000000000000e+00
7.402713260000000073e-01,-2.533265847450000052e+00,-1.428111461400000115e-01,-9.454689496480000344e+00,-2.131346985700000030e-02,1.914788037540000182e-02,-2.582650864499999935e-03,1.000000000000000000e+00
7.452696589999999732e-01,-2.534077456100000347e+00,-1.713729954290000024e-01,-9.463524544840000274e+00,-3.214747877789999979e-03,-1.272254274230000043e-03,1.054263906549999944e-03,1.000000000000000000e+00
7.503157280000000151e-01,-2.544441029199999704e+00,-1.106468701789999898e-01,-9.461220944069999916e+00,-2.100935904310000102e-03,-2.238271292300000187e-03,3.767658723519999673e-03,1.000000000000000000e+00
7.553144729999999862e-01,-2.528905898680000153e+00,-1.223141919580000014e-01,-9.436011684009999456e+00,-1.107353344560000133e-02,-1.244665868579999946e-02,-2.719458192590000056e-03,1.000000000000000000e+00
7.602666009999999863e-01,-2.537662913370000162e+00,-1.821868513170000203e-01,-9.482108833799999914e+00,1.512254029510000028e-02,8.714262396100000418e-03,-4.688787274060000204e-03,1.000000000000000000e+00
7.652310629999999891e-01,-2.534013743209999614e+00,-1.536983503930000050e-01,-9.482747131700000054e+00,-1.423579815310000243e-04,-3.385652787980000106e-03,-9.660944342610000134e-04,1.000000000000000000e+00
7.703128479999999945e-01,-2.500407241690000504e+00,-6.459837270660000186e-02,-9.495324289199999157e+00,-5.092141218479999398e-03,1.122320443389999978e-02,-1.427138876170000112e-02,1.000000000000000000e+00
7.751720560000000537e-01,-2.555637838259999572e+00,-1.372084946940000105e-01,-9.488552603110001371e+00,4.627234768119999932e-03,-9.935298934580000588e-03,1.646684668959999889e-02,1.000000000000000000e+00
7.801410810000000140e-01,-2.513149234359999706e+00,-1.430289262099999903e-01,-9.485319028019999266e+00,-9.987310040739999159e-04,4.390927962960000132e-03,1.146708056329999795e-02,1.000000000000000000e+00
7.851623220000000236e-01,-2.546225282270000001e+00,-1.440910116159999921e-01,-9.467627303980000519e+00,-1.607642881570000085e-02,1.245999708770000221e-02,2.701103501019999978e-02,1.000000000000000000e+00
7.901411160000000322e-01,-2.516794312859999661e+00,-1.069390651689999944e-01,-9.449041845980000076e+00,-7.863533683119998743e-03,7.638279348609998930e-03,1.079666614529999936e-02,1.000000000000000000e+00
7.952990840000000450e-01,-2.563907069429999908e+00,-6.766072398590000647e-02,-9.450220826629999848e+00,7.684795651579999498e-03,-6.537645123899999550e-03,1.343468111010000070e-02,1.000000000000000000e+00
8.001637190000000510e-01,-2.493427173540000208e+00,-1.038881714330000122e-01,-9.496460599760000676e+00,-6.066909059879999934e-03,-5.550081841649999806e-03,5.148949567230000921e-04,1.000000000000000000e+00
8.050817550000000100e-01,-2.492080727370000304e+00,-1.524689455949999883e-01,-9.470192770560000639e+00,-2.014946565029999970e-02,-2.157200314099999919e-02,-7.350303232670000325e-03,1.000000000000000000e+00
8.100001810000000413e-01,-2.542505969490000073e+00,-1.309649606620000017e-01,-9.469624030760000366e+00,1.476359786470000024e-03,4.127862397579999676e-03,-2.142171375450000088e-03,1.000000000000000000e+00
8.149770830000000466e-01,-2.561803959670000186e+00,-1.144062318449999976e-01,-9.488279046869999789e+00,-8.082114160059999594e-03,-6.922785192729999371e-03,3.254383103920000225e-03,1.000000000000000000e+00
8.205035050000000219e-01,-2.493721772569999828e+00,-1.217232859940000078e-01,-9.496288165800001124e+00,2.585892099890000143e-03,-9.128310717640000099e-03,-1.027157064529999990e-02,1.000000000000000000e+00
8.251887890000000336e-01,-2.566904789940000153e+00,-1.035052182630000067e-01,-9.469031910080000003e+00,7.688876357860000184e-04,4.428861662749999928e-03,-6.427505984900000122e-03,1.000000000000000000e+00
8.301638940000000133e-01,-2.582860776229999988e+00,-8.220880253330001275e-02,-9.471157816199999857e+00,-9.602379053830000649e-03,-7.897751405840000224e-03,1.914735697209999851e-02,1.000000000000000000e+00
8.352979310000000490e-01,-2.547465053199999829e+00,-1.058752170639999934e-01,-9.470063006700000230e+00,-8.626241236930001430e-03,-1.186057925220000052e-04,1.053807884450000051e-02,1.000000000000000000e+00
8.402976960000000384e-01,-2.499550917120000104e+00,-1.023898500329999961e-01,-9.466260107280000113e+00,3.153370460500000069e-03,-4.242620896549999937e-03,-5.996135994790000034e-03,1.000000000000000000e+00
8.450773689999999672e-01,-2.509434597749999885e+00,-1.002692228840000033e-01,-9.482727257960000600e+00,2.258427441119999820e-03,1.098889019339999856e-02,-1.023508026260000047e-03,1.000000000000000000e+00
8.500137840000000500e-01,-2.531746382800000195e+00,-8.690583777580000724e-02,-9.466204577699999234e+00,8.434215560560001310e-03,7.594726048409999528e-03,-4.063360393050000768e-03,1.000000000000000000e+00
8.552796089999999962e-01,-2.515848848710000141e+00,-1.431555756640000010e-01,-9.498539744119998574e+00,-5.774757359180000132e-03,6.735412403940000022e-03,-5.957204848530000402e-03,1.000000000000000000e+00
8.602268889999999946e-01,-2.539722183990000381e+00,-1.024804235260000085e-01,-9.479207267139999615e+00,1.108511257919999986e-02,4.701874218880000046e-03,-5.077182315290000233e-03,1.000000000000000000e+00
8.652629259999999878e-01,-2.558291859900000187e+00,-1.086998094979999968e-01,-9.514666703049998731e+00,-3.911785606759999863e-04,1.079475227740000001e-02,2.891507465390000058e-04,1.000000000000000000e+00
8.702241139999999930e-01,-2.528229606850000089e+00,-1.083903142909999895e-01,-9.474425878080001695e+00,1.117227366190000131e-03,-3.168518422170000289e-03,-4.123026970770000098e-03,1.000000000000000000e+00
8.751418149999999896e-01,-2.547953421240000349e+00,-1.084017581330000007e-01,-9.481198148689999883e+00,1.122059859339999931e-02,-3.498353529719999688e-03,-5.199080333109999674e-03,1.000000000000000000e+00
8.802731919999999821e-01,-2.563658063110000107e+00,-1.155113070109999862e-01,-9.468684704079999293e+00,3.821523860100000183e-03,6.853429600600000580e-03,1.328410115090000038e-02,1.000000000000000000e+00
8.851345160000000378e-01,-2.485099782440000293e+00,-9.530097861749999011e-02,-9.472245026910000476e+00,3.180449362839999922e-03,7.136889733369999704e-03,-1.117605902250000047e-02,1.000000000000000000e+00
8.900771010000000372e-01,-2.573963768540000085e+00,-1.081105566340000018e-01,-9.454467962680000781e+00,7.452197838569999712e-03,8.416424505410000784e-03,-7.489731535320000473e-03,1.000000000000000000e+00
8.950981479999999824e-01,-2.583915838239999818e+00,-9.271597622610000533e-02,-9.457321014019999694e+00,1.647280901670000047e-02,-3.118254709989999509e-03,7.493142038579999817e-03,1.000000000000000000e+00
9.002677580000000290e-01,-2.511190501509999784e+00,-1.119502261290000050e-01,-9.475451129480001455e+00,1.367730088529999811e-02,-4.425292368979999273e-03,-8.077479898930000138e-03,1.000000000000000000e+00
9.053020699999999588e-01,-2.508043435649999875e+00,-1.239098727849999998e-01,-9.478094337459999963e+00,9.531348012389999000e-03,1.283752545709999915e-02,-1.925102248790000123e-02,1.000000000000000000e+00
9.102438330000000022e-01,-2.632394037940000153e+00,-1.036169350090000024e-01,-9.489940258080000746e+00,8.448597043750000549e-03,3.113528247920000023e-03,8.112712763249999015e-03,1.000000000000000000e+00
9.152883779999999581e-01,-2.534964760329999844e+00,-4.429917871999999174e-02,-9.488177924580000422e+00,1.103745028379999986e-02,6.188069470229999938e-03,1.008444745089999948e-02,1.000000000000000000e+00
9.202575990000000372e-01,-2.510731067300000063e+00,-1.177867593960000014e-01,-9.456738830219999059e+00,2.464357530699999924e-03,5.080564878880000764e-04,1.578870927909999935e-03,1.000000000000000000e+00
9.252700440000000137e-01,-2.526576578950000318e+00,-1.080464144900000062e-01,-9.431693820810000517e+00,5.440942011770000600e-03,2.831885777409999527e-02,5.327770486469999873e-05,1.000000000000000000e+00
9.301517280000000110e-01,-2.499868020240000099e+00,-1.310515064340000146e-01,-9.474740350860001215e+00,1.915267854930000069e-02,1.562053896489999996e-02,-1.046169642360000006e-02,1.000000000000000000e+00
9.351313270000000122e-01,-2.505704763569999827e+00,-1.149708799910000023e-01,-9.529346970309999776e+00,6.946073379369999481e-03,9.871762245890000273e-03,-3.917088732120000034e-03,1.000000000000000000e+00
9.402516950000000540e-01,-2.474385203940000277e+00,-7.393007287920000392e-02,-9.459316571749999625e+00,-2.768890699370000368e-04,5.905728787179999849e-03,-1.229476183650000075e-02,1.000000000000000000e+00
9.452480819999999895e-01,-2.518411100409999825e+00,-1.644153948429999956e-01,-9.469392560090000188e+00,9.634354151790001930e-03,1.498432829979999895e-02,1.627456163989999963e-03,1.000000000000000000e+00
9.501147460000000100e-01,-2.480481182730000178e+00,-1.729331756839999901e-01,-9.493080894189999341e+00,1.599884778260000223e-02,1.706099137659999876e-02,-5.721909925339999786e-03,1.000000000000000000e+00
9.552652069999999496e-01,-2.502152624049999829e+00,-1.676761684710000033e-01,-9.426912431760001709e+00,1.323486026379999854e-02,7.807733491060000683e-03,8.483807556329998889e-03,1.000000000000000000e+00
9.602058470000000012e-01,-2.355805147879999950e+00,-2.467006784130000019e-01,-9.445940372829999987e+00,1.117714960130000018e-02,9.634678717699999076e-04,-1.362164155579999748e-03,1.000000000000000000e+00
9.651167470000000526e-01,-2.400809241729999766e+00,-2.912578322150000121e-01,-9.509979422020000683e+00,9.253300726410000621e-03,1.132231205700000038e-03,1.067127566780000023e-02,1.000000000000000000e+00
9.702763100000000307e-01,-2.393302080969999857e+00,-2.412148491459999988e-01,-9.518579492580000689e+00,9.460814297200002138e-03,-4.115335177630000466e-03,-3.905997378749999707e-03,1.000000000000000000e+00
9.752678510000000189e-01,-2.514064887900000045e+00,-1.177432581809999962e-01,-9.436350706709999869e+00,-2.146820072079999760e-03,-1.422701310370000014e-02,8.229800499979999032e-03,1.000000000000000000e+00
9.802624509999999791e-01,-2.518431266420000370e+00,-9.277557005940000046e-02,-9.466689146349999362e+00,1.651865616440000017e-02,-7.864531129600000128e-03,-1.323929894719999903e-02,1.000000000000000000e+00
9.852815689999999682e-01,-2.502924777460000083e+00,-7.616653126099999505e-02,-9.449302542739999922e+00,1.634360104800000255e-02,7.596896961329999663e-03,-1.499940548089999902e-02,1.000000000000000000e+00
9.902865020000000129e-01,-2.504045013670000319e+00,-1.060060312360000118e-01,-9.450999409790000527e+00,1.051896158610000041e-02,-2.831302583219999589e-03,-3.627726808190000121e-03,1.000000000000000000e+00
9.950907310000000061e-01,-2.447726914119999986e+00,-1.577461644790000006e-01,-9.503083817289999402e+00,6.414222531019999479e-03,-6.359005346890000271e-03,-7.281627040360000433e-04,1.000000000000000000e+00
1.000146376000000004e+00,-2.438606326810000002e+00,-1.732427713559999971e-01,-9.506578673669999091e+00,7.857962511480000301e-03,-1.640197634700000032e-02,-2.000769134609999694e-03,1.000000000000000000e+00
1.005111022999999992e+00,-2.487177757760000052e+00,-1.213558683200000043e-01,-9.453377244829999526e+00,2.574939467009999816e-02,-2.777197770770000254e-02,-1.826878450809999929e-02,1.000000000000000000e+00
1.010235814999999926e+00,-2.557256963890000456e+00,-8.224372771620000466e-02,-9.479223049229998921e+00,7.040795404460000947e-03,-1.320446934549999833e-02,-1.072256267070000046e-02,1.000000000000000000e+00
1.015313837000000108e+00,-2.573564247829999818e+00,-4.846374648699999788e-02,-9.424574344199999842e+00,5.961758084600000777e-03,-1.489014085379999908e-02,4.883450455959999909e-03,1.000000000000000000e+00
1.020262113000000026e+00,-2.543213240970000122e+00,-9.266439216930000278e-02,-9.451357137180000478e+00,9.242975153030000626e-03,-9.101811796429999657e-03,-8.777768816799999844e-04,1.000000000000000000e+00
1.025117572000000088e+00,-2.524422323520000067e+00,-1.180137548179999857e-01,-9.478523376529999211e+00,2.466913498940000171e-02,-2.678143978120000115e-02,3.054545028139999969e-03,1.000000000000000000e+00
1.030122455999999964e+00,-2.503695177320000020e+00,-1.188878433720000072e-01,-9.437115845860001073e+00,1.244116015729999913e-02,-2.637911774219999991e-02,2.572085475550000416e-03,1.000000000000000000e+00
1.035248358999999896e+00,-2.479568451800000073e+00,-1.463819538319999780e-01,-9.444655009199999895e+00,2.042382583019999864e-02,-2.088186517359999841e-02,-7.935706526039999536e-05,1.000000000000000000e+00
1.040242324999999912e+00,-2.544992525600000111e+00,-1.070038283680000007e-01,-9.450648112130000555e+00,7.451046723869999763e-03,-2.283554524179999545e-02,5.321712233130000691e-03,1.000000000000000000e+00
1.045248699000000059e+00,-2.516314420390000084e+00,-1.209764131489999978e-01,-9.411489821700000036e+00,1.495938561859999974e-02,-1.786827482279999824e-02,1.530414214359999709e-03,1.000000000000000000e+00
1.050114196000000000e+00,-2.561468444109999965e+00,-1.771664293400000145e-01,-9.465656880689998331e+00,4.494448192419999918e-03,-1.653459481889999957e-02,-5.399004556239999156e-03,1.000000000000000000e+00
1.055121707999999936e+00,-2.521588269140000005e+00,-9.986909025059999279e-02,-9.451825923739999524e+00,1.099471282210000116e-02,-2.006161585449999993e-02,-1.309428736570000112e-02,1.000000000000000000e+00
1.060083652000000098e+00,-2.589585116049999858e+00,-7.826306058220000583e-02,-9.440452881329999713e+00,-6.531567778439999368e-03,-1.318199094379999929e-02,4.201708361509999984e-05,1.000000000000000000e+00
1.065106418000000055e+00,-2.550337978290000418e+00,-1.545878283119999919e-01,-9.457055641080000186e+00,2.806752733890000365e-02,-8.887628093360000134e-03,1.055200584229999943e-03,1.000000000000000000e+00
1.070281253000000099e+00,-2.522258423490000290e+00,-1.568736559610000025e-01,-9.437388233060001852e+00,1.250987872479999985e-02,-1.012360304589999919e-02,-1.257942989470000033e-03,1.000000000000000000e+00
1.075260843999999993e+00,-2.493703944650000004e+00,-2.057410741780000274e-01,-9.433359123680000735e+00,1.941329054529999931e-02,-1.760034449400000103e-02,9.950520470739998222e-04,1.000000000000000000e+00
1.080152352999999898e+00,-2.528940677730000086e+00,-2.119282749130000088e-01,-9.481945752190000576e+00,1.582597754899999973e-02,-2.774116583169999872e-02,-4.526202101260000388e-03,1.000000000000000000e+00
1.085109571999999911e+00,-2.538016841370000165e+00,-1.868277359259999937e-01,-9.466700252260000781e+00,1.020903792229999919e-02,-4.109567031260000398e-03,-3.973003011199999386e-03,1.000000000000000000e+00
1.090101189999999942e+00,-2.487774554610000077e+00,-1.478945594849999934e-01,-9.480535300870000626e+00,1.162406057120000079e-02,-1.330796908589999827e-02,-6.733103655280000014e-04,1.000000000000000000e+00
1.095094333000000031e+00,-2.502394908370000337e+00,-1.303184155200000083e-01,-9.533936051669998690e+00,7.870759814979999894e-03,-2.965954504909999734e-02,-1.790841110049999976e-02,1.000000000000000000e+00
1.100262665999999889e+00,-2.538335698060000034e+00,-1.813557890540000161e-01,-9.508243392010001571e+00,7.424084004010000730e-03,-3.284784033890000149e-02,-7.316006813199999858e-04,1.000000000000000000e+00
1.105044214000000080e+00,-2.576066878300000251e+00,-1.606410091369999960e-01,-9.476764550160000411e+00,3.527123481039999564e-03,-3.715739399190000347e-02,4.177639260890000060e-03,1.000000000000000000e+00
1.109945806000000035e+00,-2.547917473140000055e+00,-1.865651942660000173e-01,-9.441302776160000576e+00,6.646853405979999928e-03,-3.659049421550000097e-02,3.721107030289999649e-03,1.000000000000000000e+00
1.115188660000000054e+00,-2.615610953180000031e+00,-9.875075374519999560e-02,-9.481347786300000635e+00,1.074270531539999948e-02,-3.221559152009999955e-02,1.770363189279999805e-02,1.000000000000000000e+00
1.120053731000000052e+00,-2.465552785929999935e+00,-9.390988045209999746e-02,-9.452889169060000540e+00,1.464729383589999899e-02,-1.965064927940000233e-02,-2.156362123789999988e-02,1.000000000000000000e+00
1.125088002000000031e+00,-2.605303494179999735e+00,-1.699503239479999983e-01,-9.453958844109999760e+00,2.172452630479999869e-03,-1.746292784809999957e-02,-3.016838338230000416e-03,1.000000000000000000e+00
1.130085986000000098e+00,-2.602384391870000258e+00,-2.185241660460000013e-01,-9.438782317770000319e+00,4.323643632229999534e-03,-1.747480407359999766e-02,5.122764967380000027e-03,1.000000000000000000e+00
1.135202355999999968e+00,-2.569126557649999754e+00,-3.560705509259999568e-02,-9.467622043280000455e+00,-5.709147080780000230e-03,-2.188897877929999944e-02,-2.228572266179999761e-03,1.000000000000000000e+00
1.140301256999999957e+00,-2.617880067159999768e+00,-1.952685334069999973e-02,-9.418459076190000445e+00,-2.981947269290000004e-03,-2.286078594620000182e-02,-1.197229698300000117e-02,1.000000000000000000e+00
1.145233519000000033e+00,-2.611675659559999918e+00,-1.696682556040000067e-01,-9.431755195610001863e+00,1.231085136529999971e-02,-1.524012815210000135e-02,-2.954911207780000406e-03,1.000000000000000000e+00
1.150294826000000104e+00,-2.592937349080000065e+00,-1.245351011449999934e-01,-9.433678857150001207e+00,-6.340749096130000352e-04,-1.867723651230000087e-02,3.589285304769999820e-03,1.000000000000000000e+00
1.155282037000000095e+00,-2.541609897429999876e+00,-1.057663315960000044e-01,-9.452519166700000142e+00,-3.185740206390000199e-04,-8.127636276189998538e-03,-1.878761453549999917e-03,1.000000000000000000e+00
1.160227152000000039e+00,-2.617728091470000074e+00,-1.266672086689999976e-01,-9.419527582200000637e+00,-5.947305820880000211e-03,-1.475130114700000036e-02,-3.841249272230000508e-04,1.000000000000000000e+00
1.165134206000000061e+00,-2.581465814740000031e+00,-2.004116045169999916e-01,-9.407871046680000404e+00,-1.422061398630000001e-02,-1.530433818699999948e-02,-3.326977137479999666e-03,1.000000000000000000e+00
1.170101771999999984e+00,-2.602084532140000128e+00,-1.659650902370000125e-01,-9.406239061560000891e+00,-7.827173918490000840e-03,-1.290559768680000011e-02,1.306996587660000028e-02,1.000000000000000000e+00
1.175127626000000092e+00,-2.544104929109999969e+00,-1.903866339840000199e-01,-9.473290736570000092e+00,-1.453993190079999782e-02,-1.236475352200000141e-02,7.253916002810000506e-03,1.000000000000000000e+00
1.180135729999999938e+00,-2.575024675770000382e+00,-1.437282061859999904e-01,-9.449267471429999787e+00,-7.344464305790000293e-03,-4.977320786569999593e-03,8.468775078649999274e-03,1.000000000000000000e+00
1.185113206000000030e+00,-2.570389124930000158e+00,-1.698369267020000128e-01,-9.447525011669998918e+00,-9.012778289620000660e-03,8.971288800240000139e-03,1.006609061729999907e-03,1.000000000000000000e+00
1.190111641000000109e+00,-2.545287416899999933e+00,-1.936439004799999919e-01,-9.440813531339999898e+00,-2.060155011709999609e-02,-3.993890248239999677e-03,-8.459459058939999485e-03,1.000000000000000000e+00
1.195276970000000105e+00,-2.548743694829999740e+00,-1.928512705319999909e-01,-9.468354449210000467e+00,-1.782091706990000107e-02,3.782782237980000014e-03,6.375665776430000133e-03,1.000000000000000000e+00
1.200189804000000082e+00,-2.500104751609999898e+00,-1.583886636329999986e-01,-9.473286644919999944e+00,-2.202086616309999797e-03,-1.436306349929999948e-02,-5.140906199809999917e-03,1.000000000000000000e+00
1.205250192000000053e+00,-2.523132283709999868e+00,-1.845868616640000126e-01,-9.474453350610001934e+00,-1.446992158889999838e-02,1.460241153840000127e-03,-2.084853826090000018e-03,1.000000000000000000e+00
1.210251897000000021e+00,-2.561252171010000023e+00,-1.201391220749999933e-01,-9.464321832699999604e+00,-2.644248865540000173e-02,-8.949341252450001422e-03,2.041521714999999879e-03,1.000000000000000000e+00
1.215296579999999960e+00,-2.591008426850000212e+00,-1.437809136209999838e-01,-9.460811194230000609e+00,-1.831566728649999809e-02,-3.569014370440000200e-05,4.677584394810000920e-03,1.000000000000000000e+00
1.220107349999999924e+00,-2.555607735379999745e+00,-1.357263389780000162e-01,-9.471848136549999353e+00,-2.774734422559999719e-02,1.282082404940000078e-03,1.432772260160000005e-02,1.000000000000000000e+00
1.225095851000000069e+00,-2.536121529149999887e+00,-1.260444097289999954e-01,-9.463962351730000222e+00,-1.947639882559999702e-02,2.002999652179999774e-03,1.012936700140000046e-04,1.000000000000000000e+00
1.230123156999999967e+00,-2.572188575570000246e+00,-1.558793111610000115e-01,-9.474538690810000219e+00,-1.740011572840000076e-02,6.700963713229999251e-03,5.223906598989999477e-03,1.000000000000000000e+00
1.235053756999999974e+00,-2.458589084390000234e+00,-1.567300462389999982e-01,-9.532268995239999043e+00,-1.243500970299999883e-02,-1.037523895499999939e-02,2.362665487449999973e-03,1.000000000000000000e+00
1.240076130000000054e+00,-2.543050743890000298e+00,-1.191034406179999894e-01,-9.476642969610001188e+00,-9.851016104219999583e-03,-5.836867727339999784e-03,3.909884020689999816e-03,1.000000000000000000e+00
1.245077731999999937e+00,-2.557856391090000070e+00,-1.356139737779999965e-01,-9.464307804169999727e+00,-1.928923465310000002e-02,-1.396456174550000061e-02,8.008877746760000374e-03,1.000000000000000000e+00
1.250281176999999966e+00,-2.570648068130000130e+00,-1.389629645460000174e-01,-9.441442476889998048e+00,-6.083400221540000629e-04,-1.063366606829999929e-02,1.558431331070000113e-02,1.000000000000000000e+00
1.255119491000000087e+00,-2.612260181449999941e+00,-9.606381621610000920e-02,-9.466762796110000266e+00,-1.869447156790000203e-02,-8.715564385059999808e-03,1.988986739889999841e-03,1.000000000000000000e+00
1.260242875999999956e+00,-2.577164025890000154e+00,-1.287772778919999972e-01,-9.498954170139999320e+00,-1.117620617150000099e-02,-5.958543624729999676e-03,1.593928225339999796e-02,1.000000000000000000e+00
1.265278531999999956e+00,-2.577172501459999765e+00,-1.633281110629999922e-01,-9.518094923939999674e+00,1.484804414210000138e-02,-1.244085654620000203e-02,1.433079782870000027e-02,1.000000000000000000e+00
1.270265924000000046e+00,-2.565999950059999701e+00,-1.343925239579999986e-01,-9.468529805780001141e+00,5.263940547589999758e-04,2.695786766710000105e-03,1.282453443860000035e-02,1.000000000000000000e+00
1.275109081000000089e+00,-2.593082310509999822e+00,-9.383428533210000366e-02,-9.465686691310001066e+00,-5.022554658350000638e-03,-1.018532179299999965e-02,1.204355247320000079e-02,1.000000000000000000e+00
1.280090897000000005e+00,-2.581032684020000190e+00,-1.462329098830000007e-01,-9.470265835790000253e+00,-4.238515160980000154e-03,-1.985082030299999828e-02,8.342328481379999647e-03,1.000000000000000000e+00
1.285132010000000102e+00,-2.617757902090000144e+00,-1.100020329370000050e-01,-9.420657463010000399e+00,-1.082281861449999917e-02,-9.947948157790001411e-03,6.651343777779999793e-03,1.000000000000000000e+00
1.290111331000000083e+00,-2.596763044850000313e+00,-4.964627536899999388e-02,-9.437885661190000164e+00,-2.043834654609999902e-03,8.772389031950000166e-03,1.669129543010000258e-02,1.000000000000000000e+00
1.295107817999999966e+00,-2.605333012540000048e+00,-1.091486127110000010e-01,-9.455537053220000487e+00,-1.152971200639999957e-02,-2.122862031679999869e-03,1.350378710779999783e-02,1.000000000000000000e+00
1.300144995999999997e+00,-2.527131290220000270e+00,-1.202331570340000044e-01,-9.467265484929999531e+00,-6.688031367959999807e-03,1.249357312920000226e-02,9.989758022129998846e-03,1.000000000000000000e+00
1.305090211000000000e+00,-2.535676415729999800e+00,-7.490046598110000620e-02,-9.460985381749999590e+00,4.506207536909999888e-03,5.859510041769999851e-03,-3.772464115169999192e-04,1.000000000000000000e+00
1.310230231000000023e+00,-2.562873342470000093e+00,-1.056575739920000007e-01,-9.441663426159999872e+00,-9.126394987110000856e-03,-2.926198299969999875e-03,2.895923098550000092e-03,1.000000000000000000e+00
1.315127146000000025e+00,-2.556989837390000186e+00,-1.404468829599999913e-01,-9.475990058660000770e+00,-1.083836657930000108e-03,-2.557305153460000084e-03,2.834723098199999711e-03,1.000000000000000000e+00
1.320094177000000091e+00,-2.584312728600000053e+00,-1.020918717329999947e-01,-9.452850590610001547e+00,-1.164009515200000074e-02,-2.498801797630000390e-03,3.631530562420000330e-03,1.000000000000000000e+00
1.325104674999999954e+00,-2.544172441390000206e+00,-1.535740481600000040e-01,-9.479573177839998976e+00,-1.250581908970000052e-02,5.304057151080000115e-03,-1.248239772390000212e-03,1.000000000000000000e+00
1.330112492000000035e+00,-2.561680333290000444e+00,-7.967373109780000184e-02,-9.472214631769999116e+00,-7.968040183189998779e-03,3.560731187459999919e-03,-1.000340096649999892e-02,1.000000000000000000e+00
1.335269738999999900e+00,-2.590228090129999661e+00,-7.937684877669999584e-02,-9.435411964550000974e+00,-2.726796083149999814e-02,-9.406561963260000325e-03,-1.097573549490000067e-03,1.000000000000000000e+00
1.340237863000000029e+00,-2.573428931020000032e+00,-1.321607006520000016e-01,-9.469664362769998789e+00,-2.013701014219999863e-02,-4.903235472739999636e-03,2.072362229230000075e-02,1.000000000000000000e+00
1.345068670000000077e+00,-2.540628192919999861e+00,-7.262041961930000566e-02,-9.472897353340000492e+00,-2.064862661059999743e-02,1.011161133649999926e-03,1.227338984609999996e-02,1.000000000000000000e+00
1.350270437999999906e+00,-2.519404203100000128e+00,-1.284264642940000090e-01,-9.467312246680000598e+00,-1.297327503560000150e-02,2.044160477820000307e-02,-1.415894553070000221e-02,1.000000000000000000e+00
1.355271947999999949e+00,-2.605465991270000004e+00,-1.008670152470000081e-01,-9.449247013160000819e+00,-4.356460645789999968e-03,6.749114021659999817e-03,-3.171860473229999762e-03,1.000000000000000000e+00
1.360245989999999905e+00,-2.603496737020000396e+00,-7.592696405119998826e-02,-9.453051666140000364e+00,-1.212170999499999867e-02,5.138403736050000184e-03,7.621373981239999706e-03,1.000000000000000000e+00
1.365106866999999946e+00,-2.589821847410000100e+00,-9.718900258749998966e-02,-9.443979886410000191e+00,2.353859599679999860e-04,5.254838615659999934e-03,1.519765472039999931e-03,1.000000000000000000e+00
1.370030982999999924e+00,-2.589473180099999716e+00,-8.423269131010001354e-02,-9.447267822040000596e+00,-4.008513875309999835e-03,2.170908264820000169e-02,9.376086294649999334e-03,1.000000000000000000e+00
1.375080469000000027e+00,-2.581622174340000075e+00,-9.849410296980000423e-02,-9.454880050610000808e+00,-4.067589063199999848e-03,7.858203724030000253e-03,2.117700176310000158e-03,1.000000000000000000e+00
1.380070971999999951e+00,-2.588462834019999992e+00,-1.294139683609999980e-01,-9.456853396510000564e+00,-1.994894118979999992e-03,2.665674127640000127e-02,-4.956564400350000656e-03,1.000000000000000000e+00
1.385065870999999893e+00,-2.585928639370000059e+00,-1.341346036739999859e-01,-9.438710421579999732e+00,-8.659044979139999838e-04,3.138021379710000114e-02,3.746844129639999733e-03,1.000000000000000000e+00
1.390070818000000097e+00,-2.564998956320000190e+00,-1.129722443859999953e-01,-9.469712878080001062e+00,5.252568516880000600e-03,2.358524687590000252e-02,-1.142555265690000125e-03,1.000000000000000000e+00
1.395070346000000017e+00,-2.551654906100000009e+00,-1.153681174139999932e-01,-9.464253443629999651e+00,-7.033342961220000016e-03,2.305125258859999984e-02,-3.698566230010000115e-03,1.000000000000000000e+00
1.400256889000000005e+00,-2.521315881940000114e+00,-6.338680952639999533e-02,-9.494050031480000484e+00,-4.740037024020000295e-03,4.016208648680000270e-02,-7.910608313979999515e-03,1.000000000000000000e+00
1.405270318999999990e+00,-2.541499422790000295e+00,-5.169198325190000470e-02,-9.519051201749999080e+00,-1.628072559829999919e-02,2.918502129609999718e-02,-4.217039328069999669e-03,1.000000000000000000e+00
1.410230886999999989e+00,-2.562338504940000039e+00,-1.370898367510000049e-01,-9.504365089269999345e+00,1.865746080879999991e-02,1.315473206340000110e-02,-6.441366393120000547e-03,1.000000000000000000e+00
1.415242072999999934e+00,-2.550336224720000100e+00,-9.652824625689999938e-02,-9.480324872989999818e+00,6.409526336939999798e-03,1.871732436120000093e-02,-2.216264838350000006e-03,1.000000000000000000e+00
1.420268848000000084e+00,-2.529004390619999931e+00,-1.023567423480000044e-01,-9.467122861589999161e+00,4.731976892800000313e-03,2.100070752199999918e-02,-9.506192989649999217e-03,1.000000000000000000e+00
1.425122318000000110e+00,-2.560625855800000128e+00,-1.369580270649999876e-01,-9.486647646269998901e+00,2.808906836440000498e-03,3.368327021600000387e-02,-9.522719308729998833e-03,1.000000000000000000e+00
1.430109524999999993e+00,-2.521047878650000129e+00,-1.345290189519999791e-01,-9.463996253999999553e+00,1.104142423720000030e-02,4.985976219180000141e-02,-8.915335871280001198e-03,1.000000000000000000e+00
1.435275260000000053e+00,-2.464684478660000178e+00,-1.219234938739999913e-01,-9.507839487380000065e+00,5.872916895899999747e-03,2.707084640859999669e-02,-2.298221923409999798e-02,1.000000000000000000e+00
1.440231486999999921e+00,-2.531496791949999992e+00,-1.411473959129999900e-01,-9.533691136999999927e+00,1.803726516659999793e-02,1.707602478560000039e-02,-7.452805526550000496e-03,1.000000000000000000e+00
1.445134072000000103e+00,-2.482118428540000199e+00,-1.364635398119999898e-01,-9.529829200870000960e+00,2.400771528479999847e-02,2.589760534470000181e-02,-1.800552126949999960e-03,1.000000000000000000e+00
1.450263502999999954e+00,-2.544573715669999903e+00,-1.335999214090000109e-01,-9.496071308180001225e+00,2.993795089420000013e-02,2.593385800720000162e-02,8.315783925349999953e-03,1.000000000000000000e+00
1.455127196999999928e+00,-2.508855921079999884e+00,-1.145904019069999974e-01,-9.493023026519999519e+00,6.500435527409999942e-03,1.651824265720000171e-02,7.086073048409999992e-03,1.000000000000000000e+00
1.460205289999999989e+00,-2.492122228419999974e+00,-1.849549277910000067e-01,-9.496195811339999793e+00,2.577178739009999831e-02,2.627723477779999803e-02,1.993046700949999833e-02,1.000000000000000000e+00
1.465124088000000047e+00,-2.510276601529999763e+00,-1.512734339340000012e-01,-9.475727023810000205e+00,2.604530565440000070e-02,1.728638075289999979e-02,1.366058830169999960e-02,1.000000000000000000e+00
1.470106839000000054e+00,-2.549507372679999939e+00,-1.213662618500000040e-01,-9.470172312289999894e+00,2.520188502970000313e-02,1.555377431210000147e-02,9.954283013940001465e-03,1.000000000000000000e+00
1.475196565999999931e+00,-2.610115570640000104e+00,-9.989322917800000368e-02,-9.473182015499999054e+00,3.020186163490000061e-02,1.457566767929999868e-02,2.451401390140000094e-02,1.000000000000000000e+00
1.480043191000000036e+00,-2.550229549480000024e+00,-1.426088193679999894e-01,-9.455379232310001214e+00,3.922211006280000578e-02,2.791516482830000076e-02,1.553926523770000033e-02,1.000000000000000000e+00
1.484971371000000095e+00,-2.515507195659999695e+00,-1.917353269130000204e-01,-9.477836563310001239e+00,3.670793771740000350e-02,-4.338153637949999225e-03,1.220494415609999980e-02,1.000000000000000000e+00
1.490079404999999912e+00,-2.510766138609999754e+00,-1.965258491250000128e-01,-9.474710540239998480e+00,2.770475111900000051e-02,6.719171069560001333e-03,1.496151741590000077e-02,1.000000000000000000e+00
1.495290226999999916e+00,-2.526446230569999951e+00,-1.820993008979999994e-01,-9.465842174129999620e+00,2.174385078249999742e-02,7.491292431950000164e-03,1.486314553770000033e-02,1.000000000000000000e+00
1.500096418999999903e+00,-2.486771807299999804e+00,-1.345875076739999898e-01,-9.463326391919999026e+00,3.719984740019999930e-02,1.771272532639999939e-02,7.134946994479999735e-03,1.000000000000000000e+00
1.505094189000000027e+00,-2.499263916869999935e+00,-4.655874854930000528e-02,-9.467196511350000065e+00,1.166154816750000073e-02,5.506634712220000692e-03,-2.213320694859999629e-04,1.000000000000000000e+00
1.510097878999999921e+00,-2.580261699649999851e+00,-1.094513037189999982e-01,-9.475669156140000382e+00,2.648357674480000118e-02,1.409226655960000088e-02,2.081167185680000108e-03,1.000000000000000000e+00
1.515101956999999944e+00,-2.516572194540000140e+00,-1.872119494699999998e-01,-9.497481174980000773e+00,1.591877825560000098e-02,1.351619325580000024e-02,8.452517911790000810e-03,1.000000000000000000e+00
1.520147981999999898e+00,-2.474398940199999952e+00,-1.226829522059999927e-01,-9.452187742789998737e+00,2.871262654659999941e-02,3.045930154620000302e-02,6.734988652170000208e-03,1.000000000000000000e+00
1.525152336000000108e+00,-2.517538409229999719e+00,-1.191206748799999993e-01,-9.471202824380000607e+00,2.131606452169999832e-02,3.108621574939999903e-03,4.433560185129999456e-03,1.000000000000000000e+00
1.530093941000000068e+00,-2.515225163849999834e+00,-1.618327762050000007e-01,-9.467858774650000697e+00,1.362164597960000001e-02,-7.740983273830000233e-04,-1.037568226460000055e-02,1.000000000000000000e+00
1.535244657000000013e+00,-2.550274557659999886e+00,-9.023552105460001804e-02,-9.430935695920000583e+00,1.765598170460000102e-02,2.972873859109999989e-02,5.535917356609999784e-03,1.000000000000000000e+00
1.540253274999999977e+00,-2.528626204950000123e+00,-1.485565944569999797e-01,-9.443085567919998979e+00,9.175473824139999263e-03,2.190289646390000330e-02,7.577422074969998849e-04,1.000000000000000000e+00
1.545071158000000056e+00,-2.487478494270000340e+00,-1.927825526770000075e-01,-9.445545236030000069e+00,3.100410802290000118e-03,9.501274675129999306e-03,2.691513160240000067e-03,1.000000000000000000e+00
1.550109482000000094e+00,-2.543511347140000378e+00,-1.817771562720000011e-01,-9.431076565699999747e+00,7.153429905880000781e-04,9.184379130600000760e-03,8.293645456430000229e-03,1.000000000000000000e+00
1.555100233000000109e+00,-2.492856680180000062e+00,-1.888293946040000004e-01,-9.411441890900000828e+00,9.136295877399999016e-03,3.298488445579999683e-04,2.385254483670000327e-04,1.000000000000000000e+00
1.560048864000000091e+00,-2.596920281240000072e+00,-1.628420628460000019e-01,-9.460909393899999742e+00,9.121187613349999914e-04,1.257955655460000002e-02,1.000442821529999929e-02,1.000000000000000000e+00
1.565070224000000065e+00,-2.470727850479999876e+00,-1.590598774260000015e-01,-9.402477078680000488e+00,1.145844068379999782e-02,1.755159534510000036e-02,-2.972287824380000134e-03,1.000000000000000000e+00
1.570123044000000023e+00,-2.506984866509999854e+00,-1.819010201130000226e-01,-9.432018814980001054e+00,1.094593759630000003e-02,1.369210146370000020e-02,4.761654417960000307e-04,1.000000000000000000e+00
1.575112746000000064e+00,-2.457590136479999909e+00,-1.752432061919999839e-01,-9.472483511839998371e+00,-9.999134577809999300e-03,2.059566974640000131e-02,-2.961546415460000400e-03,1.000000000000000000e+00
1.580097410000000036e+00,-2.479526366220000000e+00,-1.896135307190000008e-01,-9.493180262910000167e+00,5.693835671989999625e-03,2.406562119720000170e-02,-6.950153969229999791e-03,1.000000000000000000e+00
1.585234465999999953e+00,-2.564416188000000041e+00,-1.210166446949999947e-01,-9.426282317160000090e+00,3.883416065950000338e-04,1.317568868400000037e-02,1.276650233189999912e-03,1.000000000000000000e+00
1.590118201999999981e+00,-2.511538292030000008e+00,-1.082345940059999956e-01,-9.444268055700000275e+00,8.336408995089999996e-03,1.116540655490000020e-02,3.364853793760000118e-03,1.000000000000000000e+00
1.595101638999999905e+00,-2.508484749680000014e+00,-1.439667459160000051e-01,-9.451081827370000354e+00,4.890542011710000483e-03,1.756037212909999923e-02,2.373256022110000266e-03,1.000000000000000000e+00
1.600197515999999931e+00,-2.483240418309999864e+00,-1.406831028690000152e-01,-9.484472640319999925e+00,1.329027023170000106e-02,1.008210796860000043e-02,-1.212024595589999976e-02,1.000000000000000000e+00
1.605086967999999947e+00,-2.516437462249999868e+00,-1.331930485080000115e-01,-9.431688560119999565e+00,-1.232723146680000069e-02,1.313906349239999868e-02,5.087911151349999890e-03,1.000000000000000000e+00
1.610212911999999941e+00,-2.470078154399999892e+00,-1.345359236170000083e-01,-9.461820079009999773e+00,-1.215952914210000069e-02,8.571589365600000912e-03,-1.664507202800000196e-02,1.000000000000000000e+00
1.615113255000000025e+00,-2.514544780370000066e+00,-1.264548993590000059e-01,-9.487142151789999645e+00,-4.573922604319999655e-03,2.101489529009999829e-02,-1.201349776240000049e-02,1.000000000000000000e+00
1.620093189000000100e+00,-2.523632634449999745e+00,-1.370727577520000073e-01,-9.478605209590000413e+00,7.237352430819999315e-03,1.735425926740000180e-02,-4.653881769630000692e-03,1.000000000000000000e+00
1.625104238000000034e+00,-2.509474345240000126e+00,-1.132704510150000093e-01,-9.467522674560001406e+00,-1.526604499669999976e-02,1.713715028019999935e-03,7.286886684600001052e-03,1.000000000000000000e+00
1.630080576999999975e+00,-2.524068980040000021e+00,-1.033294141719999920e-01,-9.437608013289999320e+00,-7.597598014400000184e-04,1.269142050299999942e-02,3.002485493199999987e-03,1.000000000000000000e+00
1.635097484000000101e+00,-2.503087274550000352e+00,-8.314089575170000024e-02,-9.435761508639998851e+00,-9.756060317160000078e-03,1.851448602969999954e-02,-5.100384354590000065e-03,1.000000000000000000e+00
1.640106178999999997e+00,-2.528966688950000208e+00,-9.156698885410001487e-02,-9.445379816339999124e+00,-4.667027853430000088e-03,3.653515595940000772e-04,2.347437432040000091e-03,1.000000000000000000e+00
1.645082391999999949e+00,-2.514363286320000057e+00,-1.271971142949999967e-01,-9.441387531830001123e+00,-3.992314450439999815e-03,1.319087110460000125e-03,-3.782024141399999715e-04,1.000000000000000000e+00
1.650097351000000101e+00,-2.545791274770000001e+00,-7.722864863369999222e-02,-9.456125666760001991e+00,-9.353690780700000748e-03,1.958073116840000280e-02,-6.819482892749999768e-03,1.000000000000000000e+00
1.655042713999999915e+00,-2.547918057659999569e+00,-2.918843620490000138e-02,-9.386074809930001095e+00,2.715693553909999825e-04,5.153489299119999416e-03,8.448692969979999801e-03,1.000000000000000000e+00
1.660045586999999934e+00,-2.482939389529999819e+00,-9.628529521339999897e-02,-9.433903898080000516e+00,5.444948561490000130e-03,1.299968361849999920e-02,9.488819632679999219e-04,1.000000000000000000e+00
1.665072051000000108e+00,-2.439501814350000242e+00,-6.585378416180000249e-02,-9.486903082339999571e+00,1.375403953719999978e-03,1.748635433610000109e-02,-2.363936975599999907e-02,1.000000000000000000e+00
1.670021806999999914e+00,-2.588224641350000077e+00,-7.241755855760000082e-02,-9.439038338360001390e+00,1.241021044549999938e-02,1.582641154529999816e-02,5.040612071749999909e-03,1.000000000000000000e+00
1.675230087000000090e+00,-2.494617260109999624e+00,-1.382609446230000094e-01,-9.473016595800000772e+00,1.550990995020000082e-02,1.006597746159999980e-02,4.314471036199999873e-03,1.000000000000000000e+00
1.680094055000000086e+00,-2.429689299250000101e+00,-2.335345237770000137e-01,-9.468805115589999488e+00,1.104284077880000013e-02,2.735898830000000129e-02,-7.717863656579999725e-03,1.000000000000000000e+00
1.685100961999999925e+00,-2.489116032340000118e+00,-2.293991044729999929e-01,-9.416600296580000418e+00,9.592967107889999873e-03,1.665669493379999880e-02,-5.817890632899999810e-03,1.000000000000000000e+00
1.690094382000000062e+00,-2.468323127420000151e+00,-1.979823132769999994e-01,-9.495676755899999932e+00,-9.361130185429999973e-03,1.804657094180000046e-02,-1.254362706090000022e-02,1.000000000000000000e+00
1.695083649999999942e+00,-2.488261461340000036e+00,-1.331953317960000160e-01,-9.433934877739998726e+00,1.077692490070000092e-02,2.377688139679999882e-02,-1.213961467149999966e-02,1.000000000000000000e+00
1.700154806000000018e+00,-2.527874217539999968e+00,-1.140103278629999994e-01,-9.432894428770000061e+00,1.151382736860000026e-02,1.643239706750000001e-02,-1.212301757190000114e-02,1.000000000000000000e+00
1.705110901000000068e+00,-2.524697341069999990e+00,-1.790133906470000036e-01,-9.374677217609999502e+00,-9.067764505740000952e-03,1.175843458620000163e-02,-1.371042686509999940e-03,1.000000000000000000e+00
1.710080604000000060e+00,-2.459167176540000277e+00,-1.631018828259999942e-01,-9.303395942199999880e+00,3.472528886050000631e-03,-1.199554069900000096e-03,-7.104128599169999904e-06,1.000000000000000000e+00
1.715107833000000026e+00,-2.417241759479999974e+00,-1.748776242829999938e-01,-9.403956503579999904e+00,-3.154322621409999723e-04,1.594578288499999899e-02,8.416136726740000920e-03,1.000000000000000000e+00
1.720089132000000021e+00,-2.348512360520000009e+00,-1.714409643650000037e-01,-9.556671615089999960e+00,-1.744404202329999723e-03,3.890975564719999918e-02,-1.838305592540000200e-02,1.000000000000000000e+00
1.725113531000000089e+00,-2.562001235809999500e+00,-7.396912168139999078e-02,-9.481900159480000312e+00,-1.108250115070000090e-02,1.705959066749999919e-02,-4.368974827229999205e-03,1.000000000000000000e+00
1.730091245999999972e+00,-2.443575493530000031e+00,-8.754464713600000614e-02,-9.501150803399999845e+00,-5.153353791680000476e-03,-2.996169030670000309e-03,-4.511795472350000995e-03,1.000000000000000000e+00
1.735223280000000035e+00,-2.627551566349999757e+00,-1.185118222670000082e-01,-9.436484562220000427e+00,5.851380992679999608e-03,5.650864914059999800e-03,5.408623255789998981e-03,1.000000000000000000e+00
1.740092568999999978e+00,-2.421285481910000037e+00,-8.191274219619999741e-02,-9.397588137589998780e+00,-4.036666825409999416e-03,1.579594053329999928e-02,-2.854811726139999759e-03,1.000000000000000000e+00
1.745230526999999920e+00,-2.417933248879999830e+00,-5.412356234690000184e-02,-9.468175585510001824e+00,-6.590005941689998890e-03,1.312791556120000008e-02,8.043109439310001246e-03,1.000000000000000000e+00
1.750121993000000042e+00,-2.514514092970000281e+00,-6.335705370890000465e-02,-9.478223516799999970e+00,1.238421536979999842e-02,1.343843154610000097e-02,1.563245616850000158e-02,1.000000000000000000e+00
1.755081483999999969e+00,-2.460368953549999738e+00,-1.351440729780000183e-01,-9.382730175680000784e+00,-5.834326148030000072e-04,1.770210079850000062e-02,3.698454471310000033e-03,1.000000000000000000e+00
1.760089430999999927e+00,-2.421152210919999881e+00,-2.594289348209999901e-01,-9.426431370239999552e+00,1.289398036900000002e-02,2.115293778479999942e-02,5.791706498709999493e-04,1.000000000000000000e+00
1.765099025999999904e+00,-2.344496402879999941e+00,-3.035861843199999521e-01,-9.406082409690000645e+00,5.518198478970000147e-03,4.898097831759999762e-04,4.400771111250000034e-03,1.000000000000000000e+00
1.770114568000000110e+00,-2.512790045659999638e+00,-1.344407561470000179e-01,-9.453295996289998726e+00,9.720918023960000267e-05,1.763255521659999950e-02,1.408637734130000190e-03,1.000000000000000000e+00
1.774939696999999983e+00,-2.292273171420000200e+00,2.730731461649999955e-02,-9.499240585860000863e+00,-6.774918176229999776e-03,7.886852137739999713e-03,1.326509052890000127e-03,1.000000000000000000e+00
1.779925629999999925e+00,-2.372624180729999921e+00,-6.165376605550000610e-02,-9.520151271950000549e+00,-2.446570061149999989e-02,-1.025837101039999907e-02,-1.894165389240000039e-02,1.000000000000000000e+00
1.784943608999999931e+00,-2.580297063220000187e+00,-1.231229967239999973e-01,-9.540223753639999416e+00,-1.477117475589999687e-04,-4.455486778169999939e-04,-1.255775056779999919e-02,1.000000000000000000e+00
1.789833597000000109e+00,-2.456772974880000238e+00,-1.604040768430000097e-01,-9.393616311349999748e+00,-1.282486016859999941e-03,7.891112007199999751e-03,2.915831282730000132e-04,1.000000000000000000e+00
1.794968037000000072e+00,-2.528121178040000139e+00,-1.281961261370000160e-01,-9.419873034640000142e+00,1.099991705270000029e-02,-1.809518784279999862e-02,3.993140533569999873e-03,1.000000000000000000e+00
1.799953233999999958e+00,-2.547782740840000226e+00,3.808556033559999665e-02,-9.469643904499999820e+00,-9.032295201909999434e-05,-3.323897719379999977e-02,-9.040434844790000077e-03,1.000000000000000000e+00
1.805015252000000014e+00,-2.275635486490000137e+00,8.682342018930001848e-02,-9.481484564419998762e+00,2.484278194609999824e-02,-2.305696345869999789e-02,-1.840270822869999974e-03,1.000000000000000000e+00
1.810037370000000090e+00,-2.331005053140000172e+00,-5.636761494669999956e-02,-9.565335983060000657e+00,1.106814295050000119e-02,-6.574002094570000065e-03,-4.918559920040000213e-03,1.000000000000000000e+00
1.814945735000000004e+00,-2.384585252159999946e+00,-1.396716882039999996e-01,-9.449061719719999530e+00,1.813667453830000026e-02,-4.822444915770000146e-02,-7.149761077019999673e-04,1.000000000000000000e+00
1.819858610000000043e+00,-2.190173856169999933e+00,-2.159978989720000020e-01,-9.391015773470000383e+00,3.494049981240000130e-02,-6.596639752390000278e-02,4.480313509699999745e-03,1.000000000000000000e+00
1.824796113999999969e+00,-2.191422248799999917e+00,-2.287450975429999867e-01,-9.483224101559999397e+00,4.674931615590000727e-02,-7.646809518339998946e-02,1.801034621890000229e-02,1.000000000000000000e+00
1.830009551999999928e+00,-2.113780060059999855e+00,-1.746201971889999871e-01,-9.538227611379999971e+00,1.893124729390000330e-02,-6.943107396360000128e-02,8.187012746930000945e-03,1.000000000000000000e+00
1.835007674999999949e+00,-2.163573287879999807e+00,-2.370823889840000254e-01,-9.617112932050000396e+00,2.230761200190000196e-02,-9.540548175570000289e-02,1.338232029229999981e-02,1.000000000000000000e+00
1.840033878000000067e+00,-2.207338049199999652e+00,-1.951754391629999807e-01,-9.605265842389998809e+00,5.977883934969999667e-03,-1.084710210559999971e-01,1.626186631620000003e-02,1.000000000000000000e+00
1.845048175999999929e+00,-2.299383295690000217e+00,-4.266123878719999540e-01,-9.588696984910001220e+00,6.033817771819999752e-03,-1.396277248860000042e-01,1.420318614690000043e-02,1.000000000000000000e+00
1.849917961999999916e+00,-2.399048223399999902e+00,-7.029028429820000090e-01,-9.514588961639999454e+00,-1.101178117100000018e-03,-1.599333435299999939e-01,3.276822343470000426e-02,1.000000000000000000e+00
1.854957511999999920e+00,-2.355130025090000245e+00,-7.874703740039999955e-01,-9.521586857710000018e+00,-2.925377804790000105e-03,-1.524314135310000096e-01,3.676735609769999497e-02,1.000000000000000000e+00
1.861079327999999977e+00,-2.373604423940000263e+00,-5.173618954640000211e-01,-9.508152206589999267e+00,-1.353801786899999984e-02,-1.530370712280000045e-01,5.244380980729999864e-02,1.000000000000000000e+00
1.865081760000000033e+00,-2.385392623019999991e+00,-3.955898018930000259e-01,-9.457653022460000614e+00,-3.772934153680000680e-02,-1.486590802670000044e-01,7.278797030450000205e-02,1.000000000000000000e+00
1.870057823000000008e+00,-2.420370412900000101e+00,-4.556607877019999697e-01,-9.542031679839999114e+00,-5.066294595599999534e-02,-1.680874377490000071e-01,9.211213886739999523e-02,1.000000000000000000e+00
1.875070181999999974e+00,-2.362130989900000255e+00,-1.421254562979999969e-01,-9.586817747030000447e+00,-4.805062338709999853e-02,-1.702345013619999958e-01,9.524494409560001207e-02,1.000000000000000000e+00
1.880063344000000081e+00,-2.632682791760000196e+00,-1.857863188479999816e-01,-9.511293427230000930e+00,-4.308041930200000313e-02,-2.149769514800000114e-01,1.105059161779999855e-01,1.000000000000000000e+00
1.885063254000000077e+00,-2.718108035590000249e+00,-2.134218014060000057e-01,-9.446222696900001381e+00,-3.939093276859999965e-02,-2.029421180490000309e-01,1.197523847220000048e-01,1.000000000000000000e+00
1.890062942999999995e+00,-2.580450500219999999e+00,-7.337635255319999161e-02,-9.440618885550000172e+00,-1.224261987950000033e-02,-2.133293747900000259e-01,1.099801510569999863e-01,1.000000000000000000e+00
1.895037695000000078e+00,-2.651745511879999739e+00,4.771088000970000707e-03,-9.491779163939998654e+00,-2.166606485840000262e-02,-1.828073412180000190e-01,1.242826059459999910e-01,1.000000000000000000e+00
1.900038794999999947e+00,-2.623591430540000324e+00,3.459507873819999552e-02,-9.622945875990000175e+00,-1.985543780029999997e-02,-1.747380048040000078e-01,1.193873137240000076e-01,1.000000000000000000e+00
1.905074992999999939e+00,-2.551924662959999868e+00,-2.469767736740000053e-01,-9.553902150379999014e+00,-2.488228492440000203e-02,-1.930085122590000091e-01,1.160311698909999995e-01,1.000000000000000000e+00
1.910060013999999917e+00,-2.542093004769999887e+00,-1.544166912619999998e-01,-9.556184708360000002e+00,-2.257274836300000170e-02,-1.927158981560000151e-01,1.358953267340000104e-01,1.000000000000000000e+00
1.915237689000000021e+00,-2.605506615540000404e+00,-6.089114308600000053e-02,-9.508778229540000737e+00,-1.087049860510000063e-02,-2.226012796159999862e-01,1.401825100180000006e-01,1.000000000000000000e+00
1.920243597000000024e+00,-2.357912495419999921e+00,-2.738980983470000186e-01,-9.401079486839998722e+00,-2.693406119940000218e-02,-2.312491834160000093e-01,1.643369793889999930e-01,1.000000000000000000e+00
1.925022436999999975e+00,-2.135592809550000304e+00,-7.956215317550000554e-01,-9.435510748749999621e+00,-4.703902173790000009e-03,-2.424594163890000098e-01,1.378629356620000024e-01,1.000000000000000000e+00
1.930086425000000050e+00,-2.113194369119999916e+00,-1.001031072420000223e+00,-9.466015192609999573e+00,2.199915004890000067e-03,-2.357720434670000087e-01,1.794142425059999935e-01,1.000000000000000000e+00
1.935060881000000066e+00,-2.257461531890000206e+00,-8.672359846359999347e-01,-9.475908225589998679e+00,-4.598684608939999918e-02,-2.515178322789999865e-01,2.005801349879999806e-01,1.000000000000000000e+00
1.940257930000000020e+00,-2.491016897529999774e+00,-7.418309779220000344e-01,-9.631233227339999203e+00,-7.601266354319999308e-02,-3.097192943100000040e-01,2.461860775949999969e-01,1.000000000000000000e+00
1.945255476000000039e+00,-2.527563836420000154e+00,-2.200083767220000208e-01,-9.724336458450000720e+00,-1.061388626689999948e-01,-3.224120438099999930e-01,2.457450032229999692e-01,1.000000000000000000e+00
1.950222595000000059e+00,-2.804556484979999542e+00,1.453385822580000042e-01,-9.536806638669999003e+00,-1.240984350440000050e-01,-3.177546262739999738e-01,2.531826496119999881e-01,1.000000000000000000e+00
1.955220516000000019e+00,-3.014169541759999849e+00,3.170117205440000085e-01,-9.576218611599999875e+00,-1.053994670509999926e-01,-3.561044335369999980e-01,2.634582221510000100e-01,1.000000000000000000e+00
1.960240068000000058e+00,-2.937829229400000131e+00,4.242333472490000257e-01,-9.544444586200000913e+00,-5.102480575440000027e-02,-3.130112290379999940e-01,2.494833171370000047e-01,1.000000000000000000e+00
1.965255119000000050e+00,-3.173422238339999701e+00,3.561477260809999823e-01,-9.554940261249999622e+00,-2.973087504510000048e-02,-2.949384152889999999e-01,2.139591425659999879e-01,1.000000000000000000e+00
1.970231612999999937e+00,-2.981917085190000094e+00,2.605246759029999915e-01,-9.640445876839999428e+00,-2.326061949130000042e-02,-2.951951026919999999e-01,2.110310792920000178e-01,1.000000000000000000e+00
1.975104669000000035e+00,-2.944009671600000377e+00,-7.211194950739999165e-02,-9.577119944360001469e+00,-9.927739389240001003e-03,-2.954868674280000107e-01,2.080643773079999814e-01,1.000000000000000000e+00
1.980103664000000041e+00,-2.726861543140000066e+00,-2.849439911600000208e-01,-9.616436055700001262e+00,-2.986158430579999995e-02,-2.897195219990000292e-01,2.036060541869999796e-01,1.000000000000000000e+00
1.985078142999999962e+00,-2.883498796530000075e+00,-2.081129726749999798e-01,-9.720927526789999717e+00,-1.875540427860000053e-02,-3.102101683619999939e-01,2.191809415819999940e-01,1.000000000000000000e+00
1.990086475000000021e+00,-2.851799005410000198e+00,-7.173957253110001264e-02,-9.772918410790000010e+00,-5.617414414880000234e-02,-3.265612125400000343e-01,2.136433720589999974e-01,1.000000000000000000e+00
1.995091012999999913e+00,-2.683805368490000287e+00,-1.423054616400000194e-01,-9.890312618069998507e+00,-3.982631489630000104e-02,-3.527926802640000137e-01,2.022750973699999899e-01,1.000000000000000000e+00
2.000279020999999879e+00,-2.743731137139999721e+00,9.291469540230000435e-02,-9.819327110739997977e+00,-3.890018537640000523e-02,-3.727911710740000051e-01,1.814369559289999989e-01,1.000000000000000000e+00
2.005069794999999822e+00,-2.741379897840000357e+00,6.621380854660000037e-02,-9.722772277869999868e+00,-3.166865184900000130e-02,-3.883739113809999699e-01,1.849930733439999753e-01,1.000000000000000000e+00
2.010236744999999825e+00,-2.615331551720000203e+00,-2.286832295539999952e-03,-9.771109315539998619e+00,-2.820529602470000369e-02,-4.035275280479999616e-01,1.645420491700000099e-01,1.000000000000000000e+00
2.015236024000000015e+00,-2.637470610549999872e+00,1.727864858059999925e-02,-9.984751481700000042e+00,4.280430264770000194e-03,-4.205741882320000458e-01,1.546160280699999945e-01,1.000000000000000000e+00
2.020236806000000218e+00,-2.588759478879999687e+00,-6.515618925249999638e-02,-1.012749757239999937e+01,1.788431033490000058e-02,-4.738782644269999844e-01,1.649478226900000233e-01,1.000000000000000000e+00
2.025241150999999906e+00,-2.451062926670000142e+00,-1.524199918870000059e-01,-1.012463458419999895e+01,3.080666996540000133e-02,-4.992224872110000433e-01,1.703417748209999916e-01,1.000000000000000000e+00
2.030129210000000128e+00,-2.404230594479999983e+00,-3.596714797610000014e-01,-1.012429673049999934e+01,2.316336892549999971e-02,-5.326353311539999691e-01,1.930842846629999832e-01,1.000000000000000000e+00
2.035249305999999869e+00,-2.492864278959999957e+00,-5.318570154149999674e-01,-1.014435869080000074e+01,4.863770306110000441e-02,-5.920823216439999870e-01,1.957734227179999953e-01,1.000000000000000000e+00
2.040206568999999970e+00,-2.583028826270000078e+00,-5.590667285760000382e-01,-1.014973629220000007e+01,3.590353950860000060e-02,-6.147400736810000321e-01,2.169639021159999737e-01,1.000000000000000000e+00
2.045230533999999878e+00,-2.397230652590000233e+00,-2.551413206300000014e-01,-1.043392148260000063e+01,2.383519895369999933e-02,-6.609113812450000403e-01,2.141664773229999819e-01,1.000000000000000000e+00
2.050231721999999923e+00,-2.599260999149999751e+00,-3.461973003549999595e-01,-1.056645714489999932e+01,3.840310871600000064e-02,-7.332043647769999062e-01,2.450161427260000024e-01,1.000000000000000000e+00
2.055104877999999857e+00,-2.338524927249999941e+00,-4.108991608359999770e-01,-1.069789507509999993e+01,3.194816410540000234e-02,-7.833067178730001023e-01,2.175739705559999737e-01,0.000000000000000000e+00
2.060098614000000161e+00,-2.377703968209999630e+00,-3.399999800850000420e-01,-1.074316863359999807e+01,9.714434272610000202e-04,-8.551762700080000057e-01,2.217140793800000120e-01,0.000000000000000000e+00
2.065106746000000104e+00,-2.212878001540000028e+00,-4.554124024319999853e-01,-1.112083524079999997e+01,-5.095954984430000473e-02,-9.492557644840000641e-01,1.901617348189999779e-01,0.000000000000000000e+00
2.070084102000000037e+00,-2.195233769910000188e+00,-8.129710182240000860e-01,-1.129342818820000005e+01,-1.083939671519999898e-01,-1.050119400020000038e+00,2.100233137610000023e-01,0.000000000000000000e+00
2.075254739000000015e+00,-2.264084164900000307e+00,-1.185223619270000112e-01,-1.137649108680000154e+01,-1.629406511779999955e-01,-1.166078329089999865e+00,1.922958046200000104e-01,0.000000000000000000e+00
2.080082898000000124e+00,-2.152470879110000013e+00,9.679729072300000126e-02,-1.134319204380000201e+01,-1.810061782599999836e-01,-1.278680920600000048e+00,1.563788503409999919e-01,0.000000000000000000e+00
2.085206993999999980e+00,-2.378001489849999928e+00,-2.457238692699999782e-01,-1.139292667329999986e+01,-1.636770963670000079e-01,-1.393409371379999762e+00,1.694313138720000278e-01,0.000000000000000000e+00
2.090101474999999986e+00,-2.538765321650000129e+00,4.462683063859999855e-02,-1.133252335020000068e+01,-1.877398788930000062e-01,-1.489813566209999829e+00,1.538560688499999995e-01,0.000000000000000000e+00
2.095085085000000014e+00,-2.839044737780000105e+00,7.360046829219999420e-01,-1.128794537279999943e+01,-1.582392901180000033e-01,-1.598638534550000045e+00,1.357688754799999953e-01,0.000000000000000000e+00
2.100249586999999973e+00,-2.369202243459999746e+00,4.377337570740000294e-01,-1.107873914329999998e+01,-1.297282725570000073e-01,-1.706785082819999966e+00,9.716553241010000841e-02,0.000000000000000000e+00
2.105084188999999828e+00,-2.538201842549999920e+00,5.403158874090000507e-01,-1.123226849380000125e+01,-1.009636744859999935e-01,-1.801300764079999839e+00,8.518721908330001424e-02,0.000000000000000000e+00
2.110242379999999862e+00,-2.583178463869999941e+00,6.137543408460000016e-01,-1.129416702380000181e+01,-9.028291702269999885e-02,-1.900585532190000038e+00,6.548307836059999443e-02,0.000000000000000000e+00
2.115239228000000082e+00,-2.668263808229999867e+00,3.038730019049999953e-01,-1.127215509849999897e+01,-7.758677750830000885e-02,-1.996847152710000017e+00,3.717237338419999981e-02,0.000000000000000000e+00
2.120254832000000089e+00,-2.423845541659999991e+00,6.114939946990000097e-01,-1.134910623619999903e+01,-1.007132381200000065e-01,-2.140368461610000050e+00,2.596850879490000125e-02,0.000000000000000000e+00
2.125242023000000202e+00,-2.371399753499999985e+00,9.053617902169999176e-01,-1.120442771619999967e+01,-9.926022589209999858e-02,-2.245172739030000031e+00,-1.068556774410000035e-02,0.000000000000000000e+00
2.130248174000000105e+00,-2.391849397940000177e+00,5.965104336440000266e-01,-1.116915182019999975e+01,-1.199377253649999975e-01,-2.390085935590000155e+00,-4.792323708530000365e-02,0.000000000000000000e+00
2.135239809999999849e+00,-2.545224288530000045e+00,2.103885894560000025e-01,-1.128358951569999924e+01,-1.061890199779999960e-01,-2.503726720809999584e+00,-4.057259857650000190e-02,0.000000000000000000e+00
2.140235982000000092e+00,-2.671388369990000289e+00,2.189887056849999791e-02,-1.127191661359999841e+01,-1.159044876689999948e-01,-2.628973484040000308e+00,-4.145138338209999884e-02,0.000000000000000000e+00
2.145243429000000202e+00,-2.545885090530000117e+00,-3.342451794179999713e-01,-1.127105853549999992e+01,-1.333694159980000071e-01,-2.737857341769999842e+00,-3.160628676409999588e-02,0.000000000000000000e+00
2.150238928999999910e+00,-2.510787473659999769e+00,-5.102137042100000075e-01,-1.142324699269999932e+01,-1.984522193670000267e-01,-2.871528148649999945e+00,-6.337942928079999538e-02,0.000000000000000000e+00
2.155089353999999791e+00,-2.526488023879999822e+00,-7.532568464959999988e-01,-1.115911090310000020e+01,-3.111854493619999884e-01,-2.982588291169999906e+00,-3.921591863040000542e-02,0.000000000000000000e+00
2.160100952000000074e+00,-2.291500579620000089e+00,-1.296677056599999878e+00,-1.120448967549999963e+01,-4.144575893879999806e-01,-3.097346544269999669e+00,-3.958053514359999997e-02,0.000000000000000000e+00
2.165093873000000002e+00,-2.280553215269999878e+00,-1.398112354979999861e+00,-1.133238657210000078e+01,-4.934071004389999904e-01,-3.222113132479999642e+00,1.870534941550000205e-02,0.000000000000000000e+00
2.170082743000000036e+00,-2.162965969640000097e+00,-1.311354839640000103e+00,-1.118741111489999973e+01,-5.850067138669999833e-01,-3.357818126679999793e+00,4.320834577080000238e-02,0.000000000000000000e+00
2.175253114000000210e+00,-2.088695157029999638e+00,-1.556506242780000049e+00,-1.143658344420000006e+01,-6.922662258149999692e-01,-3.534830331800000280e+00,8.725474774839998837e-02,0.000000000000000000e+00
2.180161092000000078e+00,-2.173740900019999867e+00,-2.125050518869999738e+00,-1.159656240920000059e+01,-8.150331377980000180e-01,-3.728913545609999769e+00,1.542202830309999939e-01,0.000000000000000000e+00
2.185201129999999825e+00,-2.122031171049999720e+00,-2.388179769520000217e+00,-1.120520396130000051e+01,-9.594690799709999496e-01,-3.902343988419999299e+00,2.162712812420000130e-01,0.000000000000000000e+00
2.190097018999999978e+00,-2.864052630049999770e+00,-3.068789020690000147e+00,-1.168284485440000076e+01,-1.139755487439999992e+00,-4.086138248440000176e+00,2.829918563369999696e-01,0.000000000000000000e+00
2.195067589999999846e+00,-3.499884727990000055e+00,-3.830074129210000233e+00,-1.162640692779999974e+01,-1.355340719220000212e+00,-4.228090763089999982e+00,4.208024740219999948e-01,0.000000000000000000e+00
2.200241448999999960e+00,-3.291559665199999873e+00,-4.380882842130001009e+00,-1.160108193249999964e+01,-1.596520066260000092e+00,-4.370010852809999236e+00,5.088298320769999439e-01,0.000000000000000000e+00
2.205067128000000043e+00,-3.057270724599999934e+00,-4.326638918510000487e+00,-1.222975977469999975e+01,-1.844625830650000076e+00,-4.477010250090000198e+00,6.278651356700000186e-01,0.000000000000000000e+00
2.210223163999999851e+00,-4.317802408840000439e+00,-5.447998863420000504e+00,-1.298016196240000042e+01,-2.161139726640000092e+00,-4.611443042759999500e+00,7.757915258409999737e-01,0.000000000000000000e+00
2.215089722000000094e+00,-5.555532770950000199e+00,-6.472947475589999833e+00,-1.400735513869999949e+01,-2.537355661390000350e+00,-4.735584259030000354e+00,9.308749437330000598e-01,0.000000000000000000e+00
2.220138620999999812e+00,-6.757003486669999504e+00,-7.291575642799999812e+00,-1.464930981119999842e+01,-2.979100465770000206e+00,-4.862556457519999320e+00,1.136802554129999976e+00,0.000000000000000000e+00
2.225212872999999814e+00,-8.559075704750000568e+00,-8.170437037170000139e+00,-1.557842722859999895e+01,-3.409073591229999867e+00,-5.050734519959999780e+00,1.288932919500000107e+00,0.000000000000000000e+00
2.230101670999999897e+00,-1.198465454880000181e+01,-8.282623154410000410e+00,-1.669110673119999788e+01,-3.799409866329999996e+00,-5.141692638399999460e+00,1.379127264020000077e+00,0.000000000000000000e+00
2.235239594999999913e+00,-1.491648775270000016e+01,-6.464194844819999730e+00,-1.656462905369999916e+01,-4.057612419130000703e+00,-5.161729812619999969e+00,1.473355770110000185e+00,0.000000000000000000e+00
2.240139515000000081e+00,-1.450866332309999862e+01,-4.151115178339999545e+00,-1.519704189309999975e+01,-4.211205959319999970e+00,-4.965805530549999958e+00,1.573380470280000054e+00,0.000000000000000000e+00
2.245237932000000214e+00,-1.325960200420000135e+01,-2.519545657400000138e+00,-1.418956230210000058e+01,-4.285089492800000066e+00,-4.668395042420000252e+00,1.636289477350000077e+00,0.000000000000000000e+00
2.250245127999999983e+00,-1.329087158719999984e+01,-1.538735462160000012e+00,-1.437837339390000047e+01,-4.247144699100000587e+00,-4.219490051269999320e+00,1.692926883699999996e+00,0.000000000000000000e+00
2.255245920000000126e+00,-1.308084819599999982e+01,-3.221934048050000055e+00,-1.415824478829999933e+01,-4.245179653170000122e+00,-3.919151782990000221e+00,1.742322206500000137e+00,0.000000000000000000e+00
2.260214562999999899e+00,-1.586401644059999860e+01,-4.892343879519999383e+00,-1.603847167470000201e+01,-4.343986511230000680e+00,-3.588850975040000169e+00,1.780381441120000074e+00,0.000000000000000000e+00
2.265244229999999970e+00,-1.743100622960000123e+01,-4.706254321680000352e+00,-1.814538316420000186e+01,-4.360819339749999912e+00,-3.157733440400000369e+00,1.610924005510000034e+00,0.000000000000000000e+00
2.270101019000000164e+00,-1.431386906530000047e+01,-7.001838078949999655e+00,-1.807934738819999865e+01,-4.364243030549999958e+00,-2.870748758319999983e+00,1.428699731829999875e+00,0.000000000000000000e+00
2.275246408000000109e+00,-1.078565519160000008e+01,-7.313494044620000523e+00,-1.629541580700000125e+01,-4.369234561919999926e+00,-2.517745018009999836e+00,1.462951660160000111e+00,0.000000000000000000e+00
2.280111577000000000e+00,-8.205576739610000558e+00,-7.432034499319999377e+00,-1.268859893670000005e+01,-4.368429660799999503e+00,-1.870774626729999834e+00,1.494605422020000240e+00,0.000000000000000000e+00
2.285113702999999941e+00,-7.708488803230000741e+00,-7.740695959349999100e+00,-7.747385812370000124e+00,-4.220576286320000037e+00,-1.002560973170000036e+00,1.489660024639999802e+00,0.000000000000000000e+00
2.290100257999999833e+00,-4.642455510980000866e-02,-7.890423579480001059e+00,-9.505254147060000491e+00,-4.112065315249999742e+00,3.610970675949999875e-01,1.280624985689999829e+00,0.000000000000000000e+00
2.295083163999999787e+00,8.682272460830001037e+00,-8.308712704430000429e+00,-1.386664786030000052e+01,-4.209972381590000090e+00,1.595551967619999845e+00,8.196754455570000042e-01,0.000000000000000000e+00
2.300231162000000218e+00,-3.525572419219999976e+00,-5.549572401240000730e+00,-1.399417650819999892e+01,-3.961998939509999929e+00,1.566221833229999749e+00,-2.888395488259999921e-01,0.000000000000000000e+00
2.305104372000000179e+00,-7.465248202139999734e+00,-6.527258911499999705e+00,-1.916497872489999921e+01,-3.571286916730000538e+00,1.658100962640000064e+00,-1.021495223050000067e+00,0.000000000000000000e+00
2.310071531999999817e+00,-4.356957192139999435e+00,-9.907259076699999056e+00,-1.697879671480000141e+01,-3.089701175690000134e+00,1.811636567120000096e+00,-1.209920406339999976e+00,0.000000000000000000e+00
2.315226297999999794e+00,4.565187270120000029e+00,-1.105993273599999860e+01,-9.352550725989999592e+00,-2.522328615190000178e+00,2.291245937350000261e+00,-1.098337054249999944e+00,0.000000000000000000e+00
2.320236315999999910e+00,5.801898810580000898e+00,-6.659501728339999538e+00,-9.691343704910000412e+00,-2.025634765620000000e+00,2.702594280240000035e+00,-1.261589646340000037e+00,0.000000000000000000e+00
2.325245166999999835e+00,5.794557215640000258e+00,-4.207970161240000451e+00,-8.265088082240000134e+00,-1.675258874889999916e+00,3.044883251190000362e+00,-1.517244815830000038e+00,0.000000000000000000e+00
2.330228314000000189e+00,7.891250093430000945e+00,-7.406951495989999579e+00,-8.637802035460000027e+00,-1.526610016820000082e+00,3.031377553940000080e+00,-1.532414436340000075e+00,0.000000000000000000e+00
2.335242925999999830e+00,8.430832771189999519e+00,-8.852418015089998704e+00,-6.714029437339999795e+00,-1.160189270970000130e+00,2.820628166200000120e+00,-1.445182919499999885e+00,0.000000000000000000e+00
2.340065119000000138e+00,8.552651224659999940e+00,-8.257345505289999110e+00,-6.729913235169999730e+00,-8.929654359819999554e-01,2.600124597549999805e+00,-1.488977432250000010e+00,0.000000000000000000e+00
2.345242835000000081e+00,8.666894274430001488e+00,-7.712264814630001020e+00,-6.368813731900000441e+00,-6.583951115609999460e-01,2.299490928650000043e+00,-1.530771732329999857e+00,0.000000000000000000e+00
2.350233036000000109e+00,8.688425722759999914e+00,-8.023360808330000538e+00,-6.316889483400000671e+00,-6.230687499050000522e-01,1.996531724930000085e+00,-1.601079344750000022e+00,0.000000000000000000e+00
2.355222084999999854e+00,7.323693951589999251e+00,-9.096323217560000174e+00,-6.444601086549999636e+00,-6.215254068369999718e-01,1.782564640049999927e+00,-1.634059548380000004e+00,0.000000000000000000e+00
2.360042959999999912e+00,5.217473367000000195e+00,-9.668188454770000106e+00,-7.277821258210001254e+00,-6.062698364259999639e-01,1.763370513920000215e+00,-1.657839298249999871e+00,0.000000000000000000e+00
2.365056757000000065e+00,3.116174748989999799e+00,-9.316207492980000282e+00,-8.253900333269999834e+00,-5.277016162870000748e-01,1.909890532490000181e+00,-1.627444386480000116e+00,0.000000000000000000e+00
2.370085223999999879e+00,1.382404790500000091e+00,-8.487970954950000646e+00,-8.994344606080000304e+00,-4.612857401370000221e-01,2.137747764590000266e+00,-1.673012495040000047e+00,0.000000000000000000e+00
2.375077716999999922e+00,2.608659088220000380e-02,-8.211744614589999713e+00,-9.433044066380000814e+00,-4.175176024440000466e-01,2.431378126140000262e+00,-1.767553329469999879e+00,0.000000000000000000e+00
2.380239695999999849e+00,-9.285019158509999482e-01,-8.132951648380000620e+00,-9.987572384339998166e+00,-3.142529726030000026e-01,2.839964628220000176e+00,-1.916526675220000087e+00,0.000000000000000000e+00
2.385139624999999874e+00,-1.452127146029999816e+00,-8.081179375569998768e+00,-9.855841024149999186e+00,-1.996898353100000079e-01,3.278585195540000274e+00,-2.046693325040000122e+00,0.000000000000000000e+00
2.390227772999999889e+00,-1.573978332720000095e+00,-7.923107705459999650e+00,-9.655896543949999966e+00,-7.273240387439999788e-02,3.701565027240000472e+00,-2.169504880909999933e+00,0.000000000000000000e+00
2.395061340999999899e+00,-1.335108201800000005e+00,-7.662536030350000082e+00,-9.267861687479999944e+00,4.942600056530000591e-02,4.051159381869999798e+00,-2.267658472059999486e+00,0.000000000000000000e+00
2.400224527000000219e+00,-8.912448559289999350e-01,-7.754250437449999644e+00,-8.713959976989999134e+00,1.561116576190000049e-01,4.308511734009999650e+00,-2.383498907090000341e+00,0.000000000000000000e+00
2.405097296000000107e+00,-6.369968308769999865e-01,-7.523236280730000836e+00,-8.160410733189998211e+00,2.705639600749999985e-01,4.493259429930000159e+00,-2.478311538699999872e+00,0.000000000000000000e+00
2.410091457000000048e+00,-3.598102671769999872e-01,-7.135625202629999997e+00,-7.812896103160000827e+00,3.972041606899999744e-01,4.590502738949999717e+00,-2.592441558840000049e+00,0.000000000000000000e+00
2.415243982999999872e+00,-3.542259642380000129e-01,-6.936098071060000869e+00,-7.701627100760000566e+00,4.683873951439999628e-01,4.623659133909999497e+00,-2.692584514620000036e+00,0.000000000000000000e+00
2.420207158000000192e+00,-4.792480360490000146e-01,-6.749232268150000991e+00,-7.732056725820000587e+00,5.844098925589999993e-01,4.609220981600000044e+00,-2.779269218440000522e+00,0.000000000000000000e+00
2.425239604000000160e+00,-1.006233244179999931e+00,-6.409206532569999837e+00,-7.945062932160000813e+00,7.033276557919999616e-01,4.579707145690000480e+00,-2.834136009219999863e+00,0.000000000000000000e+00
2.430205704000000022e+00,-1.642683620149999912e+00,-6.263053263790000713e+00,-8.245829839540000705e+00,8.167656064030001106e-01,4.553297042850000587e+00,-2.910416841509999575e+00,0.000000000000000000e+00
2.435212738999999793e+00,-2.501817693010000010e+00,-6.187437758580000668e+00,-8.649154035080000469e+00,9.227519631389999866e-01,4.535863876339999656e+00,-2.969909906389999854e+00,0.000000000000000000e+00
2.440225566000000068e+00,-3.176804574250000179e+00,-6.155127726599999960e+00,-9.186396287200000899e+00,1.039412856100000004e+00,4.536699771880000398e+00,-3.031972646709999886e+00,0.000000000000000000e+00
2.445240366000000165e+00,-4.038253353790000055e+00,-6.135684774990000534e+00,-9.775383339600001165e+00,1.165056586269999972e+00,4.515991210940000222e+00,-3.097036600109999593e+00,0.000000000000000000e+00
2.450076108999999835e+00,-4.896005032380000621e+00,-6.245759599160000342e+00,-1.018405006519999922e+01,1.276764869690000026e+00,4.524304866790000546e+00,-3.132746458050000182e+00,0.000000000000000000e+00
2.455249228000000006e+00,-5.967885491590000591e+00,-6.399079106310000320e+00,-1.077571247430000057e+01,1.380614161489999825e+00,4.554150581360000061e+00,-3.201761722559999690e+00,0.000000000000000000e+00
2.460189758999999921e+00,-7.078183652010000770e+00,-6.737958009939999826e+00,-1.124055935230000003e+01,1.476393103600000201e+00,4.572160720830000358e+00,-3.288430929180000017e+00,0.000000000000000000e+00
2.465212091000000161e+00,-8.270982400980001259e+00,-7.170831540569999163e+00,-1.160377657839999976e+01,1.553483724589999948e+00,4.607392311099999915e+00,-3.389881134029999910e+00,0.000000000000000000e+00
2.470222909999999938e+00,-9.260271086219999503e+00,-7.878333328710000139e+00,-1.187572538749999929e+01,1.590120196340000014e+00,4.641665935519999842e+00,-3.516795635219999383e+00,0.000000000000000000e+00
2.475244442000000156e+00,-1.016162079130000073e+01,-8.650784851150000065e+00,-1.191841068309999940e+01,1.560949563979999954e+00,4.653472900390000611e+00,-3.669494867320000075e+00,0.000000000000000000e+00
2.480208880999999810e+00,-1.086426052630000072e+01,-9.299230639219999262e+00,-1.200658581010000070e+01,1.471858739850000042e+00,4.706612586980000401e+00,-3.875659942630000021e+00,0.000000000000000000e+00
2.485089573000000218e+00,-1.157257363089999913e+01,-9.648813307690000229e+00,-1.202656126119999946e+01,1.383807301520000088e+00,4.718347549439999788e+00,-4.091608524319999773e+00,0.000000000000000000e+00
2.490233138999999873e+00,-1.208929682660000005e+01,-9.191632434279998876e+00,-1.180420095099999855e+01,1.230718970300000104e+00,4.711189746859999694e+00,-4.332789897919999689e+00,0.000000000000000000e+00
2.495235517999999875e+00,-1.245059915890000113e+01,-8.419896951160000143e+00,-1.161903844489999926e+01,1.145074605939999879e+00,4.639819145199999717e+00,-4.629990100859999735e+00,0.000000000000000000e+00
2.500208353000000105e+00,-1.296487203890000117e+01,-7.963236302230000341e+00,-1.167505551569999867e+01,1.105662226680000026e+00,4.541520118710000276e+00,-4.883971691130000181e+00,0.000000000000000000e+00
2.505076889000000140e+00,-1.370936237220000109e+01,-7.078858774789999586e+00,-1.161703119670000106e+01,1.167791843410000086e+00,4.413263320919999622e+00,-5.106146812440000460e+00,0.000000000000000000e+00
2.510132274000000052e+00,-1.477554783460000110e+01,-5.947279925940000211e+00,-1.172939267049999934e+01,1.287271499630000093e+00,4.227392673490000696e+00,-5.314839839940000310e+00,0.000000000000000000e+00
2.515242043999999844e+00,-1.578205711930000099e+01,-4.772347965309999829e+00,-1.160718434099999818e+01,1.467355966570000003e+00,4.028594970699999500e+00,-5.496781826020000317e+00,0.000000000000000000e+00
2.520201383999999933e+00,-1.697324024970000167e+01,-3.885491480530000263e+00,-1.160176582309999915e+01,1.727995753290000325e+00,3.816154479980000236e+00,-5.668836593630000031e+00,0.000000000000000000e+00
2.525231284000000187e+00,-1.768080049010000110e+01,-3.283956788979999875e+00,-1.151097437599999829e+01,1.995793819429999782e+00,3.616141557689999786e+00,-5.824275970460000451e+00,0.000000000000000000e+00
2.530070385999999782e+00,-1.833986061110000065e+01,-2.930501370730000055e+00,-1.118933769910000109e+01,2.269443035129999675e+00,3.389106035230000202e+00,-5.949078083039999854e+00,0.000000000000000000e+00
2.535234137999999859e+00,-1.894101214859999871e+01,-2.462126903130000155e+00,-1.089982166900000138e+01,2.511439561840000056e+00,3.176397323609999823e+00,-6.048495769500000563e+00,0.000000000000000000e+00
2.540230181000000087e+00,-1.942220108960000147e+01,-2.332458466819999909e+00,-1.036943702770000009e+01,2.711880207059999659e+00,2.884615898129999856e+00,-6.104050636290001108e+00,0.000000000000000000e+00
2.545223616999999994e+00,-2.007695912950000050e+01,-2.411163900870000099e+00,-9.834717572100000638e+00,2.879334449769999971e+00,2.575593233109999769e+00,-6.160865783689999375e+00,0.000000000000000000e+00
2.550238010000000166e+00,-2.121579014150000120e+01,-2.399248568279999994e+00,-9.407006538799999262e+00,3.007907629009999528e+00,2.233003377909999809e+00,-6.141568660739999963e+00,0.000000000000000000e+00
2.555206088999999903e+00,-2.278406470959999908e+01,-2.300451655570000309e+00,-9.201246650330000776e+00,3.050683736799999934e+00,1.888898253440000063e+00,-6.108974933619999881e+00,0.000000000000000000e+00
2.560223129999999792e+00,-2.468075874659999869e+01,-2.911622190469999705e+00,-9.108875825140000160e+00,2.954398155209999821e+00,1.578172564509999987e+00,-6.055640220639999960e+00,0.000000000000000000e+00
2.565217625999999917e+00,-2.654375392769999920e+01,-4.517708895110000178e+00,-8.769504754079999742e+00,2.741066694260000158e+00,1.348986864090000015e+00,-5.957708835599999198e+00,0.000000000000000000e+00
2.570233929000000028e+00,-2.798791579389999740e+01,-5.600095550769999875e+00,-8.234964162140000710e+00,2.388201475140000252e+00,1.249130129810000156e+00,-5.834330081940000134e+00,0.000000000000000000e+00
2.575067634999999910e+00,-2.835280709070000071e+01,-6.240832079630000528e+00,-7.481405556210000363e+00,1.854546427730000113e+00,1.264942765239999822e+00,-5.678345203400000152e+00,0.000000000000000000e+00
2.580083924999999834e+00,-2.792846991780000110e+01,-6.181251763419999712e+00,-6.390326475529999328e+00,1.227514743800000030e+00,1.364370584490000038e+00,-5.440233230590000524e+00,0.000000000000000000e+00
2.585072009000000115e+00,-2.728718627639999994e+01,-6.221483236040000087e+00,-5.400596476259999612e+00,5.778391957280000213e-01,1.503313899039999901e+00,-5.039235115050000324e+00,0.000000000000000000e+00
2.590236770000000188e+00,-2.694867328349999980e+01,-5.466182754889999273e+00,-4.193468757679999825e+00,4.544579610230000538e-02,1.577994942670000178e+00,-4.534046649930000505e+00,0.000000000000000000e+00
2.595095307999999878e+00,-2.627862882710000036e+01,-3.489632506309999993e+00,-2.807460097469999916e+00,-3.353675305840000398e-01,1.555166840550000096e+00,-3.995440006259999954e+00,0.000000000000000000e+00
2.600212153999999831e+00,-2.569112821380000256e+01,-1.832404812500000091e+00,-1.805966595170000133e+00,-5.640791654590000537e-01,1.452541351320000063e+00,-3.436311483380000809e+00,0.000000000000000000e+00
2.605090661999999835e+00,-2.518511229010000108e+01,-8.142180956760000088e-01,-9.272684285340000443e-01,-6.282179951669999429e-01,1.324426770209999882e+00,-2.918137788770000185e+00,0.000000000000000000e+00
2.610215544999999970e+00,-2.451533203760000390e+01,1.541845264739999943e-01,-2.176909300930000013e-01,-5.503167510030000376e-01,1.194388389589999822e+00,-2.414796113970000047e+00,0.000000000000000000e+00
2.615228239999999982e+00,-2.384671147650000123e+01,1.059030622249999887e+00,4.705642327260000091e-01,-3.263772726060000240e-01,1.052305817599999971e+00,-1.876062273979999917e+00,0.000000000000000000e+00
2.620207644999999808e+00,-2.267187625420000074e+01,2.009725665209999956e+00,8.219074080689999784e-01,-7.719509303569999092e-02,9.399245977399999230e-01,-1.386703848840000086e+00,0.000000000000000000e+00
2.625243390000000065e+00,-2.108230638459999895e+01,2.683559869300000233e+00,1.190501943270000140e+00,2.087528258559999961e-01,7.885247468950000727e-01,-1.004863739010000145e+00,0.000000000000000000e+00
2.630229974000000137e+00,-1.931476596619999953e+01,3.178061296320000118e+00,1.504318813300000057e+00,4.463051855560000170e-01,6.138181686399999393e-01,-7.569577693940000573e-01,0.000000000000000000e+00
2.635233450999999949e+00,-1.738922343579999819e+01,3.456618417719999670e+00,1.552474064659999931e+00,6.128959655760000125e-01,3.538243770600000282e-01,-6.191875338550000274e-01,0.000000000000000000e+00
2.640228264000000102e+00,-1.533526261529999957e+01,3.633889878330000212e+00,1.354495916100000086e+00,6.969857215880000956e-01,3.208716958759999516e-02,-5.952380895609999945e-01,0.000000000000000000e+00
2.645063359999999975e+00,-1.350943367410000029e+01,4.266590984780000539e+00,1.470441970400000020e+00,6.632637977599999957e-01,-3.585350811479999789e-01,-6.692141890530000081e-01,0.000000000000000000e+00
2.650080063999999958e+00,-1.180296527180000155e+01,4.936231244300000043e+00,1.728302632990000198e+00,5.418395400050000088e-01,-7.307002544399998634e-01,-7.817777991290000283e-01,0.000000000000000000e+00
2.655233797000000173e+00,-3.402853802040000097e+00,-5.588798496209999023e+00,-3.445334222640000110e+00,-5.581040382390000110e-01,-5.406488180160000656e-01,-1.123419880870000220e+00,0.000000000000000000e+00
2.660067712000000029e+00,-1.958528854200000069e+01,4.243977294169999581e+00,1.943959938359999917e+00,-1.616260766979999763e+00,-2.382311344150000121e+00,-1.352989315990000163e+00,0.000000000000000000e+00
2.665237867000000094e+00,-1.645070339930000003e+01,3.563306814330000183e+00,2.420269144479999746e+00,-3.331078290940000297e+00,-3.117974996570000101e+00,-1.647229313849999821e+00,0.000000000000000000e+00
2.670222555000000053e+00,-2.874814262559999722e+00,2.082108179859999630e+00,3.600051613880000279e+00,-4.656541347500000150e+00,-3.154689550400000098e+00,-1.918041348459999851e+00,0.000000000000000000e+00
2.675240404000000183e+00,-3.956501537780000022e-01,-9.318837037769998888e-02,-1.938040339050000060e+00,-5.237209796910000215e+00,-3.198980808259999531e+00,-1.502923250200000060e+00,0.000000000000000000e+00
2.680223822999999950e+00,4.643559380570000172e+00,4.416602098030000256e+00,-1.548205827359999809e+01,-4.920335292819999040e+00,-3.087592601779999946e+00,-4.730816781520000291e-01,0.000000000000000000e+00
2.685112005000000135e+00,1.282443714769999943e+01,1.177169101259999984e+01,-2.701378200770000149e+01,-4.102037906650000565e+00,-3.456385850909999391e+00,3.694418370719999567e-01,0.000000000000000000e+00
2.690230939000000099e+00,1.449026491210000067e+01,1.413969089450000105e+01,-4.391044872089999984e+01,-4.051505088809999933e+00,-4.199715137480000138e+00,1.458908200260000010e+00,0.000000000000000000e+00
2.695088365999999791e+00,-1.757511425619999912e+01,2.218887880249999967e+01,-3.531737605400000035e+01,-3.664615869519999514e+00,-5.670367717740000479e+00,2.322945594790000179e+00,0.000000000000000000e+00
2.700223997000000153e+00,-3.759916480239999714e+01,1.859120619269999963e+01,-1.990801359869999843e+01,-3.642878532410000147e+00,-6.287803649899999847e+00,2.062845706940000134e+00,0.000000000000000000e+00
2.705076410000000209e+00,-3.803956463690000334e+01,6.486483833520000353e+00,-1.269620707369999835e+01,-2.474263906480000053e+00,-5.291520118710000276e+00,1.428424239160000164e+00,0.000000000000000000e+00
2.710071510000000128e+00,-2.042179664929999916e+01,-4.893369423169999344e+00,-8.893827883840000226e+00,-9.520761966709999635e-01,-2.257601261140000037e+00,1.106901168820000114e+00,0.000000000000000000e+00
2.715219105000000077e+00,-2.518538233920000202e+00,-7.225728082879999903e+00,-1.130223459499999983e+01,9.066005796189999244e-02,-1.930465251210000122e-01,1.500479936599999897e+00,0.000000000000000000e+00
2.720081151000000030e+00,8.090452230830001312e+00,-5.263992541590000407e+00,-1.142240761930000126e+01,3.961847424509999938e-01,1.880569696430000048e+00,1.907416462899999887e+00,0.000000000000000000e+00
2.725229922000000027e+00,5.238180054939999941e+00,-6.965597721789999142e+00,-1.079109241430000132e+01,-4.988935291770000280e-01,2.040729045870000036e+00,2.101716279979999769e+00,0.000000000000000000e+00
2.730239204000000086e+00,-1.292113694199999996e+00,-1.365115451339999986e+01,-9.359315982340000062e+00,-1.575777888300000207e+00,1.770558953290000126e-01,2.240493535999999786e+00,0.000000000000000000e+00
2.735078019999999999e+00,-6.559713904899999726e+00,-1.100717028309999890e+01,-1.097757944700000010e+01,-2.294844865800000022e+00,-1.764264225959999877e+00,1.769563078879999862e+00,0.000000000000000000e+00
2.740067870999999933e+00,-1.084479127119999831e+01,1.493996010589999868e+00,-1.539402927709999958e+01,-2.670026302340000157e+00,-2.609988927839999917e+00,1.290658950809999928e+00,0.000000000000000000e+00
2.745233810000000219e+00,-9.087595136710000077e+00,1.899062052140000034e+01,-1.185594165970000091e+01,-2.684398412699999792e+00,-3.107645750050000100e+00,2.743436992170000255e-01,0.000000000000000000e+00
2.750211959000000039e+00,-7.226736383139998665e+00,9.717958740110001159e+00,-7.111328965760001175e+00,-1.845894932750000050e+00,-2.000346422199999807e+00,-3.481251299379999886e-01,0.000000000000000000e+00
2.755222958000000055e+00,4.548716100859999667e-01,-3.023822628500000054e+00,-9.454936749229998938e+00,-4.950022995469999798e-01,-9.994371533390000728e-01,-8.221119642259999694e-01,0.000000000000000000e+00
2.760213486000000049e+00,-7.905803519439999150e+00,-1.154527762759999909e+01,-7.180157587320000090e+00,5.083991885190000115e-01,3.063143491739999669e-01,3.671653568739999818e-01,0.000000000000000000e+00
2.765067516999999864e+00,-2.782184494180000023e+00,-5.778025183040000456e+00,-1.039110408510000028e+01,3.739022910589999693e-01,7.051209211350000228e-01,1.323824167249999961e+00,0.000000000000000000e+00
2.770083663999999946e+00,-3.028853900670000154e+00,1.503757964539999881e+00,-1.296785310049999929e+01,-7.454262375830000842e-01,1.679275184870000215e-01,1.613288760189999893e+00,0.000000000000000000e+00
2.775202923999999793e+00,-1.738257625290000163e+00,3.143592625000000140e+00,-8.038249165379999894e+00,-1.481177091599999995e+00,-3.944869637489999969e-01,1.115520596500000128e+00,0.000000000000000000e+00
2.780213248999999998e+00,-3.695329558680000126e+00,1.766367136840000240e+00,-9.689030751789999840e+00,-1.498293519020000186e+00,-3.608267605300000125e-01,7.379003763199999399e-01,0.000000000000000000e+00
2.785213930999999921e+00,-4.192938596330000323e+00,1.915773416059999734e+00,-1.085584224209999959e+01,-9.859172701839999942e-01,-4.199647903440000274e-01,5.951380133629999847e-01,0.000000000000000000e+00
2.790223648000000001e+00,-4.491185629840000360e+00,1.274863868720000015e+00,-1.037355089279999909e+01,-3.499537408349999712e-01,-3.452982306480000263e-01,4.895533621310000361e-01,0.000000000000000000e+00
2.795062844999999907e+00,-3.009756986010000190e+00,9.062404727480000144e-01,-1.022082584440000019e+01,-1.450155973430000134e-01,-3.534120917319999444e-01,4.868832230569999919e-01,0.000000000000000000e+00
2.800203940999999919e+00,-3.103676209680000131e+00,4.702161864729999530e-01,-1.001664767219999952e+01,-1.572185009720000193e-01,-3.208487927909999815e-01,5.423941612239999710e-01,0.000000000000000000e+00
2.804967867999999864e+00,-4.328723031300000024e+00,2.434601073229999968e-01,-9.807983878949999124e+00,-3.423472940919999874e-01,-1.739336103200000150e-01,5.716963410379999333e-01,1.000000000000000000e+00
2.810199531999999945e+00,-3.500665064709999719e+00,2.679361029369999869e-01,-9.632567690810001082e+00,-4.784165024759999829e-01,-1.316277384760000113e-01,4.659864604469999838e-01,1.000000000000000000e+00
2.815213667000000086e+00,-3.303006065109999945e+00,1.563105421849999843e-01,-9.365065924169998723e+00,-5.538185834880000602e-01,-4.976551234720000272e-02,3.932126462459999972e-01,1.000000000000000000e+00
2.820181809999999789e+00,-3.210620919140000140e+00,-8.147667060020000185e-02,-9.831249019210000384e+00,-4.765797555449999834e-01,-1.185024436560000102e-02,3.607643544670000035e-01,1.000000000000000000e+00
2.825119205000000022e+00,-3.364668156030000024e+00,4.765349046329999672e-01,-1.029558853220000003e+01,-3.491787314410000342e-01,-9.954797476530000133e-02,3.205633759500000068e-01,1.000000000000000000e+00
2.830228813999999815e+00,-2.913653696299999929e+00,8.578159029269999403e-01,-1.023314756589999952e+01,-2.975284457210000122e-01,-1.967907249929999880e-01,2.036562412980000014e-01,1.000000000000000000e+00
2.835087119999999850e+00,-2.899305437469999802e+00,2.262006554909999911e-01,-1.018215855240000067e+01,-3.451198637489999999e-01,-1.761943995949999953e-01,1.437198519710000122e-01,1.000000000000000000e+00
2.840059695999999967e+00,-2.997696253600000027e+00,-1.734880330880000099e-01,-9.909744463770000067e+00,-3.859417438509999965e-01,-1.231722161170000079e-01,1.351580172780000033e-01,1.000000000000000000e+00
2.845119620999999821e+00,-2.947870730940000517e+00,-5.786655283410000461e-01,-9.965180519789999636e+00,-3.756034076210000294e-01,-7.294400036330001003e-02,1.409527808430000029e-01,1.000000000000000000e+00
2.850217230000000157e+00,-2.800684611989999961e+00,-4.915215344280000065e-01,-1.012412488110000020e+01,-3.588394224639999686e-01,-1.362887471910000092e-01,1.700210422280000189e-01,1.000000000000000000e+00
2.855067231000000039e+00,-2.647620833169999965e+00,-5.437994552090000822e-01,-1.019032899930000013e+01,-3.571287393570000135e-01,-2.449116855860000164e-01,2.008948773149999978e-01,1.000000000000000000e+00
2.860044022999999935e+00,-2.725745398599999980e+00,-4.770750759240000027e-01,-1.020885015990000078e+01,-3.225859999659999588e-01,-3.418722152709999795e-01,2.329376637939999939e-01,1.000000000000000000e+00
2.865017443000000164e+00,-2.950540826930000193e+00,-6.450745580660000034e-01,-1.022089364900000064e+01,-3.233257234099999877e-01,-4.112040996549999883e-01,2.364352494480000122e-01,1.000000000000000000e+00
2.869992273999999899e+00,-2.751854530099999696e+00,-5.994430895619999866e-01,-1.035302832929999894e+01,-3.323313295840000237e-01,-4.491589069370000020e-01,2.531829774380000009e-01,1.000000000000000000e+00
2.875087120999999968e+00,-2.674833834270000210e+00,-3.911766981580000468e-01,-1.058787987220000026e+01,-3.439905643460000051e-01,-4.598245620729999872e-01,2.641725540159999830e-01,1.000000000000000000e+00
2.880059648000000028e+00,-2.629811035709999967e+00,-2.844887764719999934e-01,-1.072856844580000057e+01,-3.389148414129999898e-01,-4.834390878679999948e-01,3.001010715960000241e-01,0.000000000000000000e+00
2.885215033000000151e+00,-2.214015919529999987e+00,6.006491226180000337e-02,-1.131624324660000092e+01,-3.142707645889999957e-01,-5.706875920299999683e-01,3.022722601889999972e-01,0.000000000000000000e+00
2.890066676000000001e+00,-1.443974380839999849e+00,5.830346833359999481e-01,-1.117914831349999893e+01,-2.397601008419999735e-01,-6.591283679010000451e-01,3.065949678420000213e-01,0.000000000000000000e+00
2.895064001000000165e+00,-2.540617086999999774e+00,3.752293701050000152e-01,-1.151035595190000116e+01,-2.073054164649999753e-01,-7.729448676109998972e-01,2.432246655229999832e-01,0.000000000000000000e+00
2.900052709000000117e+00,-2.286805261409999623e+00,3.013307335440000290e-01,-1.192833703380000188e+01,-1.569143831729999938e-01,-9.144445657729999288e-01,2.351778000589999917e-01,0.000000000000000000e+00
2.904994450999999867e+00,-1.777548456059999671e+00,2.042216095259999920e-01,-1.293194007560000003e+01,-1.297477334740000099e-01,-1.039546966550000118e+00,1.945083141329999876e-01,0.000000000000000000e+00
2.910009214000000011e+00,-2.054888602890000193e+00,-4.503132891940000299e-02,-1.312134387260000068e+01,-1.941363811490000035e-01,-1.224278211589999943e+00,1.575867086649999915e-01,0.000000000000000000e+00
2.915006521000000017e+00,-1.445731161379999907e+00,-8.278672663220000283e-01,-1.341879887890000056e+01,-2.597893476489999687e-01,-1.433777570720000005e+00,1.482792794699999972e-01,0.000000000000000000e+00
2.919952611999999892e+00,-1.286600776000000002e+00,-8.707469884319999354e-01,-1.392097215569999946e+01,-3.442014455799999872e-01,-1.657139182089999885e+00,1.288961470130000064e-01,0.000000000000000000e+00
