t,ax,ay,az,wx,wy,wz,zv
4.981741999999999941e-03,-2.508911450659999876e+00,3.158677061749999571e-02,-9.457847668250000339e+00,2.070229128000000002e-02,-1.162869972180000100e-03,2.041299268600000119e-02,1.000000000000000000e+00
1.017109700000000047e-02,-2.401483341600000099e+00,-4.681718942290000011e-03,-9.513315872969998921e+00,-1.063070911910000103e-02,1.409112289550000160e-02,6.875397637490000130e-03,1.000000000000000000e+00
1.521421899999999931e-02,-2.423721623020000049e+00,1.344562003109999945e-02,-9.481177105910001401e+00,5.506808869540000088e-03,-3.194469027219999820e-03,3.649776102979999937e-03,1.000000000000000000e+00
2.015011200000000127e-02,-2.453492345779999972e+00,-7.056269478839999115e-04,-9.483494735199998971e+00,7.073190063239999208e-03,-6.513054016979998896e-03,-4.648331552739999942e-03,1.000000000000000000e+00
2.517193200000000103e-02,-2.446708530850000063e+00,-2.741722756459999757e-02,-9.537598665830000044e+00,-4.276745021340000279e-03,-1.351366750900000061e-03,-5.720695946370000194e-03,1.000000000000000000e+00
3.020943400000000029e-02,-2.461400342420000165e+00,8.697608657549999595e-03,-9.489984681739999317e+00,-6.196070462469999282e-04,-1.762864738700000225e-02,-1.987080788239999757e-03,1.000000000000000000e+00
3.516164299999999937e-02,-2.491917938020000278e+00,2.276182580709999737e-02,-9.519530509700000920e+00,1.676807878539999857e-03,5.659513175490000700e-03,1.066999044270000238e-02,1.000000000000000000e+00
4.013333000000000178e-02,-2.389089723970000190e+00,-4.388263266670000204e-03,-9.475424241469999842e+00,-1.019315700979999892e-02,-3.479835577310000610e-04,-4.251449368890000170e-03,1.000000000000000000e+00
4.510841799999999735e-02,-2.445208793820000004e+00,-2.470273987490000100e-02,-9.493831420299999380e+00,5.738798063249999861e-05,4.025144036860000760e-03,9.642424993220000086e-05,1.000000000000000000e+00
5.004968099999999864e-02,-2.419421587740000046e+00,-1.031066474000000115e-02,-9.487453117439999417e+00,-1.216509379449999886e-02,1.640382222829999889e-02,-1.772519014779999971e-02,1.000000000000000000e+00
5.500972300000000342e-02,-2.488234865589999956e+00,-1.911960598040000209e-02,-9.537871637549999448e+00,-1.717207953329999903e-03,1.016123592850000021e-02,6.104208529000000778e-03,1.000000000000000000e+00
6.001663100000000084e-02,-2.457004445549999971e+00,3.263052121650000109e-02,-9.484593636350000523e+00,-9.511302225290001189e-03,-9.635819122200000447e-03,-6.230344064529999039e-03,1.000000000000000000e+00
6.496489299999999578e-02,-2.462472940090000062e+00,3.387018482999999691e-02,-9.457475912319999622e+00,2.130114939059999692e-03,1.113071199509999866e-02,1.050506345929999759e-02,1.000000000000000000e+00
7.000015099999999657e-02,-2.431278468139999926e+00,-1.898387246269999913e-03,-9.477940023680000436e+00,-9.691300801929999750e-03,-8.063459768890000531e-03,-1.800167490730000125e-03,1.000000000000000000e+00
7.501706399999999442e-02,-2.454149640640000296e+00,-1.267094928920000155e-02,-9.482838317120000582e+00,-8.160840370689999030e-04,-1.759647391739999848e-03,1.120197353880000250e-03,1.000000000000000000e+00
8.003473899999999364e-02,-2.444473903670000059e+00,-2.931782788840000056e-02,-9.474883558720000210e+00,-3.375370288270000360e-04,-4.599878564479999155e-03,8.132663555439999595e-03,1.000000000000000000e+00
8.503735399999999556e-02,-2.392478635759999861e+00,-1.864156868100000017e-02,-9.484090362999999968e+00,-7.276868447659999052e-03,1.178966648879999947e-02,-1.860954798759999890e-02,1.000000000000000000e+00
9.019120199999999810e-02,-2.526419927080000072e+00,-2.434958818890000168e-02,-9.473315871010001388e+00,-6.003335583959999548e-03,-2.040148247030000063e-03,2.164413454010000182e-03,1.000000000000000000e+00
9.505096500000000115e-02,-2.483906480999999999e+00,-1.836469025160000030e-03,-9.475240117069999357e+00,-1.008706632999999998e-02,-1.748883165420000085e-03,1.120647042990000064e-02,1.000000000000000000e+00
1.001797710000000008e-01,-2.474727149250000036e+00,-2.187928223530000160e-02,-9.459263964779999867e+00,-1.250252500179999983e-02,-9.645565878600000304e-04,9.935617446900000399e-03,1.000000000000000000e+00
1.051526279999999980e-01,-2.446052989559999613e+00,-3.387441119720000643e-02,-9.461063707679999268e+00,-2.621585736050000524e-03,-2.927225548769999807e-03,6.144170649349999999e-03,1.000000000000000000e+00
1.100458960000000042e-01,-2.429651451459999834e+00,9.791788540089999687e-03,-9.502975680739998765e+00,5.625619669439999634e-04,-2.001333981749999977e-03,-8.760028518739998438e-03,1.000000000000000000e+00
1.151791939999999986e-01,-2.488685531969999865e+00,-2.320159861399999704e-02,-9.464723983760000792e+00,5.889338790440000601e-04,-3.205752465869999776e-03,9.268134832379999050e-03,1.000000000000000000e+00
1.202073979999999931e-01,-2.447994917399999970e+00,5.512873450119998991e-02,-9.487745962900000052e+00,-8.366266265510000077e-03,-3.352831117809999920e-05,2.890978707000000422e-03,1.000000000000000000e+00
1.251358919999999986e-01,-2.475100074209999779e+00,1.835769882179999826e-02,-9.485607197310001126e+00,-1.099953800439999914e-02,1.309761963779999816e-02,-1.556446310129999981e-03,1.000000000000000000e+00
1.300432649999999912e-01,-2.434155484880000220e+00,-2.245482623410000045e-02,-9.505986552989998728e+00,-1.263616140930000050e-03,5.592811852689999821e-03,8.174304384740000134e-04,1.000000000000000000e+00
1.350070949999999936e-01,-2.454896367349999942e+00,-2.105916149150000027e-02,-9.486597377389999863e+00,5.060316063459999875e-03,1.895544119179999945e-02,8.317927829920000043e-03,1.000000000000000000e+00
1.401860159999999966e-01,-2.415964725279999836e+00,-3.124383093980000105e-03,-9.482667052200000057e+00,-1.039779745039999884e-02,7.425355724990000128e-03,-1.242174394429999829e-02,1.000000000000000000e+00
1.449662840000000008e-01,-2.488758597209999923e+00,1.183441055839999862e-03,-9.526237898379999791e+00,-3.896971466019999875e-03,9.690383449199999793e-04,1.429878640920000110e-02,1.000000000000000000e+00
1.500176420000000066e-01,-2.421435850170000403e+00,-1.046128644110000047e-03,-9.513942480429999904e+00,-3.524849656969999707e-03,-1.050039194520000115e-02,5.917774979030000077e-04,1.000000000000000000e+00
1.551644779999999946e-01,-2.423039778240000164e+00,2.151400400330000240e-02,-9.514394900379999243e+00,-1.651845313610000171e-02,1.016921550039999976e-02,-7.232672534880000420e-03,1.000000000000000000e+00
1.601869670000000134e-01,-2.472758479520000385e+00,1.237674869059999898e-02,-9.483595272960000599e+00,-4.703923128550000117e-03,8.726156316700000096e-03,-5.599945783619999021e-03,1.000000000000000000e+00
1.651782400000000040e-01,-2.427161680470000249e+00,2.913246138409999672e-02,-9.460634084089999618e+00,-4.611141979689999289e-03,1.173924934120000076e-02,-1.362281944600000037e-02,1.000000000000000000e+00
1.701425159999999936e-01,-2.470043083080000201e+00,1.094094030890000076e-02,-9.502174885749999689e+00,1.369445351880000132e-03,8.378706872459999733e-03,-1.211444847289999986e-03,1.000000000000000000e+00
1.751312780000000013e-01,-2.453783145420000089e+00,-1.609209768560000003e-02,-9.472779279919999240e+00,5.088471341879999797e-03,4.956285469229999852e-03,-7.032037712629999812e-03,1.000000000000000000e+00
1.800503460000000000e-01,-2.463162383659999843e+00,-2.458697029149999741e-02,-9.478464339820000362e+00,1.043035369370000007e-02,1.039924100039999952e-02,8.934500627219999630e-03,1.000000000000000000e+00
1.849862339999999994e-01,-2.445581280389999890e+00,-4.609187538959999553e-02,-9.502442012250000403e+00,3.026325255630000089e-03,4.128485452379999877e-04,-1.369186211379999814e-04,1.000000000000000000e+00
1.901911609999999975e-01,-2.428008652690000435e+00,7.361570285060000350e-03,-9.504463288949999367e+00,-6.015354767440000104e-03,1.537913084030000099e-02,-1.040908507999999989e-02,1.000000000000000000e+00
1.950047149999999951e-01,-2.476052844890000326e+00,8.547430485199999928e-03,-9.503384846060001223e+00,6.923323962839999894e-03,1.615479774770000113e-02,5.657264031469999739e-03,1.000000000000000000e+00
2.001458969999999893e-01,-2.443634676369999870e+00,-3.763838054040000158e-02,-9.479242338449999750e+00,-8.119300939140001311e-03,1.208636723459999979e-02,6.067226640879999459e-03,1.000000000000000000e+00
2.051982780000000117e-01,-2.435456630610000062e+00,-1.848446700670000262e-02,-9.477323353089998292e+00,-1.233819127080000057e-02,1.206022873520000080e-02,-1.278346870089999872e-02,1.000000000000000000e+00
2.101855649999999909e-01,-2.459185296720000302e+00,1.970515306669999925e-02,-9.455441191629999409e+00,-5.149303935470000114e-03,-4.623294807970000815e-03,-1.065053232010000107e-02,1.000000000000000000e+00
2.151736969999999971e-01,-2.481567516659999750e+00,-6.150882745980000088e-04,-9.466090595929999907e+00,8.516774512830000213e-03,1.390120200810000123e-02,3.934018313880000180e-03,1.000000000000000000e+00
2.201460560000000066e-01,-2.436813598180000096e+00,1.567408918599999881e-02,-9.503509349219999791e+00,-1.287981681529999992e-02,4.887713585050000326e-04,1.269574975589999937e-03,1.000000000000000000e+00
2.251351779999999914e-01,-2.394081687040000350e+00,9.836443957499999696e-03,-9.485920501039998953e+00,-1.305216457690000151e-03,-1.062014885250000054e-02,-1.710354909299999920e-02,1.000000000000000000e+00
2.301891460000000111e-01,-2.439383594790000220e+00,2.397969086399999797e-02,-9.491464106639998732e+00,3.294022288169999764e-03,-1.310255751009999949e-02,-6.807441823180000523e-04,1.000000000000000000e+00
2.351610560000000072e-01,-2.431479397539999976e+00,-4.499469127009999604e-03,-9.486299271230000940e+00,3.106492338700000098e-03,3.133024089040000078e-03,8.435385301710000838e-03,1.000000000000000000e+00
2.401608960000000126e-01,-2.395773439520000103e+00,-3.457946104390000053e-02,-9.532172549129999339e+00,-1.794757787140000222e-03,1.152702700350000109e-02,-8.286095224320000341e-03,1.000000000000000000e+00
2.449444020000000055e-01,-2.480024963390000003e+00,1.583119542680000089e-02,-9.501199903239998079e+00,-1.151016261429999889e-02,-1.184657495469999995e-02,-8.434607647359999155e-03,1.000000000000000000e+00
2.500161000000000189e-01,-2.460581134989999974e+00,4.668435682350000060e-02,-9.497503971329999573e+00,5.473267287020000191e-03,3.248650114979999975e-03,-3.597342176360000289e-03,1.000000000000000000e+00
2.549991810000000192e-01,-2.424644436949999982e+00,5.262167901719999596e-02,-9.488705163320000580e+00,1.794940419500000092e-02,-3.573480993510000370e-03,-4.820889327680000398e-03,1.000000000000000000e+00
2.601644129999999833e-01,-2.443810617460000056e+00,-4.528081016850000334e-03,-9.501003503879999812e+00,-1.861428143459999997e-03,-2.562839165329999780e-02,-3.467801026999999849e-03,1.000000000000000000e+00
2.651237220000000061e-01,-2.459975862579999895e+00,2.356715769050000443e-03,-9.533055177180001394e+00,-3.754585981369999974e-03,5.555075593289999190e-03,2.476006047800000283e-03,1.000000000000000000e+00
2.701269840000000144e-01,-2.422227146679999610e+00,9.740159959189999966e-03,-9.500025014239998455e+00,8.573958650229999631e-03,1.522591151300000008e-02,-5.226697772740000227e-03,1.000000000000000000e+00
2.751087139999999764e-01,-2.470523560079999736e+00,-1.159280437179999873e-02,-9.502636658039998352e+00,1.547928992660000010e-02,-6.100712344049999750e-04,-2.517568413169999925e-03,1.000000000000000000e+00
2.800368320000000133e-01,-2.475138068130000146e+00,3.272452420949999857e-02,-9.472734856249999780e+00,1.735988631840000226e-02,-8.906150236730000017e-03,-4.369752481580000021e-03,1.000000000000000000e+00
2.849880009999999908e-01,-2.461122109999999807e+00,-2.223125346119999776e-02,-9.487571775379999295e+00,1.398151833559999925e-02,3.827139735219999700e-03,2.631029812619999943e-03,1.000000000000000000e+00
2.902006360000000118e-01,-2.454890522140000364e+00,-3.165627164019999690e-02,-9.484588960179999972e+00,7.291499525310000257e-03,9.827077388759999921e-03,-2.769051585350000046e-03,1.000000000000000000e+00
2.949928780000000139e-01,-2.421148411529999933e+00,-2.349295309320000025e-02,-9.498141100189998909e+00,-1.637907326220000223e-02,8.129706606269999913e-03,-1.889570802449999989e-02,1.000000000000000000e+00
3.001305739999999833e-01,-2.475896193020000080e+00,2.159063573640000039e-02,-9.503783489989999111e+00,1.771397888660000263e-03,1.573280058800000103e-02,2.406056737529999913e-03,1.000000000000000000e+00
3.051696819999999977e-01,-2.452060267150000250e+00,1.490535613610000087e-02,-9.463528051970000021e+00,1.383191533389999985e-02,2.446631900969999888e-03,-3.086250973869999852e-03,1.000000000000000000e+00
3.101481360000000187e-01,-2.412814006170000081e+00,6.279769251830000579e-03,-9.476892560459999615e+00,1.541289966549999970e-04,1.461900956929999829e-02,-2.445515710860000306e-03,1.000000000000000000e+00
3.151868789999999754e-01,-2.393475245579999910e+00,-4.254024732259999858e-02,-9.489221296149999318e+00,9.247750975190000694e-03,1.712487265469999839e-02,-1.940169371659999920e-02,1.000000000000000000e+00
3.201939540000000028e-01,-2.488869364109999704e+00,3.264560462120000262e-04,-9.501414422769999035e+00,4.148853477089999540e-03,1.840008981529999907e-02,-9.347852319479999991e-03,1.000000000000000000e+00
3.251079040000000031e-01,-2.484141166540000167e+00,7.353366999829999244e-03,-9.505639931510000196e+00,5.047316197310000412e-03,9.212687145919999827e-04,8.715723641219998846e-03,1.000000000000000000e+00
3.300425799999999743e-01,-2.452845864569999978e+00,7.510459540970000278e-03,-9.498874090639999324e+00,7.131169084459999460e-03,1.010209135710000115e-02,-3.196524456139999536e-03,1.000000000000000000e+00
3.350381570000000031e-01,-2.405374065429999764e+00,-1.993654838640000065e-02,-9.487113510220000379e+00,9.422724135219998770e-03,3.050235565749999898e-03,-1.207040064039999888e-02,1.000000000000000000e+00
3.401889269999999743e-01,-2.432796909879999969e+00,-1.981147326009999755e-03,-9.476340187270000825e+00,9.839376434680000699e-04,-7.016216404740000445e-04,-9.850435890260000535e-03,1.000000000000000000e+00
3.450136979999999798e-01,-2.485669106760000080e+00,-7.794665614339999979e-03,-9.470825223239998536e+00,1.483198255300000046e-02,-6.294454447930000057e-03,7.085961289699999228e-03,1.000000000000000000e+00
3.500369219999999726e-01,-2.395729454250000057e+00,-3.683675671770000187e-02,-9.513402382210001562e+00,1.961174421010000030e-02,-3.652250161390000003e-03,-3.832221729679999821e-03,1.000000000000000000e+00
3.551679669999999733e-01,-2.483317867459999828e+00,-1.982068518809999846e-02,-9.494031911300000459e+00,3.230285132300000223e-03,-1.419274951329999902e-03,2.012838376689999806e-03,1.000000000000000000e+00
3.601800789999999863e-01,-2.409378771020000087e+00,7.254750622180001010e-03,-9.508619239579999771e+00,1.445574592800000051e-02,4.439874552189999359e-03,-7.676064036789999670e-03,1.000000000000000000e+00
3.651415379999999877e-01,-2.451398003840000062e+00,-3.127999252349999634e-03,-9.483809207980000267e+00,1.049967296420000092e-02,1.222654804590000109e-02,-1.124115288260000081e-02,1.000000000000000000e+00
3.700230039999999887e-01,-2.409406681940000183e+00,4.818776196510000422e-03,-9.506808390770000727e+00,-1.414022641259999984e-03,4.809185396879999894e-03,-1.056277565660000001e-02,1.000000000000000000e+00
3.751514209999999849e-01,-2.463359075270000087e+00,-2.506167855610000068e-03,-9.540508415799999753e+00,1.317301532249999822e-03,2.304196823389999954e-03,2.874438883739999576e-03,1.000000000000000000e+00
3.800174869999999872e-01,-2.422470746180000134e+00,-3.923136480319999730e-02,-9.529105562769998983e+00,1.316304132339999981e-02,6.024508737029999998e-03,-1.153111550960000085e-02,1.000000000000000000e+00
3.850344210000000156e-01,-2.457273033359999914e+00,-1.507955507559999991e-02,-9.483048160479999211e+00,5.943867377939999856e-03,1.039234548810000040e-02,-3.048379905520000061e-03,1.000000000000000000e+00
3.901612640000000076e-01,-2.422801001039999846e+00,-4.976205180229999886e-02,-9.502077270589998292e+00,1.248397864400000064e-02,1.770851667970000157e-04,-8.794442750510000906e-03,1.000000000000000000e+00
3.950086789999999737e-01,-2.464707567270000066e+00,-1.512997922180000024e-02,-9.492346150170000385e+00,1.775345206259999753e-02,-5.611327476800000678e-03,-8.065407164389999358e-04,1.000000000000000000e+00
4.001908410000000194e-01,-2.421015725059999735e+00,-3.901928382199999767e-02,-9.504090948500000025e+00,5.452622659500000468e-03,-5.008060950789999625e-03,-1.530760526659999919e-02,1.000000000000000000e+00
4.051575199999999932e-01,-2.484601185270000290e+00,-2.551731679399999939e-02,-9.463113041430000649e+00,1.344612892720000071e-02,1.383736263960000119e-03,-6.370911840350000459e-03,1.000000000000000000e+00
4.101824539999999741e-01,-2.444678486329999956e+00,-1.161711112100000109e-02,-9.492792724899999257e+00,1.596441678700000200e-02,2.908950205889999484e-03,-1.245344756170000105e-03,1.000000000000000000e+00
4.151212060000000204e-01,-2.496492990850000204e+00,-2.082881420120000215e-02,-9.485959664010000125e+00,-1.702989917249999935e-03,3.312620799989999653e-03,-4.540906287729999484e-03,1.000000000000000000e+00
4.201939749999999973e-01,-2.452656187209999672e+00,-4.005384190099999658e-02,-9.486190550149999012e+00,4.605667665600000384e-03,9.678239934149998613e-03,-2.892610384150000324e-03,1.000000000000000000e+00
4.251500699999999910e-01,-2.521050216740000405e+00,1.243165493229999967e-02,-9.489863685710000496e+00,9.349779225890000184e-03,3.512885421509999960e-03,7.821668870750000252e-03,1.000000000000000000e+00
4.300347860000000022e-01,-2.420265929609999755e+00,-1.187046596920000169e-02,-9.518120642899999595e+00,1.598291657870000090e-02,8.668843656779999822e-05,5.342784337699999636e-03,1.000000000000000000e+00
4.350136689999999917e-01,-2.421727526590000235e+00,-1.617261100940000154e-02,-9.460020336110000372e+00,-5.041406489909999733e-03,-7.843817584220000175e-04,1.036645658310000016e-02,1.000000000000000000e+00
4.401558680000000057e-01,-2.331950078899999834e+00,2.313913468690000086e-02,-9.563604044699999918e+00,2.022985368970000100e-02,-1.877367496489999949e-03,2.735373796900000126e-03,1.000000000000000000e+00
4.450260240000000200e-01,-2.410516689010000047e+00,-2.943036661849999722e-02,-9.484655011150000092e+00,8.438703604040000833e-03,-8.464157581329999694e-03,-3.592148656030000591e-03,1.000000000000000000e+00
4.500467730000000111e-01,-2.484182667589999838e+00,-2.099737341779999919e-02,-9.495041965129999539e+00,1.791002415120000052e-02,-8.792539127170000482e-03,-3.679865039890000528e-04,1.000000000000000000e+00
4.551385700000000201e-01,-2.493442663370000201e+00,2.593585958320000079e-02,-9.433267353739999805e+00,-4.849674645810000094e-03,-1.067519187929999967e-03,6.221620365979999533e-03,1.000000000000000000e+00
4.601793140000000060e-01,-2.396168284049999819e+00,-1.934186928729999871e-03,-9.461496838400000442e+00,1.259565074000000041e-02,-6.943702697750000520e-03,1.378000481049999849e-03,1.000000000000000000e+00
4.650879259999999848e-01,-2.431068332520000208e+00,-8.045761148449999053e-03,-9.489450428730000553e+00,7.289734203369999631e-03,1.524863764639999971e-03,3.258501412350000084e-03,1.000000000000000000e+00
4.701795509999999734e-01,-2.418130671150000133e+00,-4.702235660619999424e-02,-9.455890688960000290e+00,2.762029692530000233e-02,-1.279545202849999980e-02,7.081120274960000507e-04,1.000000000000000000e+00
4.751360889999999837e-01,-2.393888502549999853e+00,-3.883939721040000070e-02,-9.461492746750000293e+00,2.867337781940000347e-03,2.993025816980000430e-03,-7.207640446719998633e-04,1.000000000000000000e+00
4.801775640000000012e-01,-2.408290245129999896e+00,-5.603417717469999504e-02,-9.531252511669999095e+00,4.721910692749999895e-03,7.742336019870000013e-04,-3.587619168679999880e-03,1.000000000000000000e+00
4.850290529999999878e-01,-2.403332622729999812e+00,-5.068427208060000133e-02,-9.467720827480000878e+00,8.910228498279999798e-03,1.020783185960000110e-02,-1.494667585939999863e-02,1.000000000000000000e+00
4.901490419999999792e-01,-2.405322189109999620e+00,-6.648919142190000409e-02,-9.501420267989999502e+00,1.746070012449999972e-02,5.931854248050000972e-03,-1.814834028479999847e-02,1.000000000000000000e+00
4.950116050000000212e-01,-2.431244711999999808e+00,-4.477217565980000369e-02,-9.461342524620000916e+00,2.364586107429999477e-03,-6.155143491919999599e-03,-2.409827196970000009e-03,1.000000000000000000e+00
4.999557450000000070e-01,-2.480149758820000105e+00,-7.099525240319999597e-02,-9.500587324299999636e+00,7.122041657570000149e-03,-1.598111726339999927e-02,-2.270371420310000107e-03,1.000000000000000000e+00
5.051772620000000158e-01,-2.447845572059999864e+00,-4.371920057469999565e-02,-9.496933477960000758e+00,1.488170307129999849e-02,-1.931195147339999927e-03,-2.511129016060000083e-03,1.000000000000000000e+00
5.102131739999999915e-01,-2.403748071659999930e+00,-6.976836721459999530e-03,-9.500404368949999068e+00,1.033402420579999925e-02,-6.929133553060001088e-03,-1.090681739150000003e-02,1.000000000000000000e+00
5.151415769999999617e-01,-2.421456308440000260e+00,-2.469834226100000099e-02,-9.491569320580000024e+00,3.927492070939999844e-03,-8.552892133589999613e-03,-1.650676317510000116e-02,1.000000000000000000e+00
5.201911000000000174e-01,-2.483694591819999964e+00,1.224585574490000099e-02,-9.489047693150000740e+00,1.009489875290000074e-02,-5.957720801229999565e-03,2.612057840449999620e-03,1.000000000000000000e+00
5.251315210000000455e-01,-2.407299188270000112e+00,-3.929679472230000747e-02,-9.512888587469999990e+00,7.897829636930000369e-03,-4.611543379720000300e-03,9.774949401620000936e-03,1.000000000000000000e+00
5.300389460000000108e-01,-2.461094637470000013e+00,-3.105637865140000245e-02,-9.547027588429999767e+00,-9.861052967610001163e-03,-5.064555909480000090e-03,1.449431013320000121e-02,1.000000000000000000e+00
5.350359270000000222e-01,-2.417835779850000311e+00,-1.271037711720000027e-03,-9.526796701310001225e+00,2.073803916569999951e-03,-7.629365660249999570e-03,1.512266602370000018e-02,1.000000000000000000e+00
5.401911339999999617e-01,-2.346073150670000107e+00,8.176888702090000932e-03,-9.525146596009999911e+00,1.470520254220000073e-02,-1.989518292249999824e-03,-9.168130345639999290e-03,1.000000000000000000e+00
5.450273740000000089e-01,-2.408360241630000065e+00,6.977289954249999565e-03,-9.530787232250000685e+00,2.264667302370000287e-02,-7.445649709549999849e-03,-7.210290059449999886e-03,1.000000000000000000e+00
5.499876759999999809e-01,-2.384619154429999721e+00,-3.450744612050000298e-02,-9.517138646130000268e+00,1.110038254410000052e-03,-1.397730130700000108e-02,-2.133675850929999882e-02,1.000000000000000000e+00
5.550022970000000333e-01,-2.459015785370000096e+00,-1.656962238670000101e-02,-9.503350943790000116e+00,6.158906966450000339e-03,1.038187183440000046e-03,-1.139721181240000054e-02,1.000000000000000000e+00
5.600232109999999652e-01,-2.496942195919999996e+00,-4.478278381869999630e-02,-9.482790970840000000e+00,1.319691073150000039e-02,-2.284974791110000372e-03,-4.285631235690000318e-03,1.000000000000000000e+00
5.650067939999999789e-01,-2.493927524280000085e+00,-4.603240485389999831e-02,-9.482818443370000239e+00,5.506931804120000253e-03,-1.308017876000000003e-02,9.820039384069998920e-03,1.000000000000000000e+00
5.700446770000000551e-01,-2.373849338609999915e+00,-5.798934923839999672e-03,-9.490244209460000135e+00,8.842939510939999692e-03,-2.967193489889999574e-03,-1.684512384240000049e-02,1.000000000000000000e+00
5.749810429999999695e-01,-2.515038701369999963e+00,-1.372392323259999901e-02,-9.463735557239999707e+00,8.061124011869999148e-03,-6.638108752669999663e-04,4.046047106389999773e-03,1.000000000000000000e+00
5.800219020000000336e-01,-2.426042028789999971e+00,-4.135201478559999422e-02,-9.482325106900001188e+00,1.213526166979999980e-02,-1.060778088870000142e-02,-4.831416532399999790e-03,1.000000000000000000e+00
5.849882079999999540e-01,-2.433580753729999824e+00,-9.497165533160001338e-02,-9.487138644660001674e+00,5.063396878539999819e-03,3.034554887559999959e-03,-2.382086124269999945e-03,1.000000000000000000e+00
5.901818810000000193e-01,-2.471792557100000121e+00,-9.101735561470000735e-02,-9.460825807269999999e+00,1.633348688479999838e-02,-3.013446182009999613e-02,-2.951078582559999580e-03,1.000000000000000000e+00
5.949786510000000250e-01,-2.403874036129999947e+00,-8.449642028020000473e-02,-9.510168807110000344e+00,2.566540380939999998e-03,-1.764817349609999753e-02,-1.132310554389999967e-02,1.000000000000000000e+00
5.999973579999999806e-01,-2.483805650969999945e+00,-7.108619122280000757e-02,-9.483259757400000822e+00,1.304527930920000231e-02,-2.386490628119999902e-02,7.786232978109998946e-03,1.000000000000000000e+00
6.051644229999999514e-01,-2.433306905229999817e+00,-8.206718726420000540e-03,-9.504970653950000070e+00,-9.576485492290001331e-03,-2.159461937840000123e-02,-2.634039847180000109e-03,1.000000000000000000e+00
6.101790799999999848e-01,-2.492974169080000024e+00,-3.750821710530000130e-02,-9.465803595689999739e+00,-2.853324171159999766e-03,-2.417108789090000043e-02,3.760926658290000141e-03,1.000000000000000000e+00
6.151453180000000520e-01,-2.460482350790000439e+00,-6.028382027599999554e-02,-9.484821015369998776e+00,9.448502212759999838e-03,-1.504740770909999970e-02,-4.796892404560000600e-03,1.000000000000000000e+00
6.201847639999999995e-01,-2.479467914029999775e+00,-8.984905162080000784e-02,-9.458803361539999344e+00,-9.083380922680000386e-03,-7.581301499159999284e-03,4.049673676489999596e-03,1.000000000000000000e+00
6.251184739999999795e-01,-2.423829759570000242e+00,-7.219407939949999686e-02,-9.479289100199999041e+00,-9.700830094520000030e-03,1.099880319089999967e-04,-1.413501426579999963e-02,1.000000000000000000e+00
6.300403060000000499e-01,-2.456662500240000213e+00,-7.091424132250000179e-02,-9.461893728769998901e+00,-5.940351169560001421e-03,-2.759915078060000242e-03,-7.004348561169999876e-03,1.000000000000000000e+00
6.349785820000000136e-01,-2.491070965800000092e+00,-5.670199343360000227e-02,-9.478056343540000483e+00,-7.226471323520000656e-03,-2.211090875789999740e-03,6.454551592470000355e-03,1.000000000000000000e+00
6.401552400000000143e-01,-2.405735738340000207e+00,-4.488007931390000649e-02,-9.476460014260000619e+00,-1.154687162490000002e-02,1.312184520070000006e-02,-1.129480544479999869e-02,1.000000000000000000e+00
6.451317869999999566e-01,-2.426070231969999824e+00,-4.064337332590000490e-02,-9.522800325149999523e+00,-1.386259775610000113e-02,-1.325180660930000073e-02,-1.624979311599999846e-03,1.000000000000000000e+00
6.500246830000000475e-01,-2.437024464449999872e+00,-6.637578047559999916e-02,-9.491453000730000866e+00,-6.162053439770000599e-03,-2.519753528760000204e-03,-9.720142930750000701e-03,1.000000000000000000e+00
6.551177889999999504e-01,-2.488535017579999842e+00,-4.725862674719999434e-02,-9.489812247779999765e+00,-1.727812923490000194e-02,-3.254365408789999629e-03,-1.763606909659999914e-03,1.000000000000000000e+00
6.601703549999999865e-01,-2.533354694779999861e+00,-4.111944357219999430e-02,-9.488393028630000003e+00,5.818793084469999627e-03,6.601649336520000466e-03,3.476291196419999899e-03,1.000000000000000000e+00
6.651464759999999865e-01,-2.502791798730000128e+00,-5.552066099480000572e-02,-9.494840889600000722e+00,-1.387157477440000009e-02,-8.208734914659999299e-03,3.376310458410000052e-03,1.000000000000000000e+00
6.701944629999999625e-01,-2.481567808920000395e+00,-6.621756227309999465e-02,-9.479106729369998874e+00,-1.651106029750000134e-02,-8.876735344530000196e-03,1.069139223550000066e-02,1.000000000000000000e+00
6.751325879999999779e-01,-2.439082858279999932e+00,-4.021569966550000291e-02,-9.491688563049999416e+00,-2.962632663550000128e-02,6.545626092699999288e-04,4.470216110350000785e-03,1.000000000000000000e+00
6.801672840000000386e-01,-2.479386373229999663e+00,-6.987487920429999444e-02,-9.490902381110000618e+00,-1.298073306679999907e-02,-5.096581764520000460e-03,8.795486763120001147e-03,1.000000000000000000e+00
6.851084720000000239e-01,-2.404131810280000003e+00,-3.193305645470000120e-02,-9.479817507989999115e+00,-6.205239333209999937e-03,-1.011458924039999917e-03,5.581133067609999471e-03,1.000000000000000000e+00
6.900378489999999809e-01,-2.414807664200000037e+00,-2.857949682659999963e-02,-9.511562307300000185e+00,-2.186347544190000297e-02,3.795502241699999935e-03,-7.486713584510001256e-04,1.000000000000000000e+00
6.950030820000000498e-01,-2.470794485969999954e+00,4.946121025880000771e-02,-9.437468312560000072e+00,-1.713622547690000011e-02,-8.106370456520000517e-03,9.404560551049998343e-03,1.000000000000000000e+00
6.999835730000000256e-01,-2.452918929800000036e+00,4.117392740550000069e-02,-9.436002916179999644e+00,-2.330750599500000173e-02,-1.486303051930000030e-03,6.716436706479999609e-03,1.000000000000000000e+00
7.051347749999999914e-01,-2.480775781759999798e+00,-1.498922817739999774e-02,-9.477712644669999520e+00,-3.576397150749999893e-02,-6.750627420840000364e-03,3.680022200570000086e-03,1.000000000000000000e+00
7.100272789999999556e-01,-2.527914549550000167e+00,-3.749538502319999661e-02,-9.477964573599999554e+00,-3.346754238010000299e-02,6.504141725600000833e-03,1.106993108989999877e-02,1.000000000000000000e+00
7.151678270000000337e-01,-2.433649581190000077e+00,-8.035282680260000254e-02,-9.452329197080000966e+00,-2.478277310729999974e-02,8.627190254629999995e-05,7.294599898160000068e-03,1.000000000000000000e+00
7.201477520000000299e-01,-2.439643414769999907e+00,-8.424058235560000218e-02,-9.484821599889999177e+00,-3.986089304090000007e-02,-3.915489651259999784e-04,1.198822539300000052e-02,1.000000000000000000e+00
7.250600219999999707e-01,-2.474462360830000041e+00,-7.565860457169999720e-02,-9.474017881800000040e+00,-3.671978786590000127e-02,2.191854268309999590e-02,1.133772451429999883e-02,1.000000000000000000e+00
7.301748829999999968e-01,-2.488595807859999898e+00,-5.045278771259999878e-02,-9.457969833319999964e+00,-2.870177105070000068e-02,5.371731705960000776e-03,5.312499590220000519e-03,1.000000000000000000e+00
7.350718019999999964e-01,-2.448596828819999960e+00,2.553639823709999770e-02,-9.443913250919999669e+00,-1.889639720320000077e-02,5.509104579689999906e-03,1.553296949710000069e-02,1.000000000000000000e+00
7.401553749999999487e-01,-2.437212680500000062e+00,2.148589672030000106e-02,-9.506616083069999945e+00,-2.912677265699999823e-02,1.926678977909999924e-02,1.128555927429999994e-02,1.000000000000000000e+00
7.450312140000000527e-01,-2.503977793650000283e+00,5.400985913970000191e-02,-9.481436633630000443e+00,-1.372710242870000229e-02,3.656301181760000102e-03,1.393118966369999955e-02,1.000000000000000000e+00
7.502597290000000418e-01,-2.480618837629999796e+00,5.364197339199999921e-03,-9.461237895210000914e+00,-3.522377088669999268e-02,6.764480844140000754e-03,1.222453732039999880e-02,1.000000000000000000e+00
7.551452020000000154e-01,-2.463533262799999957e+00,5.396623006049999782e-02,-9.470625316749998746e+00,-3.131787106390000047e-02,-2.311868593100000065e-04,1.378524955360000033e-02,1.000000000000000000e+00
7.599924869999999943e-01,-2.422491788959999948e+00,5.569889907199999934e-02,-9.401869760439998558e+00,-2.417512796820000393e-02,7.058279588819999688e-04,1.851324224839999812e-03,1.000000000000000000e+00
7.650497179999999897e-01,-2.454355976870000067e+00,-2.755117440890000186e-02,-9.400106842419999609e+00,-4.296510294080000542e-02,6.298475898800000132e-03,6.700295023619999395e-03,1.000000000000000000e+00
7.701711970000000296e-01,-2.345954346600000129e+00,1.115800456759999913e-02,-9.418985730410000201e+00,-4.078928753730000356e-02,4.998400807379999727e-03,1.025608275089999986e-02,1.000000000000000000e+00
7.749738809999999756e-01,-2.336907993570000119e+00,-1.342246063460000166e-02,-9.515107432560000689e+00,-3.666023910050000140e-02,8.854973129930000710e-04,3.371066646649999859e-03,1.000000000000000000e+00
7.801671129999999676e-01,-2.501600835379999666e+00,-8.259261193590000313e-03,-9.514284425739999662e+00,-2.525562793020000307e-02,-6.098766811189999977e-03,2.377019450070000373e-02,1.000000000000000000e+00
7.849805020000000244e-01,-2.076444747270000057e+00,-1.360373868220000060e-01,-9.287588132219999792e+00,-4.377559199929999950e-02,8.197480812670000783e-03,9.676625020799998339e-03,1.000000000000000000e+00
7.901229229999999770e-01,-2.748277256140000180e+00,6.985983233220000033e-02,-9.546571661359999794e+00,-2.495206706229999988e-02,-1.221336796879999957e-02,1.489555230360000001e-03,1.000000000000000000e+00
7.951156670000000259e-01,-2.611795486550000156e+00,-7.234737026509999690e-03,-9.311341348250000038e+00,-3.177712857720000478e-02,-4.219929222019999475e-03,1.309017371389999997e-02,1.000000000000000000e+00
8.000004109999999669e-01,-2.122665961830000114e+00,-1.261085336070000007e-01,-9.391626598840000284e+00,-3.574014082549999832e-02,-1.242337375879999997e-02,4.809747450050000372e-03,1.000000000000000000e+00
8.051249780000000467e-01,-2.346355474749999726e+00,-9.131009148349999993e-02,-9.433003149850000213e+00,-3.528360277409999662e-02,-5.907120183109999464e-03,1.625037752090000009e-02,1.000000000000000000e+00
8.100057769999999824e-01,-2.301665123020000259e+00,-1.614291821069999966e-01,-9.554804067650000121e+00,-2.250248938800000070e-02,-1.492033991959999979e-02,1.574844494459999925e-02,1.000000000000000000e+00
8.151354050000000351e-01,-2.222696507979999847e+00,-8.958618116720000468e-02,-9.472545471160000119e+00,-2.611991763109999809e-02,-2.227272838349999770e-02,8.634646423159999390e-03,1.000000000000000000e+00
8.201429139999999451e-01,-2.286256541480000237e+00,-1.432434640099999879e-01,-9.509962470890000574e+00,-1.976984553040000286e-02,-2.311336621640000186e-02,6.590621545909999129e-03,1.000000000000000000e+00
8.250200389999999828e-01,-2.340229977599999955e+00,-1.840568829729999911e-01,-9.562665887070000537e+00,-3.910168632859999799e-02,-3.379397839309999929e-02,2.007313445209999922e-02,1.000000000000000000e+00
8.301723260000000160e-01,-2.423444413509999951e+00,-1.912095860059999930e-01,-9.344047686060001467e+00,-4.252679646020000176e-02,-5.351945757869999709e-02,9.139338508249999701e-03,1.000000000000000000e+00
8.351237479999999991e-01,-2.609392224800000104e+00,-1.931984126020000123e-02,-9.469974743889999047e+00,-4.355918616059999832e-02,-3.921889513730000137e-02,2.042681723830000115e-02,1.000000000000000000e+00
8.399891310000000555e-01,-2.403140315019999917e+00,1.365806451190000048e-01,-9.393506421239999682e+00,-3.819534555080000143e-02,-4.376615583900000245e-02,9.081459604200000854e-03,1.000000000000000000e+00
8.449858869999999911e-01,-2.539586282649999749e+00,1.859365775059999837e-01,-9.499818678010001349e+00,-4.038154333830000497e-02,-2.864613756539999972e-02,2.180142514409999857e-02,1.000000000000000000e+00
8.500035000000000229e-01,-2.540053315640000253e+00,2.008891589009999812e-01,-9.430116780749999705e+00,-5.029025673870000240e-02,-1.899719797069999994e-02,2.399776689710000216e-02,1.000000000000000000e+00
8.549984430000000524e-01,-2.491675361440000458e+00,2.056187812389999869e-01,-9.416990757200000672e+00,-4.170843213799999699e-02,-1.985128037630000050e-02,2.171620726590000119e-02,1.000000000000000000e+00
8.600150079999999697e-01,-2.423503011829999831e+00,2.138819297309999812e-01,-9.401925290019999437e+00,-3.702989965680000134e-02,-1.178742479529999894e-02,1.221279148010000204e-02,1.000000000000000000e+00
8.650006700000000270e-01,-2.506236970749999848e+00,2.221888077679999851e-01,-9.433330482100000580e+00,-3.340425714850000366e-02,-2.134117856620000239e-02,8.925657719370001103e-03,1.000000000000000000e+00
8.699927669999999447e-01,-2.486816523229999909e+00,1.227761925799999987e-01,-9.499189732459999647e+00,-3.510571643709999717e-02,-2.304106019439999820e-02,1.251833606510000148e-02,1.000000000000000000e+00
8.751206969999999474e-01,-2.377275221409999695e+00,2.115104787590000451e-02,-9.518077972800000452e+00,-3.500959649680000091e-02,-3.639066964390000325e-02,1.125692110509999948e-02,1.000000000000000000e+00
8.800062410000000224e-01,-2.439177989220000065e+00,6.659222710469998863e-02,-9.498712178080001678e+00,-3.804254904390000358e-02,-1.704657264049999968e-02,3.097460232680000064e-02,1.000000000000000000e+00
8.849654639999999794e-01,-2.368581481210000117e+00,-2.623414384340000405e-02,-9.512948793219999644e+00,-4.501490294929999525e-02,-2.440240979190000381e-02,4.151361063119999792e-03,1.000000000000000000e+00
8.899872089999999458e-01,-2.520352005339999923e+00,-4.626762924869999571e-02,-9.519189148909999787e+00,-3.385715931650000454e-02,-2.116704918440000249e-02,2.037357538939999976e-02,1.000000000000000000e+00
8.949713969999999463e-01,-2.517970955430000046e+00,3.132261923899999634e-02,-9.512038692639999127e+00,-2.891120314600000019e-02,-3.289640694860000020e-02,4.919703118499999840e-03,1.000000000000000000e+00
8.999963699999999900e-01,-2.498553430509999895e+00,6.670355569180000388e-02,-9.519038342269999120e+00,-1.944103650749999870e-02,-3.746722638609999850e-02,1.401105616239999886e-02,1.000000000000000000e+00
9.050025959999999925e-01,-2.455848553509999643e+00,6.892163360010000739e-02,-9.529191487489999446e+00,-2.246035262940000374e-02,-1.966089196499999983e-02,1.169740222390000008e-02,1.000000000000000000e+00
9.099650750000000121e-01,-2.466159811909999888e+00,1.205062429209999980e-02,-9.509284425489999748e+00,-1.764073222879999903e-02,-1.005152799189999897e-02,7.487553171810000345e-03,1.000000000000000000e+00
9.150059680000000029e-01,-2.484647070240000311e+00,1.183050385149999988e-02,-9.528788167389999231e+00,-2.254295535390000299e-02,-2.110170759259999765e-02,1.999958977100000160e-02,1.000000000000000000e+00
9.200054909999999531e-01,-2.427509763259999787e+00,5.697355865030000188e-02,-9.529519404269999328e+00,-2.771401032809999929e-02,-2.432667464020000364e-02,1.046056486670000202e-02,1.000000000000000000e+00
9.249834310000000226e-01,-2.467008829950000148e+00,1.740652301869999863e-01,-9.478390105539999055e+00,-2.386449463669999826e-02,-2.301708981390000394e-02,9.284365922209998623e-03,1.000000000000000000e+00
9.301773949999999624e-01,-2.452140638909999559e+00,2.525626475150000161e-01,-9.471165414979999753e+00,-2.816702611740000070e-02,-3.108041919770000022e-02,1.033782586459999937e-02,1.000000000000000000e+00
9.349926349999999609e-01,-2.368275630129999865e+00,1.916856973510000228e-01,-9.465706565050000521e+00,-3.158420696849999904e-02,-5.004823952909999429e-02,5.971727892760000066e-03,1.000000000000000000e+00
9.400491450000000304e-01,-2.397389788669999966e+00,9.741437230860000573e-02,-9.507508647989999062e+00,-4.237494990230000758e-02,-2.658371813599999869e-02,8.283888921140000750e-03,1.000000000000000000e+00
9.451105939999999705e-01,-2.435770226599999866e+00,8.348442109289999635e-02,-9.489198499800000519e+00,-2.623149380090000066e-02,-1.287943497299999865e-02,3.837581956760000284e-03,1.000000000000000000e+00
9.501441680000000112e-01,-2.503115039340000347e+00,4.330273786140000775e-02,-9.493638528069999083e+00,-2.228021062909999947e-02,-4.600391536949999943e-02,-8.690158836540000376e-03,1.000000000000000000e+00
9.550198389999999815e-01,-2.491547058879999721e+00,3.024209855989999987e-02,-9.467743039319998388e+00,-7.255237549539999761e-03,-4.129941761489999696e-02,1.479711150750000030e-03,1.000000000000000000e+00
9.600283710000000470e-01,-2.439243163410000026e+00,8.069948595739999397e-03,-9.539141219099999347e+00,-4.461879376319999660e-03,-3.110187128189999956e-02,5.436435341839999762e-03,1.000000000000000000e+00
9.649054049999999938e-01,-2.516060445629999975e+00,6.200601355930000780e-02,-9.527461887219999426e+00,-1.415512338280000039e-02,-1.918340474370000201e-02,4.484220407899999067e-03,1.000000000000000000e+00
9.700915530000000508e-01,-2.512844113929999956e+00,7.758275930100000384e-02,-9.521128592540000213e+00,-3.070578165349999861e-02,-3.665839135650000163e-02,-6.503242067989999271e-03,1.000000000000000000e+00
9.750874139999999857e-01,-2.572358379169999765e+00,7.196195114400000259e-02,-9.485174651110000354e+00,-1.624807342890000061e-02,-3.837968409059999697e-02,1.070243492719999932e-02,1.000000000000000000e+00
9.801073479999999893e-01,-2.584408297930000042e+00,5.090650912969999636e-02,-9.465617717729999825e+00,-1.111681107429999919e-02,-4.320440441369999968e-02,7.675157859919999950e-03,1.000000000000000000e+00
9.849770909999999713e-01,-2.551837569190000377e+00,1.044010893909999849e-01,-9.471783839139998662e+00,-1.440059393639999893e-02,-4.511462897059999311e-02,-1.518525090070000153e-02,1.000000000000000000e+00
9.901399570000000150e-01,-2.582597449120000110e+00,9.602663514399999156e-02,-9.470981290580001044e+00,-9.915270842610001203e-03,-4.719013720750000335e-02,-1.449978351589999853e-02,1.000000000000000000e+00
9.951461449999999820e-01,-2.555425656809999779e+00,7.684409716239999633e-02,-9.465317273469999293e+00,-1.746094087140000195e-03,-3.207657486200000269e-02,8.460427634419998054e-04,1.000000000000000000e+00
1.000136251000000032e+00,-2.432253450649999760e+00,7.702101549869999619e-02,-9.543230534239999230e+00,-8.893512189389999462e-03,-3.680031001569999960e-02,1.479051774369999871e-03,1.000000000000000000e+00
1.005170402999999935e+00,-2.482572017529999897e+00,1.083052754890000136e-01,-9.531796701550000250e+00,-4.532263614239999926e-03,-2.091370336709999847e-02,-9.176726453010000673e-03,1.000000000000000000e+00
1.010143945999999904e+00,-2.565748021120000111e+00,1.336956551350000078e-01,-9.495401446089999808e+00,2.791688544679999957e-03,-2.461895346640000093e-02,8.805351331830000433e-03,1.000000000000000000e+00
1.015119075999999954e+00,-2.459742930600000044e+00,2.167920632910000089e-01,-9.500561020810000201e+00,-1.141592394559999904e-02,-2.730231173340000317e-02,-1.011046860370000064e-02,1.000000000000000000e+00
1.020165398000000057e+00,-2.503276659640000013e+00,1.273719411389999945e-01,-9.530540564009999827e+00,1.068920083339999945e-02,-2.677674405280000211e-02,-1.371154002850000046e-02,1.000000000000000000e+00
1.025140560999999950e+00,-2.586305363720000194e+00,1.191890639420000036e-01,-9.538310028969998910e+00,4.965981934220000359e-03,-2.098856307570000010e-02,-4.951183218510000518e-03,1.000000000000000000e+00
1.030136490999999932e+00,-2.600714705090000134e+00,1.458708168380000170e-01,-9.500032613020000127e+00,8.412731811400000689e-03,-3.966641426090000005e-02,-1.479751523579999999e-02,1.000000000000000000e+00
1.035129683999999939e+00,-2.606587981029999668e+00,1.065079802760000027e-01,-9.497269578050000050e+00,-2.866978291420000172e-03,-2.417799457909999838e-02,-2.451257780190000367e-03,1.000000000000000000e+00
1.040168423999999980e+00,-2.511858317770000237e+00,1.276837835669999976e-01,-9.501424944169999165e+00,1.674143038689999974e-02,-2.896119467909999759e-02,-1.017438620329999890e-02,1.000000000000000000e+00
1.045013412000000086e+00,-2.577350780629999782e+00,1.562993266709999940e-01,-9.511122746839998143e+00,1.206177100540000054e-02,-4.071720689540000299e-02,-6.242020986970000553e-03,1.000000000000000000e+00
1.049979870000000037e+00,-2.608102477250000106e+00,1.497425345720000134e-01,-9.469891157260001080e+00,1.506123039870000020e-02,-1.210246235129999910e-02,-1.835263147949999993e-02,1.000000000000000000e+00
1.055142103000000109e+00,-2.621960614469999840e+00,1.223162834509999991e-01,-9.460201537899999735e+00,2.605340257290000155e-02,-3.220591694120000098e-02,-1.648511853999999914e-03,1.000000000000000000e+00
1.060005014999999995e+00,-2.560946758320000072e+00,8.298675550270000201e-02,-9.469443413489999628e+00,2.032510377470000268e-02,-1.351108402010000112e-02,-1.638936251399999988e-02,1.000000000000000000e+00
1.064969757999999933e+00,-2.575801505369999855e+00,9.680437805089998904e-02,-9.508664832290000035e+00,1.355843059720000104e-02,-1.853726804259999902e-02,-7.027240470050000361e-03,1.000000000000000000e+00
1.069990100000000055e+00,-2.517999012479999799e+00,1.712993639369999876e-01,-9.543720363580000310e+00,1.386526133870000059e-02,3.356579225510000156e-03,-7.660579867659999230e-03,1.000000000000000000e+00
1.074951763000000060e+00,-2.481648180679999705e+00,1.757454018270000196e-01,-9.441235556139998764e+00,1.579273678359999905e-02,5.403924733399998771e-03,-2.542345784599999922e-02,1.000000000000000000e+00
1.080173634999999965e+00,-2.506890758489999982e+00,6.331234691749999810e-02,-9.504294362119999562e+00,2.649419009690000271e-02,-2.455431222920000101e-02,-1.913259923459999928e-02,1.000000000000000000e+00
1.085101239999999967e+00,-2.564995741450000200e+00,8.259346360250000019e-02,-9.489149399960000508e+00,2.700063399970000291e-02,-1.946205459540000307e-02,-1.191806513820000091e-04,1.000000000000000000e+00
1.090028022999999902e+00,-2.509301326760000173e+00,1.278225161840000068e-01,-9.490340071049999437e+00,2.301754988729999910e-02,-2.840157039459999602e-02,-1.523013133560000010e-02,1.000000000000000000e+00
1.094828453000000090e+00,-2.603093709179999937e+00,6.376988599320000672e-02,-9.488556694760001520e+00,2.822493389250000165e-02,2.169400919229999992e-03,-5.616678856310000287e-03,1.000000000000000000e+00
1.099932836000000025e+00,-2.549891988080000171e+00,7.882037480459999634e-02,-9.525227844560001600e+00,3.109241835770000170e-02,-1.602057018319999861e-03,-9.635822847490000537e-03,1.000000000000000000e+00
1.105133888999999980e+00,-2.562193251250000081e+00,2.536479311340000126e-02,-9.516536588580001066e+00,2.387737855320000088e-02,3.386402036990000201e-03,-6.590005941689998890e-03,1.000000000000000000e+00
1.110144859000000039e+00,-2.557412154459999698e+00,4.266885355480000246e-03,-9.489503035700000311e+00,3.432502597570000202e-02,-2.084689214829999956e-03,-1.709799841049999825e-02,1.000000000000000000e+00
1.115128289000000050e+00,-2.567834472009999924e+00,-2.327974188410000117e-02,-9.495214983610001269e+00,1.669025979940000001e-02,6.031082011760000201e-03,-2.395277842880000081e-03,1.000000000000000000e+00
1.120160319000000015e+00,-2.606869428320000015e+00,-3.869132137609999911e-02,-9.504750289200000424e+00,2.661914937200000192e-02,-5.815155804159999678e-03,1.315767783670000052e-02,1.000000000000000000e+00
1.124963656999999895e+00,-2.619625741780000183e+00,-8.458809203540000252e-03,-9.478888702709999947e+00,2.216169051829999792e-02,-5.047002341600000108e-03,-3.544092178340000308e-03,1.000000000000000000e+00
1.129994238999999956e+00,-2.588467510190000098e+00,-3.259924472879999896e-02,-9.482516245560001167e+00,7.014123257249999660e-03,3.106623888019999745e-03,9.418864734469999458e-03,1.000000000000000000e+00
1.134962967999999961e+00,-2.532071084709999642e+00,-3.712719559819999821e-02,-9.453990992819999661e+00,1.247733365740000093e-02,3.385936841370000127e-03,-3.929666243489999926e-03,1.000000000000000000e+00
1.140000510999999994e+00,-2.518554016009999952e+00,-6.365645678060000145e-02,-9.481079490750000005e+00,1.971503160890000078e-02,5.232584662740000659e-04,-6.125393789260000048e-03,1.000000000000000000e+00
1.144977466999999915e+00,-2.546903327659999938e+00,-3.741153809810000147e-02,-9.473983395010000308e+00,1.551028434189999881e-02,1.502008642999999805e-03,3.918994218109999976e-03,1.000000000000000000e+00
1.149998679999999940e+00,-2.559419987150000075e+00,-6.510276943170000170e-03,-9.481063708660000700e+00,-2.091735601429999935e-03,-1.026258524510000048e-02,1.510019879789999998e-02,1.000000000000000000e+00
1.154962317000000072e+00,-2.550673201589999994e+00,4.364229484699999606e-02,-9.479912200539999390e+00,3.385514253749999803e-03,1.600509323179999735e-02,-4.605577792970000015e-03,1.000000000000000000e+00
1.159940044000000059e+00,-2.560262575449999911e+00,3.987711536090000203e-02,-9.476928216290000151e+00,-1.227680686860000044e-02,6.324701942499999334e-03,1.227231323719999920e-02,1.000000000000000000e+00
1.164902647999999985e+00,-2.552926825729999738e+00,7.109941603060000725e-02,-9.459279162350000547e+00,1.196374930440000095e-02,1.641608308999999979e-03,4.950034432109999549e-03,1.000000000000000000e+00
1.169931942999999919e+00,-2.518580319499999831e+00,3.774838938660000226e-02,-9.441578670489999325e+00,1.952928723769999922e-03,2.318213507530000189e-02,8.542085997760000965e-03,1.000000000000000000e+00
1.174927730999999920e+00,-2.543394150500000173e+00,2.088612702909999758e-02,-9.479836797209999943e+00,-2.136234194039999656e-03,-6.110413465649999765e-03,7.507802918550000870e-03,1.000000000000000000e+00
1.179957989000000040e+00,-2.556566351279999871e+00,5.999672413010000149e-02,-9.497890924820000080e+00,1.704541966320000101e-02,7.575009018179999776e-03,1.104753836990000036e-02,1.000000000000000000e+00
1.184897148999999983e+00,-2.532754975320000046e+00,5.769835209379999691e-02,-9.486118653960000202e+00,-2.480054274199999711e-03,-4.242169670760000014e-04,5.492804571989999204e-03,1.000000000000000000e+00
1.189924108999999897e+00,-2.560075528450000082e+00,4.519614125939999671e-02,-9.434803477270000016e+00,-4.243989009409999784e-03,1.207422930749999998e-02,-5.683664698149999348e-03,1.000000000000000000e+00
1.195119403999999941e+00,-2.589545368559999616e+00,2.713988562770000210e-02,-9.450801256869999278e+00,-3.235042095179999772e-03,3.587666153909999794e-02,8.981807157400000657e-03,1.000000000000000000e+00
1.200075317000000030e+00,-2.504327630000000138e+00,6.807188033640000635e-02,-9.510999412720000379e+00,-9.148106910290000962e-03,3.143570572140000352e-02,5.458933301270000281e-03,1.000000000000000000e+00
1.205045662999999934e+00,-2.515733697890000009e+00,7.385673821499999514e-02,-9.526761045469999800e+00,2.305919304489999645e-03,1.069711986929999976e-02,1.143443305050000081e-02,1.000000000000000000e+00
1.210149155000000087e+00,-2.486132340359999748e+00,7.963357261730000247e-02,-9.541469954310001000e+00,-2.234606072310000094e-03,1.788884401320000109e-02,8.445198647680000892e-03,1.000000000000000000e+00
1.215128808000000005e+00,-2.496937227490000133e+00,9.554508957160000315e-02,-9.505845098700000051e+00,1.132520381360000057e-02,2.400670386849999838e-02,-8.982428349549998955e-03,1.000000000000000000e+00
1.220125890999999907e+00,-2.563428638270000004e+00,1.220158757319999981e-01,-9.478087907719999095e+00,1.152712013570000166e-02,2.475019916889999866e-02,-1.402432913890000249e-03,1.000000000000000000e+00
1.224952476999999984e+00,-2.545282156199999868e+00,8.385157390480001138e-02,-9.493092584630000275e+00,1.105670072140000140e-02,6.816456094379999726e-03,-7.074335590000000416e-03,1.000000000000000000e+00
1.229926708999999896e+00,-2.548308226020000067e+00,1.089232155910000027e-01,-9.474722815199999815e+00,1.343974564220000098e-02,1.395413652059999954e-02,-1.819126307960000069e-03,1.000000000000000000e+00
1.234927925000000037e+00,-2.576962073579999846e+00,4.007819089090000619e-02,-9.478546172879999787e+00,4.204555414620000237e-03,4.254597704859999947e-03,1.015184819699999942e-02,1.000000000000000000e+00
1.239957812000000104e+00,-2.513963765609999790e+00,5.303783120319999905e-02,-9.482923072789999352e+00,1.415091939269999891e-02,2.042421884829999715e-02,2.307118615140000065e-03,1.000000000000000000e+00
1.244933239999999941e+00,-2.556142865170000000e+00,-1.258651441720000104e-04,-9.452376543360001548e+00,1.400559209289999919e-02,2.518297359350000000e-02,2.154185203839999868e-03,1.000000000000000000e+00
1.249961690999999986e+00,-2.543382752319999884e+00,4.548785878160000080e-03,-9.457498124160000685e+00,1.412062160670000087e-02,2.219840511680000114e-02,1.015761401500000138e-03,1.000000000000000000e+00
1.254930321000000015e+00,-2.524318278630000023e+00,2.210746268469999942e-02,-9.487630227569999519e+00,1.137810852379999779e-02,2.291961200540000229e-02,-6.690810900180000145e-03,1.000000000000000000e+00
1.259923064999999953e+00,-2.507081312620000002e+00,3.899840543069999638e-02,-9.448039390940000004e+00,2.400402911009999907e-03,2.578296512369999960e-02,-8.350086398419999736e-03,1.000000000000000000e+00
1.264929299000000062e+00,-2.500178693630000115e+00,3.265625045449999531e-03,-9.442603921879999973e+00,-1.243028230970000085e-02,2.128207869829999710e-02,2.127550542350000276e-04,1.000000000000000000e+00
1.269894034000000005e+00,-2.458853580550000029e+00,-4.101831557699999256e-03,-9.455454635630001547e+00,-2.503677969799999905e-04,1.642014086249999824e-02,4.708844237029999151e-03,1.000000000000000000e+00
1.274925030999999986e+00,-2.429307460330000001e+00,1.809748269129999795e-02,-9.479785943810000504e+00,-8.515218505639999234e-04,2.678613364699999888e-02,2.113588899370000274e-02,1.000000000000000000e+00
1.279923066000000054e+00,-2.383613046120000245e+00,5.591689377080000245e-02,-9.517550734060000295e+00,1.012322586029999923e-02,2.418977208440000262e-02,2.320153405890000142e-03,1.000000000000000000e+00
1.284915754000000021e+00,-2.487932083259999594e+00,3.824586774710000275e-02,-9.512788049700001025e+00,3.538283053789999504e-03,2.412003464999999680e-02,1.825356110930000109e-02,1.000000000000000000e+00
1.289977780999999935e+00,-2.465513038440000138e+00,-6.540791954080000560e-03,-9.479258705060001233e+00,2.614692226050000304e-02,2.266691811379999838e-02,5.354657769199999348e-03,1.000000000000000000e+00
1.294988943999999975e+00,-2.489046766500000007e+00,3.238994935970000016e-02,-9.517624968339999825e+00,1.296422630549999913e-02,1.983410306270000020e-02,2.887857845050000646e-03,1.000000000000000000e+00
1.300019344999999937e+00,-2.473248308859999689e+00,6.670442790809999467e-02,-9.529252277770000390e+00,1.683856546880000207e-02,5.383421666920000341e-03,3.609820501880000362e-03,1.000000000000000000e+00
1.305139690999999935e+00,-2.505772860370000021e+00,8.005511336449999682e-02,-9.516169508830000012e+00,2.300104871390000125e-02,2.262345515190000017e-02,-9.135535219679999635e-04,1.000000000000000000e+00
1.310105413000000052e+00,-2.513784317390000300e+00,1.265000536750000015e-01,-9.522740119389998981e+00,1.957408152520000166e-02,1.185941975559999875e-02,-1.745297387239999956e-02,1.000000000000000000e+00
1.314973715999999904e+00,-2.414842004859999669e+00,-2.115471027090000053e-02,-9.477294126989999512e+00,5.127495154739999603e-03,8.902314584700000370e-04,-5.310718435789999435e-03,1.000000000000000000e+00
1.319945064999999973e+00,-2.495727267179999931e+00,-3.322990959850000148e-02,-9.535420152749999545e+00,1.696586795149999938e-02,1.982671953740000256e-02,2.141452627259999870e-03,1.000000000000000000e+00
1.324900501999999980e+00,-2.385155745520000092e+00,-1.139737769789999933e-04,-9.529279750299998852e+00,2.773621119560000167e-02,-3.392095677550000074e-04,-1.234330609440000004e-02,1.000000000000000000e+00
1.330581132999999916e+00,-2.521489484940000025e+00,-1.972562503249999932e-02,-9.496652322939999280e+00,1.722555235029999895e-02,-7.743833586570000350e-03,-3.797017503530000001e-03,1.000000000000000000e+00
1.334849023000000079e+00,-2.541873809059999711e+00,6.650063526449999374e-02,-9.443744324089999864e+00,2.054015733299999896e-02,7.540704682470000071e-04,-2.983929589389999661e-03,1.000000000000000000e+00
1.339882907000000012e+00,-2.576711313690000171e+00,1.470916090709999957e-01,-9.506684472130000785e+00,2.335001900790000320e-02,-5.564959254120000615e-03,-2.043619565670000068e-02,1.000000000000000000e+00
1.344935796999999988e+00,-2.497494861369999875e+00,4.975279991679999736e-02,-9.427643668640000030e+00,1.962571218610000001e-02,-1.271197199819999908e-02,-8.813478983940000247e-03,1.000000000000000000e+00
1.350083903999999890e+00,-2.577617030359999895e+00,3.897120689659999693e-02,-9.468269109019999519e+00,3.133327513929999586e-02,1.667120307679999941e-02,4.477046430109999850e-03,1.000000000000000000e+00
1.355128308000000059e+00,-2.524731243340000209e+00,4.987210631440000541e-02,-9.435651034010000160e+00,2.309043332930000095e-02,5.125042982399999683e-03,3.136154031380000099e-03,1.000000000000000000e+00
1.360096500999999902e+00,-2.457750003220000146e+00,9.029763221359999453e-03,-9.458485966150000479e+00,2.068564668299999881e-02,9.255110286180000256e-03,-3.441481385380000188e-03,1.000000000000000000e+00
1.365095603999999962e+00,-2.486511110540000402e+00,1.983328209149999924e-02,-9.454466793639999977e+00,1.871670968829999837e-02,3.692854661489999683e-03,-4.412314854560000534e-03,1.000000000000000000e+00
1.370115844000000083e+00,-2.544411803110000037e+00,6.971892602419998974e-02,-9.487661791749999907e+00,5.700930487359999466e-03,8.769232779740000067e-03,-6.610324606299999677e-03,1.000000000000000000e+00
1.374994228000000041e+00,-2.430401977569999872e+00,-2.709201419819999915e-02,-9.490551083450000647e+00,1.857701502740000121e-02,1.131236925720000182e-02,-4.292108118530000259e-03,1.000000000000000000e+00
1.379980602999999917e+00,-2.549281162709999826e+00,-4.019600858430000256e-02,-9.534074583360000688e+00,1.349991187450000005e-02,-1.180588733400000055e-02,7.832704111930001087e-03,1.000000000000000000e+00
1.384957094000000000e+00,-2.418765461920000082e+00,-1.732415794790000130e-02,-9.474209604980000421e+00,1.703127287329999837e-02,-1.516933552920000190e-03,-1.154160872100000110e-02,1.000000000000000000e+00
1.389979432000000070e+00,-2.481784666540000295e+00,4.797536018180000722e-02,-9.486710190110001051e+00,2.829371020199999975e-02,2.636873628939999988e-03,2.955391770230000360e-03,1.000000000000000000e+00
1.394957036000000095e+00,-2.488449385130000024e+00,4.899509058439999870e-02,-9.523667755630000897e+00,1.658525317909999991e-02,8.754283189769999918e-03,-5.442916881290000945e-04,1.000000000000000000e+00
1.400064608000000099e+00,-2.475326868699999849e+00,6.484811881719999838e-02,-9.474002684229999360e+00,2.199289016429999827e-02,1.606564596300000258e-02,-5.041267722849999793e-03,1.000000000000000000e+00
1.405117764999999963e+00,-2.547374452299999703e+00,6.951369947539999539e-02,-9.501480473739999155e+00,1.781659945850000079e-02,1.109366863970000054e-02,6.452547386290000304e-03,1.000000000000000000e+00
1.410119810999999945e+00,-2.460954644479999676e+00,3.257863348240000456e-02,-9.495017415210000422e+00,2.603524923320000087e-02,3.517540637399999958e-03,-9.330498985950000032e-03,1.000000000000000000e+00
1.415120676999999993e+00,-2.496907709129999819e+00,1.929449903969999991e-02,-9.518738482539999879e+00,1.921455934640000154e-02,-5.990793928499999442e-03,-7.536747492850000285e-03,1.000000000000000000e+00
1.419950089999999943e+00,-2.496028003690000219e+00,8.860450405300000776e-02,-9.490012154269999556e+00,3.390062227849999915e-02,9.610160253940000508e-03,-1.655762456359999996e-02,1.000000000000000000e+00
1.425072362000000092e+00,-2.490924543070000219e+00,6.915015425949999628e-02,-9.505359361000000007e+00,2.543657086790000049e-02,7.915945723649999918e-03,1.312009338289999924e-02,1.000000000000000000e+00
1.430103233999999945e+00,-2.423313188349999869e+00,2.308591579549999773e-02,-9.478063942320000379e+00,1.424107886849999838e-02,-3.333502914760000293e-03,-4.219041205940000060e-03,1.000000000000000000e+00
1.435153587999999925e+00,-2.546791099459999597e+00,2.662419119049999963e-02,-9.525119123490000561e+00,2.684347331520000116e-02,-1.274384907450000059e-03,-1.232248265300000048e-02,1.000000000000000000e+00
1.440144142000000071e+00,-2.440200464129999691e+00,-1.575658668750000088e-02,-9.420082293469999257e+00,1.744698174300000210e-02,1.288809627289999940e-02,-7.865413092079999793e-03,1.000000000000000000e+00
1.444972754999999998e+00,-2.579028942979999961e+00,-1.225153656699999941e-02,-9.477419799199999773e+00,3.043362870809999607e-02,-1.272571366280000026e-02,5.704659968609999444e-03,1.000000000000000000e+00
1.449965031999999932e+00,-2.545822254429999987e+00,-5.931823121349999450e-02,-9.427521503560001292e+00,1.992105692629999800e-02,-1.183992344890000097e-02,-8.953445591030000095e-03,1.000000000000000000e+00
1.454952473999999940e+00,-2.483717680429999852e+00,-3.369584432649999628e-02,-9.455248883919999514e+00,2.850875072180000108e-02,5.887423641979999678e-03,-1.178876031189999944e-02,1.000000000000000000e+00
1.459969062000000095e+00,-2.532870126130000177e+00,-9.609276146610000111e-03,-9.442001864339998107e+00,1.694584265349999980e-02,1.244790479540000029e-02,-1.557717286049999962e-02,1.000000000000000000e+00
1.464958250000000017e+00,-2.612112005149999749e+00,-5.498168158019999668e-02,-9.483131747110000731e+00,2.406441606579999906e-02,4.540487192569999178e-03,-5.018789786850000149e-03,1.000000000000000000e+00
1.470118145000000043e+00,-2.431309447799999912e+00,-8.591195876710001900e-02,-9.414982339989999005e+00,7.142066489910000454e-03,-9.399628266690000095e-03,-2.007580827920000047e-03,1.000000000000000000e+00
1.475089431000000006e+00,-2.505607732940000165e+00,-3.251799618620000026e-02,-9.457572942960000617e+00,6.458671763540000353e-03,1.122975256290000001e-02,5.103863775729999483e-03,1.000000000000000000e+00
1.479964258000000088e+00,-2.424704058190000122e+00,-1.102230073270000013e-02,-9.420293305880001355e+00,-2.790795639160000095e-03,8.146319538350000819e-03,4.746807739140000530e-03,1.000000000000000000e+00
1.484929143000000007e+00,-2.372217791890000260e+00,6.529503945909999503e-03,-9.439334690960000884e+00,1.867493847389999984e-03,-2.506793942299999963e-03,-4.562683403489999762e-03,1.000000000000000000e+00
1.489950383000000045e+00,-2.435975978309999679e+00,-9.227350228880001892e-02,-9.455981289849999527e+00,-1.414495892820000211e-02,1.138654723759999904e-02,9.258955717090001231e-03,1.000000000000000000e+00
1.495093344999999907e+00,-2.392120469970000052e+00,-8.090890804910000345e-02,-9.514694175580000746e+00,1.222296617930000023e-02,5.465347319840000578e-03,3.781663021070000123e-03,1.000000000000000000e+00
1.500090364000000065e+00,-2.421485972919999785e+00,-2.003295568229999934e-02,-9.503447389899999820e+00,2.351062605159999919e-03,3.202511928980000030e-03,-3.288648324090000415e-03,1.000000000000000000e+00
1.505114443999999940e+00,-2.479924133369999950e+00,7.651760515439999522e-02,-9.492509231779999723e+00,8.667233400049998218e-03,1.902810297909999712e-02,3.778296755630000409e-03,1.000000000000000000e+00
1.510090962999999897e+00,-2.578855924500000008e+00,8.555022191569998380e-02,-9.450420148590000124e+00,3.507963381710000206e-03,-5.411248654129999745e-03,1.261441688979999913e-02,1.000000000000000000e+00
1.515117752999999956e+00,-2.511754857390000151e+00,1.396474625110000201e-02,-9.458284890619999885e+00,4.295107908550000256e-03,-5.424523726109999923e-03,8.599313907330000117e-03,1.000000000000000000e+00
1.520142308000000053e+00,-2.459827101760000190e+00,1.272151614080000055e-02,-9.448656646050000774e+00,-8.635906502600000298e-03,1.189793087540000002e-02,-2.366971457380000025e-03,1.000000000000000000e+00
1.525099937000000017e+00,-2.490204996620000166e+00,4.155649812389999864e-03,-9.483853631639998838e+00,-3.106439951809999642e-03,7.126319222149998800e-03,-7.115636952219999735e-03,1.000000000000000000e+00
1.530147713999999937e+00,-2.458793959320000333e+00,-2.683863537549999873e-02,-9.469679560339999469e+00,1.196723710750000058e-02,1.023259107020000128e-02,-6.613519508390000015e-04,1.000000000000000000e+00
1.535121109999999955e+00,-2.513343003370000162e+00,-3.994043552119999618e-02,-9.488671261049999472e+00,8.417200297120000160e-03,-1.064207497979999945e-02,1.272856071590000061e-02,1.000000000000000000e+00
1.540125310999999941e+00,-2.488604575690000154e+00,-4.219977702160000038e-02,-9.487745962900000052e+00,-2.991999033840000207e-03,-3.793963696810000023e-04,-2.374356612559999895e-03,1.000000000000000000e+00
1.545024841000000038e+00,-2.530211428320000344e+00,-1.711428490679999664e-02,-9.473727374419999236e+00,1.138828136030000000e-02,7.281542755660000074e-03,5.794196389620000047e-03,1.000000000000000000e+00
1.549968918000000029e+00,-2.514878542369999970e+00,1.502453695279999842e-02,-9.478222932279999569e+00,-7.628769148139999921e-03,-7.668315898629999607e-03,-2.748588798570000217e-03,1.000000000000000000e+00
1.555115298999999895e+00,-2.507243809709999827e+00,2.347113170380000016e-02,-9.443931955619998320e+00,7.931804284449998910e-03,1.421541720629999894e-02,9.948384016750000045e-03,1.000000000000000000e+00
1.559990969000000005e+00,-2.509055243040000160e+00,4.471936319369999857e-02,-9.475395599900000576e+00,8.899617940190000798e-03,-3.978793974969999591e-04,7.835983298719999615e-03,1.000000000000000000e+00
1.564958298000000081e+00,-2.464434595550000218e+00,1.570821521789999772e-02,-9.514393731329999326e+00,4.405119456350000198e-03,7.213523611430000711e-03,9.810957126319998223e-04,1.000000000000000000e+00
1.569992306000000060e+00,-2.434612581000000109e+00,-2.554040540859999972e-02,-9.461060200549999522e+00,-1.019327715039999860e-02,-5.105162970720000803e-03,-9.752545505759999470e-03,1.000000000000000000e+00
1.575080070000000054e+00,-2.500874859200000078e+00,1.200385454939999902e-02,-9.523203645249999738e+00,1.538658980280000095e-02,1.125543750820000126e-02,1.047185249629999960e-02,1.000000000000000000e+00
1.580081177999999920e+00,-2.426448563770000177e+00,1.069762736410000137e-02,-9.539684824450000988e+00,-8.422099985180000678e-03,1.017688214779999961e-02,-1.094728428870000124e-02,1.000000000000000000e+00
1.585111222999999958e+00,-2.515014151449999957e+00,2.270420016859999932e-02,-9.526654662489999481e+00,4.542342852800000316e-03,-1.335439085960000126e-02,1.290750596670000097e-02,1.000000000000000000e+00
1.589954791999999895e+00,-2.439537762440000090e+00,3.908969587680000135e-02,-9.563341594369999754e+00,-1.237407792359999925e-03,-4.629660397769999949e-03,-8.958809077740000071e-03,1.000000000000000000e+00
1.595077042000000000e+00,-2.530316350000000103e+00,5.885915776779999942e-02,-9.479851410260000222e+00,2.245740033689999984e-02,3.187987953420000267e-03,1.330163236710000044e-02,1.000000000000000000e+00
1.599952146999999991e+00,-2.473275781390000372e+00,5.208558111279999389e-03,-9.501615498299999629e+00,1.786482892929999733e-02,4.671125207099999623e-04,-2.535369014369999972e-03,1.000000000000000000e+00
1.605115692999999899e+00,-2.487594521859999741e+00,-9.001278054040001350e-03,-9.480977783939998460e+00,1.585183665160000074e-02,1.272915489969999973e-02,5.313939414920000430e-03,1.000000000000000000e+00
1.610129946999999895e+00,-2.504564653630000137e+00,-4.042225166330000105e-03,-9.475020921360000514e+00,9.760357439520001011e-03,7.766691036520000611e-03,5.117834080009999852e-04,1.000000000000000000e+00
1.615123174999999911e+00,-2.504648824779999838e+00,-2.374227679539999900e-02,-9.417436747400000030e+00,1.550651621070000055e-02,-7.806250359860000560e-04,-7.379253394899999534e-03,1.000000000000000000e+00
1.619953296999999903e+00,-2.597279177679999940e+00,-7.185910040760000624e-03,-9.447250870910000486e+00,9.656287729739998840e-03,-1.425274275239999874e-02,8.870949037370000692e-03,1.000000000000000000e+00
1.624877094999999994e+00,-2.486325232580000044e+00,3.188458223699999761e-02,-9.442210538650000373e+00,1.721286959950000042e-02,5.833934061230000058e-03,6.018106359990000329e-04,1.000000000000000000e+00
1.629935496999999955e+00,-2.508068570089999838e+00,4.026016442830000069e-02,-9.437433241249999938e+00,3.848254680630000014e-03,7.033315487209999828e-03,2.273876452820000008e-03,1.000000000000000000e+00
1.634865428999999981e+00,-2.485980949190000455e+00,-1.930147905300000008e-02,-9.446623678919999989e+00,5.126872565600000846e-05,4.616552963850000142e-03,-5.989183671770000224e-03,1.000000000000000000e+00
1.639861320999999927e+00,-2.498166184759999631e+00,-6.843568128059999978e-02,-9.472484680890000064e+00,3.076765686269999564e-03,1.762465760109999807e-02,1.226434670389999794e-02,1.000000000000000000e+00
1.644817575999999892e+00,-2.448818508750000067e+00,-3.377038000060000184e-02,-9.456929384360000412e+00,5.031624459659999465e-04,-6.417431868609999382e-04,1.708264462649999773e-04,1.000000000000000000e+00
1.649756656999999960e+00,-2.470764675349999884e+00,-4.721041282449999626e-02,-9.499665533279999963e+00,-1.253880187870000038e-02,-2.942101564260000187e-04,-2.734420355409999601e-03,1.000000000000000000e+00
1.654681183999999972e+00,-2.509374391999999787e+00,8.944812326179999579e-03,-9.472503385589998715e+00,-5.457660183309999587e-03,-6.757957860830000364e-03,1.182147860529999921e-02,1.000000000000000000e+00
1.659626494999999924e+00,-2.479070146890000270e+00,2.204556272989999927e-02,-9.481379350479999246e+00,-1.589241437610000238e-04,1.038056332619999994e-03,-2.400397788730000009e-03,1.000000000000000000e+00
1.664597485000000043e+00,-2.503810620389999908e+00,1.028775422179999816e-02,-9.460201537899999735e+00,-3.752089105550000282e-03,2.705631777639999833e-05,2.635358134280000285e-03,1.000000000000000000e+00
1.669599116000000105e+00,-2.495924543309999688e+00,1.492002969049999878e-02,-9.475673832320000045e+00,2.202674280849999892e-03,4.178367089480000121e-04,2.446662401779999951e-03,1.000000000000000000e+00
1.674848534000000111e+00,-2.460662968059999844e+00,-2.472012140969999990e-03,-9.546934649449999810e+00,3.664933145050000216e-03,-2.623850246889999818e-03,1.726947026329999756e-03,1.000000000000000000e+00
1.679895370000000110e+00,-2.473241002340000438e+00,2.393006130229999653e-02,-9.528614564389998876e+00,5.928277503700000138e-03,5.308293737470000384e-03,-3.316843183710000212e-03,1.000000000000000000e+00
1.684929340999999914e+00,-2.499018417679999882e+00,2.430490651360000046e-02,-9.482304648630000443e+00,1.309104450050000042e-02,1.673281192780000067e-03,8.511370047930000987e-03,1.000000000000000000e+00
1.689963681000000051e+00,-2.518666244209999849e+00,4.712420041230000467e-02,-9.474099714870000355e+00,1.030006073420000091e-02,1.822530478240000015e-02,9.208150208000000919e-03,1.000000000000000000e+00
1.695087808000000029e+00,-2.461956222740000033e+00,-4.826915549659999832e-02,-9.489748534900000365e+00,6.028762087229999275e-03,-8.751989342270000485e-03,-4.569368902590000003e-03,1.000000000000000000e+00
1.700039480000000047e+00,-2.465070555370000083e+00,-1.975217967929999638e-02,-9.489054122889999832e+00,-8.150028064850000503e-03,1.537574455140000226e-03,-1.164267770950000100e-02,1.000000000000000000e+00
1.704973413999999909e+00,-2.487438454520000342e+00,8.629531265349999966e-03,-9.500531794720000534e+00,1.873529748989999875e-03,-1.470919977870000124e-02,2.056834520770000046e-03,1.000000000000000000e+00
1.709983470999999922e+00,-2.470834525719999952e+00,2.660556868839999978e-02,-9.491830601869999384e+00,-2.859140513459999485e-04,-8.104249835009999514e-03,-1.090264297089999813e-03,1.000000000000000000e+00
1.714962064000000064e+00,-2.546524265219999972e+00,9.157272447510000912e-02,-9.562575286179999523e+00,3.476308658719999990e-03,-3.539255587379999939e-03,1.160766743119999965e-02,1.000000000000000000e+00
1.719958456999999941e+00,-2.305384581929999843e+00,-5.318595270330001012e-02,-9.449695341449999120e+00,-1.693257829170000117e-03,5.883311852810001012e-03,-9.997246786950001254e-03,1.000000000000000000e+00
1.724922148999999960e+00,-2.668323429460000007e+00,-3.732213136519999669e-02,-9.523639114059999855e+00,1.404464244840000070e-02,3.497914876790000601e-04,5.230497568850000709e-03,1.000000000000000000e+00
1.729894107000000014e+00,-2.471808923709999828e+00,3.225173961559999608e-02,-9.523132918099999955e+00,3.218386787919999808e-03,7.852419279520000267e-03,6.853751838210000481e-03,1.000000000000000000e+00
1.734929978000000039e+00,-2.477516487699999992e+00,4.658077771800000350e-02,-9.525036121379999443e+00,7.078510709110000416e-03,-2.627455629409999709e-03,1.130507560449999990e-03,1.000000000000000000e+00
1.739923711000000095e+00,-2.552663790880000061e+00,5.188264698580000861e-02,-9.490842759870000478e+00,2.698511350899999821e-03,4.559352528300000124e-03,-1.568506238979999962e-03,1.000000000000000000e+00
1.744949244000000066e+00,-2.492149700949999769e+00,4.194735489680000845e-02,-9.510685524460001261e+00,6.504729390140000494e-05,8.976657874879999041e-03,1.518500503150000010e-04,1.000000000000000000e+00
1.749957001000000067e+00,-2.474434888300000246e+00,7.756120505639998997e-02,-9.512571192080001126e+00,2.151365950699999849e-02,-3.726072609420000119e-03,4.502558149399999679e-04,1.000000000000000000e+00
1.754971065999999968e+00,-2.610582603630000165e+00,5.982727671410000003e-02,-9.556204582100001232e+00,3.203008323910000194e-03,-8.591106161479999774e-04,1.022400800139999962e-03,1.000000000000000000e+00
1.759982713999999948e+00,-2.473457859959999894e+00,1.054448719560000143e-02,-9.418132328449999591e+00,1.601359248159999957e-02,7.355705834929999846e-03,5.896910093719999642e-03,1.000000000000000000e+00
1.764929026999999984e+00,-2.538490304099999761e+00,1.014380200679999983e-01,-9.535465160930000295e+00,2.012659609319999987e-02,8.171461522579999762e-03,-1.852319925090000104e-03,1.000000000000000000e+00
1.769923050999999914e+00,-2.558494396729999565e+00,7.847730612110001558e-02,-9.448771212340000503e+00,1.857660710809999963e-02,1.683553494510000095e-02,-1.044735312459999996e-02,1.000000000000000000e+00
1.774879145000000102e+00,-2.479957451109999766e+00,5.303283993419999343e-02,-9.462176637360000697e+00,1.369520369919999953e-02,2.272782661020000122e-02,-9.288446046409999657e-03,1.000000000000000000e+00
1.780003079000000099e+00,-2.546950089409999674e+00,4.051290393020000151e-03,-9.521420853489999558e+00,1.304528955370000062e-02,1.564965955909999873e-02,-1.655397191639999821e-02,1.000000000000000000e+00
1.784915543999999965e+00,-2.619294902390000068e+00,1.760371467480000007e-02,-9.480058331010001282e+00,2.563108876349999912e-02,1.492314413190000064e-02,-2.625248860570000408e-03,1.000000000000000000e+00
1.789914559000000072e+00,-2.478253569809999668e+00,3.518182226769999560e-02,-9.477727257710000686e+00,2.396870218220000306e-02,7.628988474609999480e-03,-2.019743807609999942e-02,1.000000000000000000e+00
1.794965807000000080e+00,-2.534293144669999887e+00,4.262951934159999595e-02,-9.453122977810000549e+00,3.447049111130000287e-02,5.635804496709999854e-03,-2.313165925440000339e-02,1.000000000000000000e+00
1.799918251000000025e+00,-2.548616269060000050e+00,4.835826311879999617e-02,-9.483797517539999333e+00,3.784505650400000337e-02,1.403791457410000047e-02,-2.546637877819999882e-02,1.000000000000000000e+00
1.804931429999999892e+00,-2.633968155389999843e+00,4.115372943430000569e-02,-9.511009934109999620e+00,4.409838467840000026e-02,6.190747022629999353e-03,-8.177918381989999694e-03,1.000000000000000000e+00
1.809938111999999988e+00,-2.415223843790000213e+00,-2.816910537779999946e-02,-9.480773785800000297e+00,2.673329040409999982e-02,1.902256533499999819e-02,-1.753583177920000138e-02,1.000000000000000000e+00
1.814850886000000108e+00,-2.384120995650000019e+00,1.004857243119999938e-01,-9.432247947560000512e+00,2.527915313839999845e-02,1.662826724350000007e-02,-1.051399670539999824e-02,1.000000000000000000e+00
1.819873320999999988e+00,-2.343519666800000234e+00,4.848848249430000312e-03,-9.350432418669999635e+00,2.403422817590000066e-02,2.057417482140000073e-02,-2.425133436920000329e-02,1.000000000000000000e+00
1.824867027999999891e+00,-2.342027966939999928e+00,-1.723608739549999935e-01,-9.456212176000001080e+00,1.236495282499999911e-02,1.169638521970000136e-02,-2.540112473070000026e-03,1.000000000000000000e+00
1.829913442999999917e+00,-2.367073853129999961e+00,-2.711076091119999920e-01,-9.493602287719999921e+00,2.003039605920000146e-02,6.178306415680000566e-03,-1.101778540759999932e-02,1.000000000000000000e+00
1.834921111999999965e+00,-2.449494800570000130e+00,-6.115447019730000516e-02,-9.439118417859999610e+00,2.323451451959999622e-02,6.245141848920000328e-03,2.980705117810000197e-03,1.000000000000000000e+00
1.839847054999999898e+00,-2.431797231320000030e+00,7.445176779889998986e-02,-9.446652905009999657e+00,1.281526219100000141e-02,1.069553289559999933e-02,-2.529449760909999959e-03,1.000000000000000000e+00
1.844955707000000000e+00,-2.489772450419999839e+00,-3.705867410640000664e-02,-9.439173947439998713e+00,2.105650864539999889e-02,1.887800171970000114e-03,-1.172081567349999957e-02,1.000000000000000000e+00
1.849942882999999982e+00,-2.581162155619999954e+00,-1.507528532590000081e-01,-9.405679674110000832e+00,2.097785659130000160e-02,-1.280818134550000022e-03,-3.267478896299999807e-03,1.000000000000000000e+00
1.855117608999999890e+00,-2.536431910270000145e+00,-1.545753158900000090e-01,-9.427647175769999777e+00,9.539657272399998389e-03,1.928482018409999679e-02,-8.528445847330000384e-03,1.000000000000000000e+00
1.860018568000000094e+00,-2.496645843330000059e+00,-5.855105079979999738e-02,-9.441884375439999033e+00,1.675407588480000085e-02,1.337366364899999875e-02,-5.853371694680000598e-03,1.000000000000000000e+00
1.865128480999999949e+00,-2.489269469340000374e+00,6.487548631469999827e-02,-9.471565812470000623e+00,1.887685619289999894e-02,7.395221851770000451e-03,-4.136707633730000652e-03,1.000000000000000000e+00
1.869961897000000040e+00,-2.457935881180000059e+00,4.240587122009999849e-02,-9.449251689339998705e+00,-3.613127861169999726e-03,5.454065278170000183e-03,-9.399692527950000848e-03,1.000000000000000000e+00
1.874877488000000092e+00,-2.456353288159999870e+00,-7.077664578299999731e-02,-9.459922720950000752e+00,-3.880112664770000129e-03,3.913545981050000830e-03,-2.385317347940000242e-03,1.000000000000000000e+00
1.879909749999999935e+00,-2.478494977350000017e+00,-9.104525740169999715e-02,-9.477980355689998859e+00,1.734558865430000166e-02,-1.534637296569999832e-03,4.750208463520000281e-04,1.000000000000000000e+00
1.884916948000000092e+00,-2.377338934289999983e+00,-1.046115172710000013e-01,-9.501618420910000751e+00,2.209278522059999680e-03,4.801809322090000269e-03,-8.731656707819999627e-03,1.000000000000000000e+00
1.890107634000000036e+00,-2.521204530520000375e+00,-2.662544243270000000e-02,-9.472515660550000050e+00,6.342755630609999383e-03,-2.860869280989999323e-03,-4.299350082870000318e-03,1.000000000000000000e+00
1.895011482999999997e+00,-2.463388009109999999e+00,-2.469282811900000082e-02,-9.508242807489999393e+00,1.708926260469999930e-02,1.120475772770000190e-02,-9.856046177450001125e-03,1.000000000000000000e+00
1.899959085000000103e+00,-2.505344113570000086e+00,-6.123688321719999300e-02,-9.479861931649999462e+00,1.846705097710000165e-03,1.018148753790000006e-02,-5.873851478099999940e-03,1.000000000000000000e+00
1.904894719999999930e+00,-2.462770753990000117e+00,-3.617550948009999601e-02,-9.458227607470000464e+00,2.062366809700000130e-03,2.938029356300000342e-03,-8.720820769670000264e-03,1.000000000000000000e+00
1.910108890999999920e+00,-2.469691785429999786e+00,-4.590407375799999967e-03,-9.519306637810000638e+00,8.953697397370000881e-04,7.952783256770000822e-03,-7.865169085560001772e-03,1.000000000000000000e+00
1.915113663999999938e+00,-2.511379302079999931e+00,2.087151169859999961e-02,-9.469650334239998912e+00,1.624100841579999982e-02,-1.438858336769999798e-03,-1.946874428539999841e-03,1.000000000000000000e+00
1.920103281000000051e+00,-2.466299512640000469e+00,4.315992729069999256e-02,-9.491113978030000453e+00,6.391162169169998901e-04,1.822832971809999758e-02,-1.166366972029999954e-03,1.000000000000000000e+00
1.924964145999999987e+00,-2.442400896790000164e+00,4.793916549039999725e-02,-9.484640982620000216e+00,7.317234296350000680e-03,1.293194293979999833e-02,-7.642269134520000319e-03,1.000000000000000000e+00
1.929959146999999930e+00,-2.433526977720000151e+00,-3.276744090260000266e-03,-9.478138176599999909e+00,-1.126723829660000037e-03,2.729237452149999715e-02,-7.511090952899999789e-04,1.000000000000000000e+00
1.934945271999999994e+00,-2.455306701720000095e+00,-6.590296619890000096e-02,-9.453386012660001114e+00,1.973582617940000325e-02,8.213574066759999834e-03,-1.130020339040000051e-02,1.000000000000000000e+00
1.939941638999999940e+00,-2.531741998890000289e+00,-7.386128652589998844e-02,-9.410416054980000666e+00,7.073656190189999381e-03,-4.355660174040000207e-03,1.772714219990000062e-02,1.000000000000000000e+00
1.944960742999999992e+00,-2.362201717040000482e+00,-9.925290371419999425e-02,-9.434562069730000999e+00,4.271778743710000215e-03,2.011187747120000285e-02,-1.064650528129999947e-02,1.000000000000000000e+00
1.949968485999999945e+00,-2.431218846909999787e+00,-1.414185410040000035e-01,-9.490723517410000198e+00,2.920279279350000007e-02,1.209256798029999941e-02,3.062971634789999915e-03,1.000000000000000000e+00
1.955110864999999976e+00,-2.377981616109999585e+00,-8.752860931660000343e-02,-9.434841471189999496e+00,-2.254711871500000159e-04,-5.932518281039999772e-03,6.619594991210000709e-03,1.000000000000000000e+00
1.959965286999999945e+00,-2.370874560579999901e+00,-4.879740345470000296e-02,-9.499241170389998601e+00,3.510191570969999758e-03,-1.891516847539999975e-03,1.289566280319999871e-03,1.000000000000000000e+00
1.965100534000000065e+00,-2.347983952729999935e+00,-9.805070658389998528e-02,-9.552752980339999311e+00,-5.934698856439999835e-04,-1.159750297669999951e-02,-1.253128051759999986e-02,1.000000000000000000e+00
1.970134577999999914e+00,-2.423532822449999902e+00,-2.260745722929999660e-02,-9.501478720179999726e+00,-1.535061979670000179e-03,-2.335852198299999752e-02,3.101202892139999848e-03,1.000000000000000000e+00
1.975091399999999942e+00,-2.386113484640000060e+00,4.822962035399999637e-04,-9.451100532070000781e+00,7.134562358259999466e-03,-9.507667273280001954e-03,-8.016536943610000354e-03,1.000000000000000000e+00
1.979981938999999969e+00,-2.494309217070000084e+00,-4.542816448360000037e-02,-9.429321246460000694e+00,-8.279105648400000503e-03,-4.009267315270000596e-03,-5.189837887879999653e-03,1.000000000000000000e+00
1.984933966999999910e+00,-2.493529172609999733e+00,-8.511662540459999371e-02,-9.469151152549999395e+00,8.809830993409999492e-03,-5.551413632929999911e-03,1.027785614129999962e-02,1.000000000000000000e+00
1.990069799000000028e+00,-2.415448007929999807e+00,-9.586277721869999879e-02,-9.474963053699999804e+00,2.897223457690000035e-03,-2.490218542520000050e-02,-1.537928543979999799e-02,1.000000000000000000e+00
1.994907132000000027e+00,-2.471848671200000069e+00,-1.542046194140000159e-01,-9.477245611679999016e+00,-8.481935597960000434e-03,-1.086589787159999987e-02,-6.746129132809999991e-03,1.000000000000000000e+00
1.999964284999999897e+00,-2.498287473049999985e+00,-1.039614101990000011e-01,-9.463147528220000382e+00,-1.105597242710000191e-02,-1.900206692520000143e-02,-7.989797741170000245e-03,1.000000000000000000e+00
2.005083958999999805e+00,-2.541767426079999836e+00,-7.899514684960000366e-02,-9.472323352839998378e+00,-2.280969172720000160e-02,-4.624061752109999771e-03,3.366247517989999580e-03,1.000000000000000000e+00
2.010074459999999785e+00,-2.546117145719999808e+00,-1.694719156139999974e-02,-9.464559733099999761e+00,-9.970982559030000872e-03,-4.411011934279999991e-03,-1.450131647289999715e-03,1.000000000000000000e+00
2.015107910999999863e+00,-2.512751759469999957e+00,-2.651328044519999858e-02,-9.452622042550000714e+00,-2.173321507869999808e-02,1.118373591450000067e-03,-1.378904795269999834e-03,1.000000000000000000e+00
2.020073382000000084e+00,-2.556293087299999822e+00,-4.669244879840000334e-02,-9.458855383979999587e+00,-3.016129322350000197e-02,-9.334797039629997781e-03,7.298346608880000065e-03,1.000000000000000000e+00
2.024965701000000173e+00,-2.486660455880000065e+00,-5.202066721699999396e-02,-9.496592701699999139e+00,-2.921030111609999869e-02,-6.743740290399998991e-03,1.514869276429999835e-02,1.000000000000000000e+00
2.029940319000000049e+00,-2.470627312710000023e+00,7.738082867939999679e-03,-9.472529689069999037e+00,-1.936685293909999606e-02,-6.644935347140000156e-04,3.757203696300000489e-03,1.000000000000000000e+00
2.034940462999999866e+00,-2.427188714609999742e+00,3.622742689700000213e-02,-9.454214864700000831e+00,-1.169305201620000206e-02,-2.646613633260000344e-03,9.807827882469999283e-04,1.000000000000000000e+00
2.039974491000000167e+00,-2.416573358700000007e+00,6.791128294720000637e-05,-9.496597377880000579e+00,-3.504027426240000076e-02,2.893018070610000290e-03,8.295361883939998682e-03,1.000000000000000000e+00
2.045115866000000171e+00,-2.465572075149999876e+00,-5.059637003490000118e-02,-9.466955103810001049e+00,-2.088621817529999827e-02,-3.986181691290000169e-03,8.496171794829998972e-03,1.000000000000000000e+00
2.049946004999999793e+00,-2.458499652540000024e+00,-8.853773612679999294e-03,-9.450784890250000458e+00,-2.505015023050000122e-02,-1.160301174969999988e-02,9.118838235739999340e-03,1.000000000000000000e+00
2.055086934000000198e+00,-2.476560209890000142e+00,3.177751883309999636e-02,-9.442926577969998903e+00,-1.526056881989999899e-02,-9.832453913989999683e-03,1.603039214390000007e-03,1.000000000000000000e+00
2.059956634000000175e+00,-2.480000413469999998e+00,-8.258033012630000558e-02,-9.457940607230000296e+00,-1.466276589780000049e-02,-6.384070962669999641e-03,1.588800689210000073e-03,1.000000000000000000e+00
2.064942236999999903e+00,-2.439319735779999831e+00,-8.041732513980000274e-02,-9.459598311309999730e+00,-2.428716793660000081e-02,-4.429312422869999787e-03,9.521121159200000850e-03,1.000000000000000000e+00
2.069986518999999969e+00,-2.465397595359999805e+00,-8.031173674039998600e-02,-9.481081828839998948e+00,-2.527553029359999939e-02,-1.148123852910000117e-02,-1.076203864070000155e-02,1.000000000000000000e+00
2.074957293000000202e+00,-2.503864104139999824e+00,-6.003054420130000263e-02,-9.459586036350000171e+00,-3.360871970649999957e-02,-7.267850451169999976e-03,6.455298513170000356e-03,1.000000000000000000e+00
2.080092521000000083e+00,-2.390049655039999887e+00,-4.256007197619999377e-03,-9.442004786950001005e+00,-3.676668927069999537e-02,-1.701084896920000006e-02,5.782679654660000459e-03,1.000000000000000000e+00
2.084964241999999857e+00,-2.430407384390000036e+00,8.234213745630000747e-02,-9.498957092750000442e+00,-2.424268610779999750e-02,-3.981556277719999586e-03,-1.150710880760000103e-02,1.000000000000000000e+00
2.090107736999999855e+00,-2.436741848110000053e+00,6.238983894480000514e-02,-9.452205278439999248e+00,-1.456509064879999912e-02,-5.397910717869999243e-03,-6.144247949119999858e-03,1.000000000000000000e+00
2.094974436999999856e+00,-2.437647418650000120e+00,-4.507982140340000693e-02,-9.491444817419999680e+00,-1.964625902470000171e-02,-1.531278900800000023e-02,1.094401627779999914e-02,1.000000000000000000e+00
2.099935867000000123e+00,-2.464526073230000058e+00,-4.873132508169999294e-02,-9.524368597380000523e+00,-1.404914725570000078e-02,1.033764891329999949e-02,1.298635359849999865e-02,1.000000000000000000e+00
2.104944103999999871e+00,-2.446741994729999981e+00,-5.137478422859999977e-02,-9.547536707000000789e+00,-1.269527617839999976e-02,-2.155615948140000154e-02,1.506068836899999985e-02,1.000000000000000000e+00
2.110076426000000005e+00,-2.480471830379999965e+00,4.773770636789999994e-02,-9.526307456489998771e+00,-3.080586343999999407e-02,-2.787162084129999988e-03,5.281887017190000158e-03,1.000000000000000000e+00
2.115072665000000018e+00,-2.544537475309999852e+00,5.527256798530000292e-02,-9.505496723649999424e+00,-3.176617622379999950e-02,-5.945283919569999999e-03,-2.853247337040000237e-03,1.000000000000000000e+00
2.120064756000000106e+00,-2.545896780970000162e+00,4.586583894820000368e-02,-9.480089310669999492e+00,-3.537642536680000050e-03,-1.006106100979999897e-02,5.524497479199999735e-03,1.000000000000000000e+00
2.124959539999999869e+00,-2.495499303640000388e+00,3.855916463009999989e-02,-9.491363568880000656e+00,-2.174908667800000070e-02,-7.514205295590000756e-03,-1.498798257670000108e-03,1.000000000000000000e+00
2.129957404000000221e+00,-2.521389823959999887e+00,-1.031124012870000134e-02,-9.504074581889998541e+00,-1.206063898279999920e-03,-1.087985374029999848e-02,3.648038255050000365e-03,1.000000000000000000e+00
2.134937069999999881e+00,-2.506958270759999774e+00,-2.709221056109999831e-02,-9.516084753160001242e+00,-2.262376062570000193e-02,-6.150286179039999440e-03,4.942419938739999775e-03,1.000000000000000000e+00
2.139913120000000113e+00,-2.529349258529999922e+00,-5.565500056480000846e-02,-9.521586273180000504e+00,-2.465866692359999779e-02,-1.764674857259999896e-02,1.314326841379999909e-02,1.000000000000000000e+00
2.145102177000000054e+00,-2.524847270940000055e+00,-3.758723715830000062e-02,-9.512186576679999561e+00,-1.369802339469999896e-04,-1.981402747329999642e-04,-1.534745562820000143e-03,1.000000000000000000e+00
2.149942234000000063e+00,-2.564338154330000119e+00,6.550189970090000398e-04,-9.474302543960000378e+00,-1.329832896590000049e-02,-2.749587642029999862e-03,2.503533475099999767e-02,1.000000000000000000e+00
2.154960920000000169e+00,-2.493404961709999590e+00,1.517432753689999976e-02,-9.454698264299999266e+00,-3.306334093209999797e-02,-1.022554934020000056e-02,4.603929817680000626e-03,1.000000000000000000e+00
2.159936828999999836e+00,-2.543144559649999970e+00,-4.566365373990000087e-02,-9.473457909829999579e+00,-1.691962033509999963e-02,7.973571307959999993e-03,1.144478935749999871e-02,1.000000000000000000e+00
2.164935069000000212e+00,-2.551217975990000220e+00,-4.608549588119999207e-02,-9.525697215630000159e+00,-1.616986282169999983e-02,-5.074203014370000202e-03,1.805583387609999840e-02,1.000000000000000000e+00
2.170106373999999949e+00,-2.409673516179999808e+00,1.755448012209999756e-02,-9.557364858049998801e+00,-9.692021645610001540e-03,7.531411945820000453e-03,-2.490804996340000195e-03,1.000000000000000000e+00
2.174960158999999837e+00,-2.478525372480000044e+00,1.024582847600000041e-01,-9.514374442110000274e+00,-2.198229171340000329e-02,7.586197461930000580e-04,6.253330502660000732e-04,1.000000000000000000e+00
2.179944598000000067e+00,-2.530537591529999908e+00,1.523702070609999903e-01,-9.539568504600000054e+00,-1.735367579389999982e-03,1.577435061339999998e-03,5.624607205390000364e-03,1.000000000000000000e+00
2.184942509999999949e+00,-2.513243342380000023e+00,9.869212802629999393e-02,-9.552627308139998163e+00,1.098989741879999874e-04,1.027758233250000014e-02,7.447306066750000383e-03,1.000000000000000000e+00
2.189950769999999824e+00,-2.564002346500000140e+00,1.159363183560000038e-01,-9.510351177939998735e+00,-1.488411799069999869e-03,1.376077719029999979e-02,3.019327530639999858e-03,1.000000000000000000e+00
2.194945734000000037e+00,-2.521611942279999852e+00,5.041322745380000248e-02,-9.493980473380000618e+00,-1.333306357259999957e-02,8.504993282260000717e-03,1.184407621620000087e-02,1.000000000000000000e+00
2.200108666000000213e+00,-2.532046242529999880e+00,3.172948529009999435e-02,-9.476722464590000783e+00,-9.378645569090000508e-03,8.680148981510000389e-03,-2.203167881820000066e-03,1.000000000000000000e+00
2.205098496999999824e+00,-2.517909872890000234e+00,-3.106876320890000071e-02,-9.424306633169999614e+00,9.774798527359999326e-04,1.235761679710000024e-03,6.601952016350000688e-03,1.000000000000000000e+00
2.209973101000000106e+00,-2.391204378040000300e+00,-1.353432031460000129e-01,-9.471979653969999191e+00,-1.082729548219999935e-02,1.664067059760000050e-02,4.784239456060000555e-03,1.000000000000000000e+00
2.214939112000000154e+00,-2.369169217970000130e+00,-1.788460347230000080e-01,-9.543742575410000484e+00,-6.789054721589999654e-03,5.242743529380000135e-03,4.219091497360000090e-04,1.000000000000000000e+00
2.219929025999999972e+00,-2.364272970359999615e+00,-6.574053304570000311e-02,-9.532541966960000224e+00,-1.521344482900000017e-02,-4.329083953050000093e-03,-7.930289022619999711e-03,1.000000000000000000e+00
2.224939871000000124e+00,-2.431063364089999901e+00,9.763639016190000033e-04,-9.531058450410000660e+00,-2.530351513999999809e-03,-8.884324692190000497e-03,4.291403107350000475e-03,1.000000000000000000e+00
2.229947938000000018e+00,-2.525075526740000242e+00,-1.951266726840000104e-02,-9.482677573600000187e+00,-5.813117022630000762e-04,-3.600423224269999872e-03,-7.029580883680000385e-03,1.000000000000000000e+00
2.234934949999999976e+00,-2.534877666559999909e+00,-9.914917847819998409e-02,-9.453850123039998721e+00,3.406807314599999675e-03,1.528884284200000008e-03,1.409603562210000154e-02,1.000000000000000000e+00
2.239962364000000150e+00,-2.468957041409999942e+00,-7.697996196910000810e-02,-9.511879702679999937e+00,7.268211338670000146e-03,-5.336315836760000160e-03,-8.660468272859999511e-03,1.000000000000000000e+00
2.245091675999999925e+00,-2.552082483870000029e+00,1.045260766100000044e-02,-9.442134550810001414e+00,-7.989558391270001544e-03,3.594493027779999909e-03,1.117416471239999869e-02,1.000000000000000000e+00
2.249904721000000052e+00,-2.449669572619999958e+00,1.970335155190000229e-02,-9.459813999879999713e+00,-5.147824529560000514e-03,1.121744513509999970e-03,-5.295890383419999889e-03,1.000000000000000000e+00
2.254961178999999927e+00,-2.507437286450000080e+00,1.417669434500000158e-01,-9.522467147669999576e+00,-4.914841148999999493e-03,1.334730722010000169e-02,3.114055143670000064e-03,1.000000000000000000e+00
2.259951113000000067e+00,-2.483563951170000283e+00,1.463849038400000246e-01,-9.398615727080001037e+00,-1.267612818629999805e-02,6.953218020500000728e-03,2.613978227599999919e-03,1.000000000000000000e+00
2.264935541999999913e+00,-2.429643268149999979e+00,1.112185097539999945e-02,-9.469615847449999180e+00,1.785147236660000140e-03,8.054890669880000742e-03,8.792530745270000017e-03,1.000000000000000000e+00
2.270090687999999801e+00,-2.439324996470000340e+00,-6.908808990789998879e-04,-9.480057746489999104e+00,-1.869769021870000200e-02,-4.409937188029999615e-03,-4.607448354359999776e-03,1.000000000000000000e+00
2.274949969000000127e+00,-2.461215925770000368e+00,-1.952948368919999941e-02,-9.453948322719998743e+00,-1.474880147729999876e-02,3.674935083840000314e-03,-2.084417035799999984e-03,1.000000000000000000e+00
2.280084931999999842e+00,-2.445514060369999854e+00,-4.381314876869999569e-02,-9.499895834900000224e+00,-1.066977996379999891e-02,-3.414722392340000575e-03,6.199815310539999978e-03,1.000000000000000000e+00
2.284920862999999969e+00,-2.387040682490000343e+00,-1.632495887670000131e-02,-9.471226789780001099e+00,-9.128443896770000246e-03,1.746527478100000016e-02,1.409693853930000119e-03,1.000000000000000000e+00
2.289938998999999864e+00,-2.342414189769999933e+00,-6.456330253490000400e-03,-9.418460245229999472e+00,-2.050777152180000007e-02,-1.348289661110000151e-04,-1.133805047720000229e-02,1.000000000000000000e+00
2.294925246000000030e+00,-2.456027124949999862e+00,-5.804222906140000388e-02,-9.484957208970000053e+00,3.985944669689999581e-03,-1.432567741720000044e-02,1.441269088539999868e-02,1.000000000000000000e+00
2.300084340000000172e+00,-2.349154603940000197e+00,-2.612478116790000263e-02,-9.478876427750000389e+00,-2.606551349159999878e-02,-2.386600943280000123e-03,2.132830768819999820e-02,1.000000000000000000e+00
2.305101286000000194e+00,-2.329280275170000358e+00,-3.392663229150000379e-03,-9.466877946919998621e+00,-5.703995935619999777e-03,-1.121653057629999964e-02,1.404377166180000025e-02,1.000000000000000000e+00
2.309928164000000006e+00,-2.474903674859999736e+00,-4.625220335070000244e-02,-9.528176172969999413e+00,-1.475067902359999961e-02,-3.060751222069999986e-02,1.102703809739999895e-02,1.000000000000000000e+00
2.314946264000000031e+00,-2.485921912479999829e+00,-1.888602098679999924e-02,-9.403348016289999833e+00,-1.389156654479999954e-02,-8.382695727050000836e-03,-3.057810245079999913e-03,1.000000000000000000e+00
2.319931597000000068e+00,-2.501360304629999920e+00,5.655724206749999927e-02,-9.325330126109999895e+00,-8.953298442070000557e-03,-9.471572935579999908e-03,1.464282628149999980e-02,1.000000000000000000e+00
2.324932194000000063e+00,-2.403057751309999990e+00,-5.504040776380000194e-03,-9.472627888750000835e+00,-1.159822102639999908e-02,-1.771991141140000225e-02,-1.944953110069999797e-04,1.000000000000000000e+00
2.329949515000000027e+00,-2.366742575339999988e+00,-5.231816602590000365e-02,-9.488923189990000395e+00,-2.839066646990000276e-02,-9.924598038200000208e-03,6.917051039640000065e-03,1.000000000000000000e+00
2.334930582000000143e+00,-2.371493276999999900e+00,-5.798394583580000067e-02,-9.465569786930000618e+00,-2.070075459779999877e-02,-2.129305340350000353e-02,5.172559060159999562e-03,1.000000000000000000e+00
2.339911226999999982e+00,-2.445777533609999832e+00,-2.983307251769999960e-02,-9.398430433639999748e+00,-3.097463585439999903e-02,-2.529946342109999635e-02,1.112984865900000161e-02,1.000000000000000000e+00
2.345095097999999822e+00,-2.514706692929999932e+00,-1.792495511900000019e-02,-9.437409275850001222e+00,-4.255607351659999871e-02,-4.374793171880000248e-02,2.260639565070000391e-03,1.000000000000000000e+00
2.349930910999999956e+00,-2.441545302869999823e+00,-7.464155931660000631e-02,-9.355037282110000518e+00,-1.940813474359999805e-02,-3.996308892969999138e-02,3.925977274780000602e-03,1.000000000000000000e+00
2.354898862999999842e+00,-2.601432790230000069e+00,1.044894161280000011e-01,-9.598481296819999287e+00,-1.247390359639999856e-02,-3.298178315159999707e-02,2.418637275700000200e-02,1.000000000000000000e+00
2.360040618000000201e+00,-2.258246837050000178e+00,-5.908580156389999991e-03,-9.587278350280000083e+00,-2.135333791379999749e-02,-3.613288700580000179e-02,2.109060995279999837e-02,1.000000000000000000e+00
2.364931922999999880e+00,-2.371429271859999854e+00,-2.353590403570000184e-02,-9.615614802450000553e+00,-2.194119244809999980e-02,-3.977190703149999923e-02,1.024191919709999989e-02,1.000000000000000000e+00
2.370096999999999898e+00,-2.574720432129999903e+00,-2.668565503719999912e-02,-9.503061605459999228e+00,-1.113355532289999998e-02,-3.892734646800000142e-02,1.288746949289999895e-02,1.000000000000000000e+00
2.374942628999999972e+00,-2.547378251699999652e+00,3.599799748880000427e-02,-9.547434415669998842e+00,-1.497185416519999923e-02,-4.916497319939999722e-02,-2.220508875329999833e-03,1.000000000000000000e+00
2.380079405000000037e+00,-2.512431441479999972e+00,1.893886724549999900e-01,-9.524324173720000175e+00,7.011192850770000748e-03,-4.036291688680000017e-02,3.026986960320000018e-04,1.000000000000000000e+00
2.384920925999999941e+00,-2.495150928590000206e+00,2.165191646329999997e-01,-9.547406943139998603e+00,6.948590744290000440e-03,-3.826349228619999737e-02,-2.134457230569999919e-03,1.000000000000000000e+00
2.389938476000000200e+00,-2.546497961729999648e+00,1.752946989170000025e-01,-9.515062424369999050e+00,2.037279075010000294e-03,-3.683912754059999461e-02,3.623804775999999936e-03,1.000000000000000000e+00
2.394922613999999950e+00,-2.474820672749999950e+00,6.711357039800000535e-02,-9.491596208589999861e+00,5.026185885069999783e-03,-5.248212814330000670e-02,-6.663175299760001023e-03,1.000000000000000000e+00
2.399874703000000054e+00,-2.531305653300000014e+00,-3.929565421960000242e-03,-9.463021271489999720e+00,1.286455243829999831e-02,-2.143056876959999885e-02,9.236424230040000093e-04,1.000000000000000000e+00
2.404912203999999942e+00,-2.418573008090000087e+00,4.763952153180000051e-03,-9.518369064699999882e+00,1.131765823809999932e-02,-4.053078591819999493e-02,-1.660112757240000080e-04,1.000000000000000000e+00
2.409896617999999879e+00,-2.441020986740000343e+00,-4.995671585789999980e-02,-9.534760227530000520e+00,1.094232685860000061e-02,-3.114337846640000129e-02,-9.197549894450001221e-03,1.000000000000000000e+00
2.414897190000000027e+00,-2.545829268690000369e+00,-2.571195345009999814e-02,-9.504710541710000626e+00,-2.790592145170000312e-03,-4.341118037700000126e-02,7.394855841989999949e-03,1.000000000000000000e+00
2.419883018999999802e+00,-2.577328568800000053e+00,3.200616963989999682e-03,-9.482062656569999248e+00,4.296463914220000416e-03,-3.757186979059999599e-02,1.591338217260000049e-02,1.000000000000000000e+00
2.424849077999999825e+00,-2.608858848579999723e+00,4.749508411790000217e-02,-9.470164713500000886e+00,-3.466768423099999760e-03,-2.450890466570000009e-02,1.465461309999999996e-02,1.000000000000000000e+00
2.429891925999999813e+00,-2.627442260750000091e+00,7.830362092150000564e-02,-9.492437920109999538e+00,-3.105174051599999489e-03,-3.881531953809999602e-02,1.211586687709999971e-02,1.000000000000000000e+00
2.434905738999999958e+00,-2.533219377959999630e+00,3.302267832229999894e-02,-9.466009931910001285e+00,4.043440800159999599e-03,-2.728356979790000358e-02,5.729362368580000718e-03,1.000000000000000000e+00
2.439861141999999816e+00,-2.608105107599999695e+00,2.849825056720000152e-02,-9.460860294059999731e+00,-2.386549953370000095e-03,-3.027951717379999755e-02,1.065419614320000166e-02,1.000000000000000000e+00
2.445050370999999778e+00,-2.569884390279999931e+00,1.796411123569999907e-02,-9.432743622130001171e+00,-1.232028938829999969e-02,-2.213702909649999800e-02,6.414165720340000640e-03,1.000000000000000000e+00
2.450013962999999961e+00,-2.609906896320000058e+00,-3.456600105740000040e-02,-9.455040209610000801e+00,-1.367955189199999977e-02,-1.981812715529999991e-02,2.272862568500000000e-02,1.000000000000000000e+00
2.454930091000000036e+00,-2.453819970290000096e+00,7.640181159640000233e-03,-9.485629409139999524e+00,-1.999677345159999939e-02,-1.915815472599999986e-02,9.176435880360000324e-03,1.000000000000000000e+00
2.460004368999999969e+00,-2.492234456619999872e+00,-9.063988576299999295e-03,-9.493712177829999987e+00,-2.184262871740000334e-02,-1.796842366460000076e-02,1.262153591960000175e-02,1.000000000000000000e+00
2.464930342999999802e+00,-2.550149177720000271e+00,4.350905810549999912e-03,-9.475682600139998968e+00,-1.373208500439999924e-02,-1.859950087959999845e-02,2.072002552450000201e-02,1.000000000000000000e+00
2.470115430999999973e+00,-2.563838680369999956e+00,3.782237935470000173e-02,-9.473523960799999699e+00,-1.166678685689999904e-02,-2.934240922329999987e-02,1.472655218089999850e-02,1.000000000000000000e+00
2.474943554999999851e+00,-2.590651283970000218e+00,4.527921643299999410e-02,-9.439936163980000572e+00,-2.987102977929999986e-02,-6.290282122789999861e-03,1.823847182099999978e-02,1.000000000000000000e+00
2.479930332999999987e+00,-2.522767249790000221e+00,8.055486131380000525e-02,-9.478938387070000360e+00,-2.341117896140000251e-02,3.748183138669999945e-03,-2.868151990699999675e-03,1.000000000000000000e+00
2.484940942999999791e+00,-2.620131353220000126e+00,1.189417381169999982e-01,-9.455555173389999624e+00,-2.654658630490000504e-02,5.068806931380000387e-04,8.325574919579999469e-03,1.000000000000000000e+00
2.490070493999999801e+00,-2.571441556589999955e+00,9.380809144490000195e-02,-9.467710306089999861e+00,-3.045303747059999872e-02,-6.575845181939999826e-03,1.791501184930000164e-03,1.000000000000000000e+00
2.494956570999999901e+00,-2.618698982329999758e+00,1.047606434180000101e-01,-9.446955102829999618e+00,-5.337991751729999693e-03,1.108551491050000122e-02,9.711326099930001066e-03,1.000000000000000000e+00
2.499929331000000143e+00,-2.588060098440000178e+00,1.165528062869999881e-01,-9.452272498460001060e+00,-2.471441216770000129e-02,5.171168595549999709e-07,1.002889778469999958e-02,1.000000000000000000e+00
2.505083729999999953e+00,-2.545477094250000238e+00,8.185306616449999906e-02,-9.465861463350000449e+00,-7.056364323939999690e-03,9.667827747760000118e-03,1.141133951019999851e-03,1.000000000000000000e+00
2.509919244000000216e+00,-2.560464235500000019e+00,7.077674168119998943e-02,-9.505386249009999844e+00,-3.318881616000000229e-02,2.531713806089999977e-02,4.017272032800000246e-03,1.000000000000000000e+00
2.515098871999999819e+00,-2.527610598169999889e+00,7.049124840379999979e-02,-9.526500933230000356e+00,-8.022906258700000445e-03,-1.393607351929999948e-03,4.752226173879999828e-03,1.000000000000000000e+00
2.520090478999999828e+00,-2.574181210689999943e+00,1.303773700330000118e-01,-9.493670092249999470e+00,-4.275088198480000469e-03,5.419651046399999450e-03,1.086034253239999935e-02,1.000000000000000000e+00
2.524982368999999949e+00,-2.554130648569999718e+00,1.401348578690000124e-01,-9.469607664139999770e+00,-2.223502844570000164e-02,7.600755430760000424e-03,1.977780601010000177e-03,1.000000000000000000e+00
2.530091200999999845e+00,-2.581253048769999836e+00,7.218500104389999339e-02,-9.482557162089999991e+00,-6.615949794649999757e-03,6.534247659150000179e-03,1.244848314669999914e-02,1.000000000000000000e+00
2.535086091999999791e+00,-2.549373809430000026e+00,7.120093560970000568e-02,-9.468729712269999155e+00,-6.580413319169999041e-04,2.323630452159999860e-02,-5.521900486200000124e-03,1.000000000000000000e+00
2.539967709999999990e+00,-2.569201376450000129e+00,7.120320519860000308e-02,-9.462025830710000918e+00,-9.155547246340000472e-03,1.797487959269999935e-02,-5.445222835989999878e-03,1.000000000000000000e+00
2.545067330000000183e+00,-2.611028886090000167e+00,6.901145817480000555e-02,-9.443871749860001330e+00,-2.019281871619999988e-02,6.238837726409999541e-03,1.169423013929999852e-02,1.000000000000000000e+00
2.549964586000000200e+00,-2.552631934439999917e+00,5.350576837530000157e-02,-9.451893143760001337e+00,-7.944029755889999919e-03,1.822974905369999926e-02,-4.738743882629999592e-03,1.000000000000000000e+00
2.555114464999999946e+00,-2.625633457770000234e+00,2.944338593019999936e-02,-9.490584985719999978e+00,-6.582341622560001181e-03,2.355708740650000119e-02,7.257041521369999790e-03,1.000000000000000000e+00
2.559994545999999982e+00,-2.607438168119999844e+00,9.502380564390000561e-02,-9.477548394019999378e+00,-1.564286276700000214e-02,1.096209883690000067e-02,3.210231428969999735e-03,1.000000000000000000e+00
2.565065448999999997e+00,-2.564471717580000032e+00,1.101064157599999926e-01,-9.500602521869998540e+00,-9.223635308440000097e-03,2.703554369509999708e-02,2.973481779920000151e-03,1.000000000000000000e+00
2.570081293999999961e+00,-2.532711720700000058e+00,1.066577092109999986e-01,-9.486295764089998528e+00,-1.441190019249999864e-02,2.230425179000000008e-02,-1.285595167429999866e-02,1.000000000000000000e+00
2.574943037000000157e+00,-2.615680803550000100e+00,1.318636265350000003e-01,-9.470248300139999742e+00,-1.613184064629999762e-02,2.255487069489999982e-02,1.035714987669999901e-03,1.000000000000000000e+00
2.579969986000000048e+00,-2.603554604690000218e+00,1.327766497269999846e-01,-9.500216737420000612e+00,-1.124702673409999978e-02,2.446456812320000132e-02,1.115188095720000098e-02,1.000000000000000000e+00
2.585106573000000019e+00,-2.533324299640000277e+00,1.195463620799999821e-01,-9.511270630880000354e+00,-8.447105064989999385e-03,3.069980628789999860e-02,-7.342202588919999502e-03,1.000000000000000000e+00
2.589954146000000179e+00,-2.546611066720000149e+00,8.137845265639999381e-02,-9.516273553730000501e+00,-1.532041467730000175e-03,2.153299003840000378e-02,-1.023359969260000113e-02,1.000000000000000000e+00
2.594936094999999998e+00,-2.533629127809999826e+00,1.157960970350000035e-01,-9.511516714589999921e+00,-1.549339666960000000e-02,2.441138960419999768e-02,-2.984380815179999910e-03,1.000000000000000000e+00
2.600051743999999943e+00,-2.537043320170000005e+00,9.919969395590000349e-02,-9.507635489239998350e+00,-1.561347115779999906e-02,4.464774578809999755e-02,2.830335637550000002e-03,1.000000000000000000e+00
2.605090947999999962e+00,-2.540378017550000145e+00,1.189375825319999996e-01,-9.563817979710000472e+00,-9.929542429749999011e-03,3.744844347239999899e-02,9.817571379239999410e-03,1.000000000000000000e+00
2.610051164999999784e+00,-2.424098785770000042e+00,9.994753491480000418e-02,-9.529945520730001007e+00,5.130250472579999700e-03,3.142169862990000506e-02,-6.597099825740000180e-03,1.000000000000000000e+00
2.615086742999999991e+00,-2.457513564120000105e+00,1.175292318370000089e-01,-9.568817979960000386e+00,-1.823350042099999846e-02,3.412460535760000052e-02,-1.686840318139999975e-02,1.000000000000000000e+00
2.620085226000000045e+00,-2.506033557129999867e+00,1.427603292680000024e-01,-9.541435467510000379e+00,-1.284803450110000127e-02,3.048838861290000327e-02,-4.596142098310000007e-03,1.000000000000000000e+00
2.625087392000000186e+00,-2.437387598669999988e+00,1.663355675170000159e-01,-9.565509001539998835e+00,-1.365944859570000043e-03,2.238319814209999842e-02,-2.655125781890000161e-02,1.000000000000000000e+00
2.629913590000000134e+00,-2.476508479700000098e+00,1.336769230350000059e-01,-9.497966912669999928e+00,-2.983012469489999992e-03,2.306130342190000279e-02,-3.727110102769999600e-02,1.000000000000000000e+00
2.635107184999999852e+00,-2.518547586269999972e+00,4.801130371140000658e-02,-9.505380988310001555e+00,3.401739988480000088e-03,1.793858408929999843e-02,-3.215492889290000322e-02,1.000000000000000000e+00
2.639930676000000087e+00,-2.505310795820000269e+00,-7.509657307510000934e-02,-9.430930435229999631e+00,-7.634810637679999637e-03,1.308954134579999769e-02,-2.676810882990000168e-02,1.000000000000000000e+00
2.644923818000000093e+00,-2.433866438809999977e+00,-1.353266082039999985e-01,-9.497578205610000879e+00,-1.700663566590000092e-02,2.370936982329999859e-02,-3.216374665499999869e-02,1.000000000000000000e+00
2.649925721999999872e+00,-2.470026424209999849e+00,-1.576150671790000068e-01,-9.462744208119998390e+00,-8.956661447879999891e-03,1.834535226229999996e-02,-2.047986723479999771e-02,1.000000000000000000e+00
2.654917236000000180e+00,-2.409535422889999889e+00,-1.182555824840000047e-01,-9.455504904510000586e+00,-1.827210374179999777e-02,1.456186920399999904e-02,-4.600784182550000240e-02,1.000000000000000000e+00
2.659968023999999875e+00,-2.442161535069999889e+00,-1.182522123499999966e-01,-9.438763613069999892e+00,-1.914630830290000099e-02,3.202097117899999762e-02,-3.474743291740000489e-02,1.000000000000000000e+00
2.664922875999999885e+00,-2.410740999290000186e+00,-9.347741645210000394e-02,-9.448282552040000226e+00,-6.014671176670000757e-03,2.399348467590000158e-02,-2.223857119679999855e-02,1.000000000000000000e+00
2.670086339000000031e+00,-2.388831511430000276e+00,-6.240645215289999936e-02,-9.422870462889999743e+00,-1.682584173979999884e-03,1.807066611949999929e-02,-1.024045702070000043e-02,1.000000000000000000e+00
2.675079006999999898e+00,-2.317490030270000112e+00,-1.163541053769999861e-01,-9.445779629310001368e+00,-5.816027987750000371e-03,1.337559707459999928e-02,-2.761903218920000198e-03,1.000000000000000000e+00
2.679923619999999840e+00,-2.263172018490000159e+00,-2.168428436300000040e-01,-9.507422723280001264e+00,-9.627239778639998941e-03,1.261053141210000117e-02,-1.718069240450000035e-02,1.000000000000000000e+00
2.685076115000000208e+00,-2.333755082500000189e+00,-1.941175641400000040e-01,-9.502162026269999728e+00,-6.396887358279999825e-03,-1.153792603869999850e-03,-7.010015659029999492e-03,1.000000000000000000e+00
2.689903236999999780e+00,-2.423482261309999775e+00,-9.142549802410000759e-02,-9.492015895310000673e+00,-9.079053066670001240e-03,-8.872696198520000146e-03,4.625623114409999417e-03,1.000000000000000000e+00
2.694934084999999868e+00,-2.417446780530000172e+00,5.661490880520000241e-02,-9.442037520170000420e+00,-1.641578972339999970e-02,4.129460547120000075e-03,-3.219445701689999974e-03,1.000000000000000000e+00
2.700040405000000199e+00,-2.506503220470000404e+00,1.519105947600000138e-02,-9.453554939489999143e+00,9.938448201860000837e-04,-5.721569526939999581e-03,-9.327949956059998840e-03,1.000000000000000000e+00
2.704925314000000025e+00,-2.534818337589999970e+00,-1.359420275560000065e-02,-9.476347786050000721e+00,1.363764284180000010e-03,-5.356804933399999386e-03,4.831625148649999410e-03,1.000000000000000000e+00
2.710084195999999945e+00,-2.488850367139999964e+00,-2.785331742690000389e-02,-9.463885194839999571e+00,-4.488055594270000739e-03,-3.869650885460000113e-03,8.875713683660000491e-03,1.000000000000000000e+00
2.715092696000000139e+00,-2.491089085980000117e+00,-5.038246698929999684e-02,-9.468768290710000812e+00,-7.297056261450000220e-03,3.586289472880000231e-03,-1.992959994819999692e-03,1.000000000000000000e+00
2.719941346000000149e+00,-2.496587683400000035e+00,1.628861348830000152e-02,-9.454262210970000524e+00,-1.352516002950000101e-02,4.606357309970000348e-03,-9.484834736210000228e-04,1.000000000000000000e+00
2.725077693999999884e+00,-2.533430098100000194e+00,1.244445002520000038e-01,-9.471233804039998816e+00,-1.619484741239999963e-03,1.828367821869999804e-03,9.986659511919999607e-03,1.000000000000000000e+00
2.730071988000000172e+00,-2.503979547209999712e+00,2.557154946560000197e-02,-9.489526416580000401e+00,-8.321753703060000285e-03,2.649439964440000045e-03,4.456107504670000184e-03,1.000000000000000000e+00
2.734933864999999908e+00,-2.494440734499999923e+00,-5.864115393580000141e-02,-9.452598661679999736e+00,-1.379464473579999906e-02,9.272309951480000104e-03,5.622261203829999679e-03,1.000000000000000000e+00
2.739914058000000097e+00,-2.452244391540000290e+00,-7.989396798600000016e-02,-9.421170673230001569e+00,-3.252443298700000152e-02,8.696134202180001369e-03,1.613534754140000249e-03,1.000000000000000000e+00
2.744914898999999853e+00,-2.527611474950000048e+00,-4.331312682469999620e-02,-9.471557629169998549e+00,-2.067634463309999879e-02,1.876843161879999944e-02,1.552266348150000037e-02,1.000000000000000000e+00
2.749914361000000085e+00,-2.458156245930000150e+00,5.041851098369999618e-02,-9.481780917020000032e+00,-3.632998466489999884e-02,2.524439617990000342e-02,1.490644644950000174e-02,1.000000000000000000e+00
2.754889217000000112e+00,-2.464702014320000245e+00,5.654621834999999652e-02,-9.473761861210000745e+00,-2.060732804240000132e-02,3.125586081300000228e-03,1.827521948140000243e-03,1.000000000000000000e+00
2.759952305000000106e+00,-2.509124801150000028e+00,-8.726250572630001034e-02,-9.452972755689998507e+00,-1.487634703519999900e-02,2.170961908999999995e-02,2.061884850259999846e-02,1.000000000000000000e+00
2.764891517000000132e+00,-2.467984104729999739e+00,-8.147647880389999320e-02,-9.467610937369999036e+00,-1.183914579450000108e-02,1.108260173350000127e-02,2.334120124580000080e-02,1.000000000000000000e+00
2.770070705000000189e+00,-2.415732523960000044e+00,-2.957347401670000139e-02,-9.502457794339999708e+00,-2.358463592829999900e-02,2.416505292059999838e-02,1.810086145999999924e-02,1.000000000000000000e+00
2.774928248000000153e+00,-2.486169457499999957e+00,-1.510800028539999867e-02,-9.495522442120000406e+00,-2.461643703280000026e-02,2.131398208440000303e-02,2.999349869790000206e-02,1.000000000000000000e+00
2.779910607000000144e+00,-2.451538142970000056e+00,-2.616826183330000014e-02,-9.541610824079999276e+00,-4.073427245019999726e-02,1.725506596269999957e-02,1.796733774240000248e-02,1.000000000000000000e+00
2.784881111999999881e+00,-2.504192313179999907e+00,1.935096431089999847e-01,-9.590488544500001211e+00,-3.369720652699999958e-02,8.880770765239999476e-03,2.537785097959999875e-02,1.000000000000000000e+00
2.789881504999999873e+00,-2.439184711220000246e+00,1.070559238819999981e-01,-9.552495790710000989e+00,-3.230809047819999807e-02,1.245262008160000038e-02,-7.118415087459999645e-03,1.000000000000000000e+00
2.794877132999999958e+00,-2.501146954140000211e+00,-1.614563806409999858e-01,-9.647688103060001907e+00,-1.081989984960000060e-02,1.787844579669999956e-03,6.152524147180001186e-04,1.000000000000000000e+00
2.799868221000000101e+00,-2.401247925409999873e+00,-2.349282614240000011e-01,-9.700963181649999711e+00,1.877874135970000052e-02,-8.559416048229998367e-03,2.201205119490000015e-02,1.000000000000000000e+00
2.805061366999999972e+00,-2.486144907579999952e+00,-2.638405772510000191e-01,-9.492659453910000877e+00,3.086097352209999853e-02,-2.540575526649999777e-02,5.687265843150000194e-02,1.000000000000000000e+00
2.810073878999999941e+00,-2.505878658829999939e+00,-2.075481601320000036e-01,-9.616144379279999654e+00,6.529329717159999824e-02,-3.311102092269999769e-02,6.365054845810000361e-02,1.000000000000000000e+00
2.815083301000000038e+00,-2.566988376569999897e+00,-4.250206617010000160e-02,-9.530161793830000505e+00,6.227591633799999665e-02,-3.938360512259999474e-02,7.928594201800000241e-02,1.000000000000000000e+00
2.819903880000000029e+00,-2.492060853620000405e+00,7.385397543569999224e-02,-9.553719195030000222e+00,5.587566271420000424e-02,-5.599281191830000198e-02,5.763171985749999948e-02,1.000000000000000000e+00
2.824845140999999948e+00,-2.648624164990000196e+00,8.683969547070000128e-02,-9.468609885279999361e+00,2.912470325830000123e-02,-4.927805811169999606e-02,6.540568172930000257e-02,1.000000000000000000e+00
2.829907689000000115e+00,-2.543664491869999988e+00,1.368042521419999824e-01,-9.446602636130000619e+00,3.667058050630000315e-02,-3.757032752040000145e-02,4.571344703440000101e-02,1.000000000000000000e+00
2.834906796999999923e+00,-2.445839931329999661e+00,4.870988500139999955e-02,-9.535866727469999304e+00,2.980847656729999906e-02,-4.488061368469999785e-02,4.606157168750000391e-02,1.000000000000000000e+00
2.839900066999999861e+00,-2.327447360659999909e+00,-2.589116512149999827e-01,-9.706737673400001043e+00,6.180162355299999993e-02,-3.824751824139999840e-02,5.037325993180000183e-02,1.000000000000000000e+00
2.844875592999999814e+00,-2.336333262420000167e+00,-5.015956230659999182e-01,-9.697572954689999136e+00,4.279063269500000405e-02,-3.883448243140000256e-02,7.555264979600000153e-02,1.000000000000000000e+00
2.849906745999999824e+00,-2.463167059829999950e+00,-4.297836383199999388e-01,-9.559694762299999482e+00,8.699251711370001305e-02,-6.415802985429999716e-02,1.027588471770000123e-01,1.000000000000000000e+00
2.854905238000000178e+00,-2.496940442359999679e+00,-2.465573974839999905e-01,-9.447856435589999435e+00,7.373835891489999295e-02,-6.942881643770000555e-02,1.085995361209999982e-01,1.000000000000000000e+00
2.859898685000000107e+00,-2.484141166540000167e+00,2.936986860290000112e-02,-9.459942594700001095e+00,5.702225118879999943e-02,-8.284141123289999464e-02,9.674581140280000269e-02,1.000000000000000000e+00
2.865079678999999935e+00,-2.433740328209999859e+00,4.131273217470000092e-01,-9.491476966120000469e+00,3.149662166830000110e-02,-5.839312076569999621e-02,8.242408931260000737e-02,1.000000000000000000e+00
2.869950419999999891e+00,-2.401858166259999816e+00,6.644826575650000233e-01,-9.442356669119998713e+00,3.280318528409999906e-02,-5.971625447269999359e-02,5.823755636809999775e-02,1.000000000000000000e+00
2.874937731999999802e+00,-2.442374301040000084e+00,7.867020930449999394e-01,-9.331616659039999817e+00,5.441067367790000664e-02,-6.223761290310000222e-02,6.379941105840000737e-02,1.000000000000000000e+00
2.879942219000000136e+00,-2.413528145790000412e+00,6.953695979330000165e-01,-9.292284181080001204e+00,5.999746173619999873e-02,-6.684802472589999878e-02,6.677052378650000231e-02,1.000000000000000000e+00
2.884942489999999804e+00,-2.409353344319999923e+00,3.359901964549999454e-01,-9.293342750219999004e+00,8.143322914839999649e-02,-8.437399566169999365e-02,8.968321979049999337e-02,1.000000000000000000e+00
2.889924630999999966e+00,-2.337203469389999899e+00,-2.531993562500000072e-01,-9.338183177950000413e+00,8.158072084190000350e-02,-8.932577073569999970e-02,7.882110029460000222e-02,1.000000000000000000e+00
2.894946723999999971e+00,-2.347399430840000356e+00,-8.024867413500000879e-01,-9.429742686750000047e+00,5.860786885020000114e-02,-9.073710441589999398e-02,9.537547826770000070e-02,1.000000000000000000e+00
2.899973215000000160e+00,-2.327736552859999808e+00,-1.068636947249999913e+00,-9.392332116760000460e+00,1.987335644659999831e-02,-9.328710287810002000e-02,1.071190312499999964e-01,1.000000000000000000e+00
2.905089186000000101e+00,-2.475563015550000134e+00,-1.086702326900000015e+00,-9.461886714500000295e+00,-2.114271745090000321e-02,-1.047689840200000111e-01,1.403752267360000028e-01,1.000000000000000000e+00
2.910107383999999797e+00,-2.304987837700000153e+00,-8.331789628640000611e-01,-9.531531913139998480e+00,-6.705665588380001207e-02,-1.185726076359999992e-01,1.460454910990000021e-01,1.000000000000000000e+00
2.915072014999999794e+00,-2.267749555540000017e+00,-3.950148150159999982e-01,-9.613694648039999180e+00,-8.233259618280000525e-02,-1.181523948910000038e-01,1.374350041149999813e-01,1.000000000000000000e+00
2.919952609000000088e+00,-2.383033492670000086e+00,-1.156702786979999925e-01,-9.522065581130000567e+00,-1.102677732709999997e-01,-1.059224754570000093e-01,1.565034389499999901e-01,1.000000000000000000e+00
2.924945114999999873e+00,-2.513042851379999831e+00,-7.654493611930000829e-02,-9.466322066600000085e+00,-1.166231483220000059e-01,-1.284115463499999887e-01,1.593396216630000028e-01,1.000000000000000000e+00
