t,ax,ay,az,wx,wy,wz,zv
5.005729999999999902e-03,-4.341654701330000421e+00,-5.836015599710000501e-01,-8.751868559620000099e+00,-4.726275801660000261e-04,-7.576953154059999987e-03,-7.078553549949999184e-03,1.000000000000000000e+00
1.003733300000000071e-02,-4.340273183839999938e+00,-5.514479241349999894e-01,-8.737306365789999418e+00,7.294298149649999265e-03,1.102449372410000024e-02,-1.608087331990000176e-03,1.000000000000000000e+00
1.501378100000000035e-02,-4.358144356100000394e+00,-5.751171151449999686e-01,-8.729548006739998200e+00,7.893360219899999558e-03,-1.614125631749999817e-02,5.468957126140000340e-03,1.000000000000000000e+00
2.000840799999999836e-02,-4.361094145819999213e+00,-5.608190156029999596e-01,-8.739486047910000721e+00,6.976058706640000245e-03,-3.215827513489999748e-03,-1.708288677040000099e-03,1.000000000000000000e+00
2.502790599999999907e-02,-4.357718531899999803e+00,-5.599083304990000176e-01,-8.758329864589999403e+00,1.059918664399999919e-02,-3.654882777480000008e-03,5.845882929859999924e-03,1.000000000000000000e+00
2.998642400000000111e-02,-4.325909142930000506e+00,-5.647171555529999498e-01,-8.764257501070000345e+00,8.582632057369999137e-03,-3.334983019159999673e-03,-2.866692841050000155e-03,1.000000000000000000e+00
3.494723100000000221e-02,-4.373081228469999360e+00,-5.469164547179999891e-01,-8.784747331400000192e+00,1.860126480459999704e-02,-8.308289572600000353e-03,-6.932232528919999789e-03,1.000000000000000000e+00
3.996922599999999659e-02,-4.363842860000000101e+00,-5.600688548229999508e-01,-8.772922453570000556e+00,3.525055013600000061e-03,1.773245166990000069e-03,8.603339083490001149e-03,1.000000000000000000e+00
4.490721599999999980e-02,-4.283377576669999520e+00,-5.459450889350000446e-01,-8.784185605860001189e+00,-6.794604472819999394e-03,-6.870920304210000051e-03,-9.466587565840000121e-03,1.000000000000000000e+00
4.995496900000000184e-02,-4.362316088830000105e+00,-5.685395633850000019e-01,-8.795137792510001162e+00,6.064635235819999456e-03,-1.789980940520000119e-02,-1.521334517750000045e-03,1.000000000000000000e+00
5.503730800000000006e-02,-4.349199125360000195e+00,-5.803305389439999962e-01,-8.784241135439998516e+00,9.351845830679999735e-03,-1.015156041829999925e-02,-1.566371181980000075e-03,1.000000000000000000e+00
5.999421499999999657e-02,-4.374389680719999340e+00,-5.731144335530000689e-01,-8.777000078269999506e+00,2.558584883810000044e-02,3.029614686969999901e-03,8.863705210389998326e-03,1.000000000000000000e+00
6.500532800000000111e-02,-4.317091337959999997e+00,-5.373723082379999738e-01,-8.764536902539999730e+00,1.112150307740000094e-02,1.827459782359999946e-03,-2.899463986980000026e-03,1.000000000000000000e+00
7.006902600000000647e-02,-4.314014414730000802e+00,-5.779599738880000226e-01,-8.783206531689998542e+00,2.277397736910000137e-02,-4.776295274499999834e-03,-1.842143945400000205e-02,1.000000000000000000e+00
7.505422500000000219e-02,-4.354603907009999553e+00,-5.562601832549999292e-01,-8.746602601919999387e+00,1.022044476120000100e-02,1.170369051399999978e-02,-9.356956928969999490e-03,1.000000000000000000e+00
8.003917400000000459e-02,-4.369431181530000430e+00,-5.813949533050000174e-01,-8.759880601160000779e+00,6.483245640989999253e-03,7.780195679520000331e-03,1.314258854839999921e-02,1.000000000000000000e+00
8.504426299999999495e-02,-4.292124362219999156e+00,-5.958969779209999373e-01,-8.793840153910000623e+00,1.814505457879999825e-02,-4.494257271289999779e-03,-1.309341657910000067e-02,1.000000000000000000e+00
9.013762899999999689e-02,-4.367025289429999901e+00,-5.768497841559999673e-01,-8.789389604239998377e+00,1.987740769979999891e-02,-9.931189939379999124e-03,2.072211122140000389e-03,1.000000000000000000e+00
9.505195099999999564e-02,-4.340452924320000072e+00,-6.030236879959999241e-01,-8.793715066229999877e+00,-4.511057049969999992e-04,-4.577431827780000222e-04,-8.018824737519999416e-04,1.000000000000000000e+00
1.000396080000000021e-01,-4.356417093909999316e+00,-5.789222795809999544e-01,-8.761413217560001243e+00,6.883143912999999808e-03,1.083438843489999831e-02,-1.713170204309999770e-04,1.000000000000000000e+00
1.050387480000000012e-01,-4.353305976159999702e+00,-5.680385550609999834e-01,-8.745639309839999598e+00,2.054755389690000184e-02,1.182470005009999929e-03,-7.116620428860000180e-03,1.000000000000000000e+00
1.100400740000000016e-01,-4.374218708069999906e+00,-5.573886758280000020e-01,-8.753931921889998691e+00,-5.052513908590000775e-03,-3.987072501329999574e-03,-5.764036439359999063e-03,1.000000000000000000e+00
1.149554770000000004e-01,-4.316416799700000695e+00,-5.680810059629999298e-01,-8.733704541899999896e+00,1.002185884859999911e-02,9.591083507979999891e-04,-1.075946446510000175e-02,1.000000000000000000e+00
1.200037310000000024e-01,-4.383305977620000071e+00,-5.549482238740000017e-01,-8.742336176649999402e+00,2.134645730259999638e-02,-1.833492657169999993e-03,7.533531170339999045e-04,1.000000000000000000e+00
1.250118679999999982e-01,-4.335489456700000410e+00,-5.550525610309999802e-01,-8.746472253540000352e+00,1.812987402079999782e-02,-6.162532139569999734e-03,-2.359965350479999949e-03,1.000000000000000000e+00
1.299765170000000136e-01,-4.339273066889999697e+00,-5.978159267520000153e-01,-8.740179875389999964e+00,1.198062114419999949e-02,-6.204307079319999405e-03,-3.887156490239999755e-03,1.000000000000000000e+00
1.350662970000000018e-01,-4.344696845499999682e+00,-5.477676281869999775e-01,-8.734249900820000079e+00,8.454095572229999508e-03,6.645718123759999756e-03,-8.327951654790000102e-03,1.000000000000000000e+00
1.399862400000000118e-01,-4.295275811989999859e+00,-5.945150951079999357e-01,-8.761182915930000092e+00,7.858551107350000495e-03,1.727655902500000243e-02,-2.008480392399999981e-02,1.000000000000000000e+00
1.450403610000000065e-01,-4.352424224890000026e+00,-5.744654828349999853e-01,-8.779334658699999849e+00,1.354400347920000150e-02,-1.151111163200000016e-02,-7.390468381350000270e-04,1.000000000000000000e+00
1.500424850000000032e-01,-4.328813632200000150e+00,-5.825097096140000597e-01,-8.758190748380000556e+00,1.279240380970000056e-02,4.565605893730000087e-03,-7.497483864430000769e-03,1.000000000000000000e+00
1.549959710000000102e-01,-4.324297908340000163e+00,-5.717372269149999520e-01,-8.748834891019999560e+00,1.407954655589999798e-02,-8.725136518479999909e-03,-1.462674327189999839e-02,1.000000000000000000e+00
1.600450079999999886e-01,-4.345516929719999588e+00,-5.946332050629999921e-01,-8.778796314039999160e+00,1.404386293139999950e-02,1.514130271970000156e-02,-5.675132386390000123e-03,1.000000000000000000e+00
1.650259689999999946e-01,-4.341450410930000281e+00,-6.015546018240000015e-01,-8.760395564950000491e+00,1.087128371000000045e-02,2.108255866910000234e-03,-6.761088967319999442e-03,1.000000000000000000e+00
1.700239020000000045e-01,-4.315462859970000231e+00,-6.100230818959999635e-01,-8.766993648039999698e+00,5.319603951650000561e-04,2.697552088649999864e-03,-8.975050412120001361e-03,1.000000000000000000e+00
1.750424399999999936e-01,-4.349099464380000057e+00,-5.945861510509999892e-01,-8.777324487919999640e+00,1.321015600120000084e-02,8.724905550479999938e-03,-3.076258813959999779e-03,1.000000000000000000e+00
1.800377629999999896e-01,-4.293166272489999713e+00,-5.981931260339999890e-01,-8.770907606610000684e+00,8.476343937220000291e-03,-8.908558636899998467e-03,-1.229638047519999999e-02,1.000000000000000000e+00
1.850251599999999941e-01,-4.318613432960000331e+00,-6.230986539049999662e-01,-8.764612305860000063e+00,1.133940462019999984e-02,-6.954821757970000920e-03,-1.117837801579999943e-02,1.000000000000000000e+00
1.899268189999999967e-01,-4.348694098450000212e+00,-6.230344295629999252e-01,-8.764124230080000189e+00,3.656165674330000108e-03,-1.987572293729999908e-03,-3.262921702119999517e-03,1.000000000000000000e+00
1.950144930000000110e-01,-4.330427497130000525e+00,-6.239966987239999874e-01,-8.737872182969999457e+00,1.316215377300000017e-02,1.152151264250000050e-03,-4.631313495340000537e-03,1.000000000000000000e+00
1.999612639999999997e-01,-4.350392426800000045e+00,-6.383841935819999369e-01,-8.753129957860000587e+00,3.188962116840000395e-03,-1.433299854400000260e-03,1.599158858880000153e-03,1.000000000000000000e+00
2.049630110000000005e-01,-4.373794345169999431e+00,-6.003080358290000529e-01,-8.753282518069999796e+00,3.890501102429999743e-05,2.638099715109999948e-03,1.763655245300000188e-02,1.000000000000000000e+00
2.099680979999999919e-01,-4.298627460509999665e+00,-5.788053386710000359e-01,-8.749380249939999743e+00,4.004714079199999353e-03,3.245884552600000143e-03,-1.301048230379999934e-02,1.000000000000000000e+00
2.149817019999999967e-01,-4.357196553849999709e+00,-5.856592231530000081e-01,-8.713750133630000505e+00,3.780753817409999908e-03,5.574838723990000475e-04,-1.014180388299999909e-02,1.000000000000000000e+00
2.200104679999999868e-01,-4.381685098419999314e+00,-6.216857183680000176e-01,-8.746205127030000526e+00,4.267526790499999445e-03,4.313576500859999698e-03,1.402266416699999955e-02,1.000000000000000000e+00
2.249918780000000063e-01,-4.319911071559999982e+00,-5.775243589490000051e-01,-8.730862011950000223e+00,2.663692692289999688e-03,2.661299426110000366e-03,4.024462774400000206e-03,1.000000000000000000e+00
2.299702379999999935e-01,-4.382290078580000525e+00,-5.966185701939999975e-01,-8.745698931079999738e+00,-7.374307606369999652e-04,8.139624260369999467e-04,1.650371588769999898e-02,1.000000000000000000e+00
2.351438889999999948e-01,-4.270438600119999428e+00,-6.158584004539999768e-01,-8.756073025580001001e+00,-1.784661784769999912e-02,6.661731284110000012e-03,-1.113942172379999915e-02,1.000000000000000000e+00
2.400382229999999950e-01,-4.411154646269999979e+00,-6.001944924519999613e-01,-8.749076298560000353e+00,-5.453314166520000818e-03,-2.335486933590000345e-03,1.297144312410000028e-02,1.000000000000000000e+00
2.450352120000000022e-01,-4.321458885520000237e+00,-5.982653144870000439e-01,-8.783714481220000536e+00,-1.151785254480000012e-03,-9.559432044629999001e-03,1.266887690869999972e-02,1.000000000000000000e+00
2.500990459999999915e-01,-4.336056735189999678e+00,-6.149040954029999506e-01,-8.785727574600000978e+00,7.740914821620000115e-03,1.445546001199999979e-02,1.540136430410000111e-02,1.000000000000000000e+00
2.549593250000000144e-01,-4.268309479130000028e+00,-6.230871095979999552e-01,-8.757838866200000183e+00,-5.380018614229999628e-03,2.237679809329999950e-02,-2.406005049119999857e-03,1.000000000000000000e+00
2.600551839999999948e-01,-4.314681646469999521e+00,-5.779095954070000429e-01,-8.769450978060001844e+00,-2.419319003820000376e-03,1.097385305910000006e-03,-7.807922549550000250e-03,1.000000000000000000e+00
2.650793969999999944e-01,-4.354950820750000062e+00,-5.876544155589999985e-01,-8.798989207239999999e+00,-1.045967731620000077e-02,7.673184853049999990e-03,3.539648139850000343e-03,1.000000000000000000e+00
2.700464870000000017e-01,-4.325345079299999895e+00,-5.839317052410000208e-01,-8.785581444129999085e+00,-6.971811875699999127e-03,9.838484227659999998e-03,-5.648242309689998839e-03,1.000000000000000000e+00
2.750479699999999750e-01,-4.351778328199999990e+00,-5.743966188499999292e-01,-8.783269075539999804e+00,1.506736152810000170e-04,1.337169669570000170e-02,-1.276303082700000176e-03,1.000000000000000000e+00
2.800724940000000052e-01,-4.366484606680000269e+00,-5.396981573699999313e-01,-8.761888433860001157e+00,-1.005962770429999834e-02,-3.704883158210000183e-03,7.858647964890001086e-03,1.000000000000000000e+00
2.850150040000000162e-01,-4.318243430599999932e+00,-5.898530215810000588e-01,-8.783115346280000679e+00,-8.178788237269999858e-03,-3.107071388510000091e-03,-5.605552345510000575e-03,1.000000000000000000e+00
2.900541850000000199e-01,-4.342249160089999727e+00,-6.015718452189999788e-01,-8.763869378539999033e+00,-1.672030659390000198e-03,9.163942188020000185e-03,-8.119056001310000215e-03,1.000000000000000000e+00
2.950399380000000016e-01,-4.335705145280000394e+00,-5.920803787749999714e-01,-8.759659067370000329e+00,-9.198324754829999630e-03,9.125903248790000200e-03,-5.344986915590000873e-03,1.000000000000000000e+00
3.000575140000000252e-01,-4.371801710049999734e+00,-5.836978964850000340e-01,-8.752601550070000513e+00,-3.569080028680000297e-03,4.018824547530000665e-04,1.652416586879999760e-02,1.000000000000000000e+00
3.050415960000000259e-01,-4.281951343259999376e+00,-6.137286218830000362e-01,-8.776927597560000294e+00,-1.359031535690000082e-03,-4.092029295860000193e-03,4.499919712539999887e-03,1.000000000000000000e+00
3.100599499999999731e-01,-4.345950644960000275e+00,-6.171726979230000021e-01,-8.780415439669999600e+00,1.127411518249999897e-02,-8.307205280289999341e-04,3.111526602880000138e-03,1.000000000000000000e+00
3.150451579999999918e-01,-4.306287035350000458e+00,-5.933831684689999664e-01,-8.768314082989999036e+00,-2.317142672840000195e-03,-4.374536685649999500e-03,-3.646048484370000096e-03,1.000000000000000000e+00
3.200692439999999750e-01,-4.330516636719999646e+00,-6.112469611349999887e-01,-8.771704894470000013e+00,3.308723215010000215e-03,-9.327706880870000050e-03,9.025123435999999688e-04,1.000000000000000000e+00
3.249744709999999870e-01,-4.332158558709999774e+00,-5.908212090269999717e-01,-8.751337229229999792e+00,-4.387087654319999676e-03,3.786524757739999966e-03,2.214758889750000070e-03,1.000000000000000000e+00
3.300707780000000091e-01,-4.331055565899999849e+00,-5.897546027080000641e-01,-8.768994466469999693e+00,4.773291759189999747e-03,1.650312542920000236e-02,-1.320204697549999919e-03,1.000000000000000000e+00
3.351043269999999796e-01,-4.364946437330000428e+00,-6.145625884890000279e-01,-8.756385744790000203e+00,3.713021520530000123e-03,1.604994758959999920e-02,3.697423497210000198e-03,1.000000000000000000e+00
3.400344209999999756e-01,-4.338430186330000105e+00,-5.982218406720000159e-01,-8.792298769689999460e+00,8.081820560619999401e-04,1.619252562520000216e-02,-4.721167497339999984e-03,1.000000000000000000e+00
3.450399690000000019e-01,-4.366594496800000336e+00,-6.027853491950000420e-01,-8.767387615789999700e+00,4.618755541739999644e-03,1.397786661979999803e-02,4.267975687979999599e-03,1.000000000000000000e+00
3.499781829999999982e-01,-4.311182406180000370e+00,-5.775497125859999636e-01,-8.731054904169999631e+00,-1.483457162980000030e-05,-5.604833364489998984e-03,-6.807566620409999554e-03,1.000000000000000000e+00
3.550563580000000163e-01,-4.316707891600000124e+00,-6.043679056790000059e-01,-8.795999377770000294e+00,2.639636863019999974e-03,6.312250625340000421e-03,-2.567028161140000059e-03,1.000000000000000000e+00
3.600680019999999981e-01,-4.318932289649999312e+00,-6.161657859019999961e-01,-8.796298652979999133e+00,-8.481516502800000995e-03,-5.238365381960000122e-03,-1.132092345510000118e-02,1.000000000000000000e+00
3.651170280000000101e-01,-4.345678550019999697e+00,-6.006784765760000422e-01,-8.783958811369998898e+00,4.184006713329999766e-03,3.291540313509999996e-03,5.297965370119999719e-03,1.000000000000000000e+00
3.700393399999999944e-01,-4.302060649830000472e+00,-5.811829910549999312e-01,-8.746010481239999024e+00,4.887907765810000846e-03,1.409087702630000029e-02,-1.962709240619999948e-02,1.000000000000000000e+00
3.750459780000000021e-01,-4.366269210369999598e+00,-5.885274720659999792e-01,-8.758687007469999841e+00,6.337559316310000315e-03,2.954644616689999607e-03,2.135296119380000312e-03,1.000000000000000000e+00
3.800395010000000018e-01,-4.343638276360000106e+00,-5.763226184769999483e-01,-8.734118967919998866e+00,1.767901238049999742e-03,-1.196149387400000184e-03,-1.537478994580000063e-03,1.000000000000000000e+00
3.850144970000000111e-01,-4.351423523409999383e+00,-5.967941459559999995e-01,-8.754835008210001490e+00,-6.458841962740000889e-04,-4.854921717199999799e-03,8.933148346839999560e-03,1.000000000000000000e+00
3.900385900000000183e-01,-4.367999395160000020e+00,-6.133033091430000194e-01,-8.759206062899998813e+00,4.131258931009999628e-03,2.658148296180000078e-02,2.095365663990000210e-03,1.000000000000000000e+00
3.950388180000000138e-01,-4.313982850550000414e+00,-5.647952988229999471e-01,-8.767079572760000161e+00,1.077075209470000107e-02,5.329582374540000819e-03,-5.057317204770000844e-03,1.000000000000000000e+00
4.000486169999999952e-01,-4.338867408699999650e+00,-5.825384973170000258e-01,-8.761752824780000282e+00,3.260657191280000224e-03,-2.458711620420000240e-03,-6.982188671829999901e-03,1.000000000000000000e+00
4.050958230000000215e-01,-4.319242378510000258e+00,-5.876282216709999284e-01,-8.788760074169999825e+00,-5.575437098740000479e-04,1.528385560960000182e-03,-4.962159786369999340e-03,1.000000000000000000e+00
4.100525090000000095e-01,-4.341484897719999125e+00,-5.895299271070000291e-01,-8.740541109920000551e+00,-7.557558827100000279e-03,1.840008236470000100e-02,-8.817086927590000490e-05,1.000000000000000000e+00
4.150694489999999792e-01,-4.332111212440000081e+00,-6.592490677600000293e-01,-8.818068586239999007e+00,-5.415512714529999768e-05,5.228066351260000216e-03,8.473398163910000197e-03,1.000000000000000000e+00
4.200896610000000031e-01,-4.300319651379999719e+00,-6.018952684880000126e-01,-8.793073845710001279e+00,-2.801433438440000326e-03,3.432361409069999755e-03,-5.378259345890000487e-03,1.000000000000000000e+00
4.250433120000000065e-01,-4.312147744080000678e+00,-5.898314308040000231e-01,-8.772921869050000154e+00,-1.073916070160000139e-02,-7.186008151619999781e-04,-1.246129814540000019e-02,1.000000000000000000e+00
4.300404319999999725e-01,-4.335911773759999477e+00,-5.993321034690000104e-01,-8.768287194980000976e+00,-1.407582079989999971e-03,1.214754022660000099e-02,-3.838827135039999967e-03,1.000000000000000000e+00
4.350306010000000168e-01,-4.342145115200000127e+00,-5.849389095220000057e-01,-8.756328461639999006e+00,5.974378436799999189e-04,-1.425020955499999888e-02,5.656938999890000902e-03,1.000000000000000000e+00
4.400727669999999758e-01,-4.319472680139999632e+00,-6.266323079240000427e-01,-8.764324721090000381e+00,2.310853684320000271e-03,-9.696597233410000904e-03,2.627963433039999779e-03,1.000000000000000000e+00
4.450878010000000051e-01,-4.327103028889999869e+00,-5.861523404330000186e-01,-8.762074311819999295e+00,-2.936328528449999673e-03,3.076029941439999832e-03,7.752461824569999724e-04,1.000000000000000000e+00
4.501256169999999779e-01,-4.316161655890000226e+00,-5.744037061779999620e-01,-8.774407723690000438e+00,-6.845509167760000825e-03,1.468524336810000074e-02,-1.085615018380000057e-03,1.000000000000000000e+00
4.550755650000000152e-01,-4.302555155350000327e+00,-6.707408411770000578e-01,-8.763665380399999094e+00,-1.318797934799999932e-02,-1.067158998920000011e-03,2.148476196449999789e-03,1.000000000000000000e+00
4.601105010000000051e-01,-4.266932637819999208e+00,-6.649410688569999950e-01,-8.782656496599999585e+00,6.782519165430000302e-03,9.310696274040001011e-03,-1.519723609089999872e-02,1.000000000000000000e+00
4.649664760000000174e-01,-4.342624130880000877e+00,-6.460566279060000472e-01,-8.799502417460001169e+00,-1.814357936379999703e-02,4.443876910949999710e-03,6.178888492289999999e-03,1.000000000000000000e+00
4.700293600000000072e-01,-4.322079647769999866e+00,-6.205446585739999854e-01,-8.755496102469999542e+00,-7.703705225140000321e-03,-2.742339856920000124e-03,-4.609392490239999987e-03,1.000000000000000000e+00
4.749962090000000026e-01,-4.320842799450000271e+00,-5.934176917930000794e-01,-8.768577117839999602e+00,-4.729998297989999878e-03,1.797803677619999770e-03,6.476303096859999933e-04,1.000000000000000000e+00
4.800341459999999949e-01,-4.334787738169999294e+00,-5.734688730139999580e-01,-8.800867860589999481e+00,-4.115178890059999705e-04,3.240483347329999562e-03,1.191448792820000088e-02,1.000000000000000000e+00
4.850791680000000050e-01,-4.312239221750000517e+00,-5.385594356630000190e-01,-8.768968747509999773e+00,-1.821743906480000020e-03,8.272400125859998704e-03,-8.115036413069999163e-03,1.000000000000000000e+00
4.900318490000000193e-01,-4.374242381200000196e+00,-5.412303353730000266e-01,-8.805718223230000419e+00,5.072106141600000659e-03,-3.571336623280000136e-03,-2.665068022909999781e-04,1.000000000000000000e+00
4.949706190000000006e-01,-4.325084967059999563e+00,-5.658435292339999423e-01,-8.753739614189999685e+00,-1.532376743850000049e-02,-3.085979260500000022e-03,-5.409702658649999732e-03,1.000000000000000000e+00
5.000134750000000405e-01,-4.388514944439999788e+00,-5.778924981419999440e-01,-8.772664094889998765e+00,-5.722267087549999867e-03,-1.543553732339999866e-02,2.044547162950000052e-02,1.000000000000000000e+00
5.050682229999999828e-01,-4.301382896699999847e+00,-5.468042995800000972e-01,-8.757150299419999229e+00,2.499073976650000115e-03,9.763604030010000941e-04,-2.120765158910000326e-03,1.000000000000000000e+00
5.100446309999999706e-01,-4.380416101399999818e+00,-5.552681765429999805e-01,-8.781542397870000016e+00,-9.979822672900000649e-03,-9.045911720019999365e-04,5.134269595149999060e-03,1.000000000000000000e+00
5.150776329999999792e-01,-4.329364251819999510e+00,-5.716536768180000561e-01,-8.740399071100000583e+00,1.904559135439999953e-02,-1.949107833209999877e-02,-9.063910692930000380e-04,1.000000000000000000e+00
5.200661399999999546e-01,-4.348277918860000035e+00,-5.444188292160000442e-01,-8.759345179109999435e+00,1.320040691639999889e-02,2.225117757920000178e-03,-3.206000197680000056e-03,1.000000000000000000e+00
5.249947889999999617e-01,-4.367273126709999786e+00,-5.812058239410000660e-01,-8.759556776040000159e+00,1.112238969650000166e-02,-3.047599224369999804e-03,-8.325220085680000784e-03,1.000000000000000000e+00
5.300880350000000130e-01,-4.395774121790000599e+00,-5.798113008429999216e-01,-8.745747446390000235e+00,-2.953095361589999895e-03,-1.398416468869999882e-03,-1.108257565649999922e-02,1.000000000000000000e+00
5.349988909999999764e-01,-4.395818837719999372e+00,-5.929980416089999373e-01,-8.745326590630000396e+00,-1.099553704259999959e-02,-2.004876174030000013e-02,1.328211976220000168e-03,1.000000000000000000e+00
5.400693189999999921e-01,-4.360372261280000217e+00,-5.835535561110000158e-01,-8.747046254029999801e+00,6.513809785250000185e-03,-8.324299007649998972e-03,3.669881029050000524e-03,1.000000000000000000e+00
5.450194130000000081e-01,-4.368536570779999906e+00,-5.929613628600000075e-01,-8.736133230349999224e+00,-4.367912653830000394e-03,1.002445816990000030e-02,8.283125236629999139e-03,1.000000000000000000e+00
5.500266019999999756e-01,-4.335971102740000305e+00,-5.741182037680000461e-01,-8.753292454949999524e+00,7.080353796480000177e-03,5.261210259050000740e-03,1.913178944959999976e-03,1.000000000000000000e+00
5.550308210000000075e-01,-4.316360393340000101e+00,-5.884070970889999641e-01,-8.747742419599999764e+00,-1.083228457720000065e-02,1.400594227020000165e-02,-5.414741113780000004e-03,1.000000000000000000e+00
5.600383749999999772e-01,-4.356958653450000440e+00,-6.041580257880000415e-01,-8.786603188400000874e+00,8.091755211350000823e-03,-1.879066694530000063e-04,1.061540329830000040e-03,1.000000000000000000e+00
5.650131579999999598e-01,-4.339456314499999579e+00,-5.778145375350000057e-01,-8.763156261830001625e+00,1.902139186859999956e-02,9.605793282389999896e-03,2.526021329689999949e-03,1.000000000000000000e+00
5.699707569999999945e-01,-4.333287270480000508e+00,-5.729094125000000481e-01,-8.752039240010001109e+00,-4.322986118499999759e-03,-2.417242620139999684e-03,-6.421371363100000958e-03,1.000000000000000000e+00
5.750124530000000345e-01,-4.361479930259999804e+00,-5.802103466300000401e-01,-8.766612539769999657e+00,-9.061202872539999426e-04,1.350118778650000141e-03,4.415649920699999537e-03,1.000000000000000000e+00
5.800166490000000508e-01,-4.320741677160000016e+00,-5.897683755049999421e-01,-8.769099095890000584e+00,-5.712191108610000477e-03,-1.823396887630000232e-03,-2.550473669539999981e-03,1.000000000000000000e+00
5.850433950000000216e-01,-4.332685505189999731e+00,-5.657759073579999853e-01,-8.745425374830000820e+00,-2.872317098079999950e-03,1.731997914609999939e-02,-3.194326534869999790e-03,1.000000000000000000e+00
5.899881219999999482e-01,-4.331669313889999984e+00,-5.933557690049999778e-01,-8.765877211230000299e+00,-3.329658647999999676e-03,1.857651397590000253e-02,2.098822733389999959e-03,1.000000000000000000e+00
5.949707969999999957e-01,-4.312333914299999904e+00,-6.127011054659999845e-01,-8.794881771919998315e+00,-5.934239365159999467e-03,-9.624191559850000383e-03,6.482826545829999815e-03,1.000000000000000000e+00
6.000296840000000076e-01,-4.323428724290000247e+00,-6.041673050729999828e-01,-8.777758203160001216e+00,1.198338437829999867e-02,-1.442600972950000039e-02,8.077166043220000702e-03,1.000000000000000000e+00
6.049513210000000418e-01,-4.284093031459999423e+00,-6.021463571720000463e-01,-8.811698466689998455e+00,-9.541395120319999881e-03,9.672887623309998906e-03,-1.265176339069999959e-03,1.000000000000000000e+00
6.099278500000000491e-01,-4.337992087169999067e+00,-5.941919641009999475e-01,-8.727523807439999004e+00,-6.242757663130000384e-03,2.500300668179999963e-02,4.249925725159999640e-03,1.000000000000000000e+00
6.149365900000000051e-01,-4.301236766219999730e+00,-5.979604863220000510e-01,-8.759108447750000082e+00,-5.711073055859999456e-03,-5.119377747180000639e-03,-1.942323520779999993e-02,1.000000000000000000e+00
6.199227990000000243e-01,-4.378709589740000574e+00,-6.110669283930000306e-01,-8.764763112509999843e+00,6.236956920470000665e-03,3.001211676749999946e-03,-7.373334374279998972e-03,1.000000000000000000e+00
6.250330389999999570e-01,-4.335222330189999695e+00,-6.136071874609999588e-01,-8.767089509630000776e+00,-1.092828251420000125e-02,8.543381467460000461e-03,2.611148869619999910e-03,1.000000000000000000e+00
6.300091650000000376e-01,-4.291718704030000886e+00,-5.659134891979999971e-01,-8.755386212350000363e+00,-4.290972836320000768e-03,1.330603845420000146e-02,-1.161512918770000145e-02,1.000000000000000000e+00
6.350700769999999551e-01,-4.333924107079999644e+00,-5.945633912300000157e-01,-8.770465123539999297e+00,-1.240902207789999941e-02,5.192496813829999489e-03,-8.241130970420000590e-03,1.000000000000000000e+00
6.400000190000000311e-01,-4.316257809740000617e+00,-6.172885793869999915e-01,-8.784639779369999957e+00,2.590324729680000201e-04,-1.202861545609999836e-03,-1.347089186309999992e-02,1.000000000000000000e+00
6.449860849999999868e-01,-4.356870682900000347e+00,-5.910619955120000046e-01,-8.773226404949999946e+00,-3.866357437799999657e-04,-9.566189721230000317e-03,7.728707045319999948e-03,1.000000000000000000e+00
6.499885810000000097e-01,-4.337083155630000242e+00,-6.134959821709999872e-01,-8.760671459279999240e+00,1.163410767909999963e-02,6.930348929020000055e-03,1.074330508709999896e-02,1.000000000000000000e+00
6.549672479999999464e-01,-4.314744774830000296e+00,-5.775153353930000399e-01,-8.737478799739999857e+00,1.363491872329999997e-03,1.569038722660000013e-04,-1.133523881439999978e-02,1.000000000000000000e+00
6.599860910000000525e-01,-4.378323513039999781e+00,-6.160476394149999591e-01,-8.792057362150000444e+00,-7.470328826460000300e-03,-9.856192627919998280e-04,-1.392404083160000234e-03,1.000000000000000000e+00
6.649941169999999957e-01,-4.340376936480000225e+00,-5.935173893080000207e-01,-8.786050230689998131e+00,1.180491410200000015e-02,-4.149779677390000136e-03,6.478738039729999183e-03,1.000000000000000000e+00
6.699878580000000472e-01,-4.332052760249999857e+00,-6.113626964699999666e-01,-8.795985933769999932e+00,3.115939442070000259e-03,1.016489602630000003e-02,-1.645345590079999717e-03,1.000000000000000000e+00
6.750203430000000226e-01,-4.324378280099999472e+00,-5.849801913809999920e-01,-8.761099913829999863e+00,6.245742551980000209e-03,-9.415671229359999549e-05,-1.215942204000000073e-03,1.000000000000000000e+00
6.799493319999999619e-01,-4.307531190189999748e+00,-6.065974548289999602e-01,-8.788160354710001343e+00,1.128347590570000052e-02,-7.198796141890000111e-03,-1.325236167760000111e-02,1.000000000000000000e+00
6.850308480000000255e-01,-4.334114076690000594e+00,-5.650073706710000421e-01,-8.783179059169999192e+00,1.163068786259999904e-02,-1.213422417639999952e-02,2.043582499029999837e-04,1.000000000000000000e+00
6.899266269999999590e-01,-4.344055040469999796e+00,-5.731042774849999244e-01,-8.769122476760001561e+00,-4.800651688130000427e-03,5.732989404349999631e-03,3.432227531449999827e-03,1.000000000000000000e+00
6.949742719999999485e-01,-4.339639562119999461e+00,-5.564059118690000139e-01,-8.762197645940000612e+00,1.239342382180000151e-03,7.165226619690000069e-03,6.386742927129999449e-03,1.000000000000000000e+00
6.999198989999999565e-01,-4.362901195240000085e+00,-5.824386902040000757e-01,-8.766565778019998589e+00,8.890475146469999437e-03,1.608540304010000130e-02,-3.419182496150000201e-03,1.000000000000000000e+00
7.049471790000000349e-01,-4.331639503269999913e+00,-6.146876031090000581e-01,-8.762907840029999562e+00,2.856577280910000023e-03,3.973668906840000306e-03,-5.634942092000000055e-03,1.000000000000000000e+00
7.099740650000000430e-01,-4.339398446839999757e+00,-6.396561132140000661e-01,-8.760435312440000288e+00,1.262568030509999932e-02,4.680168349300000558e-04,-2.266645897179999855e-03,1.000000000000000000e+00
7.149645399999999817e-01,-4.351313925559999518e+00,-6.163205380730000238e-01,-8.809733304089998995e+00,3.732739482070000347e-03,1.658026594670000253e-03,1.096053421499999965e-02,1.000000000000000000e+00
7.199678360000000277e-01,-4.300604898059999570e+00,-5.847715170660000572e-01,-8.739455652769999361e+00,2.449344145130000466e-03,-5.155948922039999514e-03,-3.749300027269999742e-03,1.000000000000000000e+00
7.250253190000000014e-01,-4.340491210509999753e+00,-5.811611810819999890e-01,-8.742502765379999374e+00,1.129924692209999942e-02,8.735548704860001193e-03,-7.856698706749999303e-03,1.000000000000000000e+00
7.299641329999999595e-01,-4.368149325020000084e+00,-5.752066565919999874e-01,-8.743601082019999637e+00,1.119234692310000154e-02,2.138495445249999870e-03,-2.557828556750000107e-04,1.000000000000000000e+00
7.349857869999999460e-01,-4.303409141830000451e+00,-6.157588125370000443e-01,-8.749743822550000161e+00,-2.224124502389999893e-03,1.404898706819999793e-03,-1.746465824540000336e-02,1.000000000000000000e+00
7.399795430000000174e-01,-4.384441119130000786e+00,-5.898382989360000384e-01,-8.775202673460000824e+00,7.310092449189999238e-03,1.071548648180000070e-02,1.048039924349999930e-02,1.000000000000000000e+00
7.449915120000000224e-01,-4.292574444080000440e+00,-5.957160683959999981e-01,-8.761261826389999285e+00,9.834840893750000299e-03,8.509293198589999718e-03,-1.123011112209999903e-03,1.000000000000000000e+00
7.499667549999999849e-01,-4.346484897969999928e+00,-5.765725381170000441e-01,-8.756078286270000177e+00,7.924770005049999733e-03,1.679817959670000180e-02,5.166428163649999621e-03,1.000000000000000000e+00
7.549206870000000347e-01,-4.275181118469999042e+00,-5.994869652369999580e-01,-8.772807887280000827e+00,1.207888312639999844e-02,7.899161428209998739e-03,-7.112363819029999656e-04,1.000000000000000000e+00
7.599072380000000404e-01,-4.310730863019999859e+00,-6.211361947260000127e-01,-8.813484765580000158e+00,7.961880415680000142e-03,1.555101014670000163e-02,-4.559357650579999588e-03,1.000000000000000000e+00
7.649907259999999543e-01,-4.297171124220000138e+00,-6.390481373830000367e-01,-8.812782754789999728e+00,-1.262788288299999950e-02,-7.462135981770000315e-03,-4.488475620750000464e-03,1.000000000000000000e+00
7.699524460000000126e-01,-4.266595953209999514e+00,-6.440677921760000757e-01,-8.838143990539998995e+00,-3.945477306839999775e-03,-1.310232467949999993e-02,-1.398260984570000136e-02,1.000000000000000000e+00
7.749908720000000528e-01,-4.307436789909999675e+00,-6.307184081939999354e-01,-8.808354416950001209e+00,-4.249580204489999784e-03,3.526778426020000037e-03,-3.722867229949999510e-03,1.000000000000000000e+00
7.799927909999999631e-01,-4.274198829430000401e+00,-6.520696776500000125e-01,-8.806648782079999904e+00,1.044708956029999879e-02,-6.787398364389999987e-03,-1.668288372460000057e-02,1.000000000000000000e+00
7.850202379999999813e-01,-4.340773534580000259e+00,-5.795380368590000719e-01,-8.818471321819998821e+00,1.325284689660000126e-02,2.054990734910000071e-03,-6.710151210429999950e-03,1.000000000000000000e+00
7.899235230000000163e-01,-4.326709061130000755e+00,-5.686325754309999869e-01,-8.799188529200000275e+00,1.036270242179999912e-02,-5.192684009669999538e-03,-8.672108873719998681e-03,1.000000000000000000e+00
7.949237959999999603e-01,-4.344214030419999872e+00,-5.668838320669999931e-01,-8.732539589769999111e+00,9.095477871599999889e-03,-2.998073399070000367e-02,8.423274848610001189e-04,1.000000000000000000e+00
7.999534219999999696e-01,-4.305189010980000397e+00,-5.264497130109999645e-01,-8.744010831860000721e+00,3.298630937929999604e-03,-2.486590761690000029e-03,-2.264577150340000081e-02,1.000000000000000000e+00
8.049748159999999819e-01,-4.371182701369999535e+00,-5.765472575460000026e-01,-8.767030472920000150e+00,2.000858634709999986e-02,-2.124815247950000152e-02,-2.086232975130000028e-02,1.000000000000000000e+00
8.100147559999999469e-01,-4.361436383380000947e+00,-5.040191969510000591e-01,-8.751020418360001329e+00,1.504777837540000052e-02,-1.286297477779999900e-02,-2.484095748509999716e-04,1.000000000000000000e+00
8.150209339999999747e-01,-4.303687374249999920e+00,-5.445999579360000231e-01,-8.771867391560000726e+00,1.107419747860000081e-02,-2.153055369849999831e-02,-1.493063289670000168e-02,1.000000000000000000e+00
8.199874350000000423e-01,-4.398320299140000778e+00,-5.537108275659999856e-01,-8.750894746149999293e+00,1.397542282940000130e-02,-4.628058522939999461e-03,-1.313208136710000001e-02,1.000000000000000000e+00
8.249547729999999746e-01,-4.361840580269999101e+00,-5.750438672450000066e-01,-8.726762175419999323e+00,1.745720580220000082e-02,-2.998892683540000173e-03,-1.116318721320000082e-02,1.000000000000000000e+00
8.299526900000000484e-01,-4.386001500319999025e+00,-5.966301145010000084e-01,-8.754701737219999558e+00,3.544319421049999669e-02,-2.029668353499999855e-02,-6.245383061470000281e-03,1.000000000000000000e+00
8.350094599999999812e-01,-4.380787857319999645e+00,-5.610576101319999509e-01,-8.761358857019999391e+00,1.143539790060000075e-02,-3.180177183819999764e-03,3.620044095439999866e-03,1.000000000000000000e+00
8.400839879999999482e-01,-4.310359399360000232e+00,-6.026615766849999778e-01,-8.744158715900001155e+00,5.241886246949999800e-03,-8.299499750140000576e-03,-5.050049629060000302e-03,1.000000000000000000e+00
8.450416520000000320e-01,-4.388196380010000119e+00,-5.892225781909999904e-01,-8.729289063550000449e+00,1.399344392119999947e-02,-1.652689278129999828e-02,-6.235011853279999981e-03,1.000000000000000000e+00
8.499800259999999996e-01,-4.249891778909999474e+00,-6.717915192730000706e-01,-8.739200801229999982e+00,1.871635019779999826e-02,-1.179309934380000022e-02,-1.945430040359999793e-02,1.000000000000000000e+00
8.549580270000000093e-01,-4.328742320529999965e+00,-6.837635504880000825e-01,-8.758654274239999538e+00,1.580540090799999881e-02,-1.182756386699999884e-02,-5.409039091319999340e-03,1.000000000000000000e+00
8.599471010000000470e-01,-4.256095894250000455e+00,-6.741941965009998761e-01,-8.744936714530000543e+00,1.827167719600000101e-02,-1.597375795250000063e-02,-1.915328577159999823e-02,1.000000000000000000e+00
8.649733419999999784e-01,-4.308815677050000126e+00,-6.267778538750000683e-01,-8.764317122310000485e+00,3.095698775719999546e-03,-1.657016761600000124e-02,-6.875208578999999695e-03,1.000000000000000000e+00
8.700257249999999720e-01,-4.350800130819999723e+00,-6.447664419649999923e-01,-8.803201271980000797e+00,1.251516770570000082e-02,-9.102417156100000781e-03,-2.367675770069999921e-04,1.000000000000000000e+00
8.749741850000000154e-01,-4.332945032909999661e+00,-6.062890464669999924e-01,-8.762413334510000595e+00,-1.504194270819999950e-02,-7.337408140300000041e-03,-1.147734932599999910e-02,1.000000000000000000e+00
8.799860229999999506e-01,-4.395922882609999860e+00,-6.344861632299999554e-01,-8.735046019640000381e+00,6.078708451239999734e-03,-2.091163955629999835e-02,-6.662441417570000128e-03,1.000000000000000000e+00
8.848386440000000075e-01,-4.390035578140000005e+00,-6.533682660930000274e-01,-8.715954950200000440e+00,6.347495596859999666e-03,-1.242171786729999797e-02,-2.538274042309999774e-03,1.000000000000000000e+00
8.899542719999999907e-01,-4.394086022569999805e+00,-6.331420551449999934e-01,-8.708248029079999952e+00,6.358809769149999756e-04,-7.572182919829999713e-03,1.237011048939999809e-02,1.000000000000000000e+00
8.949549980000000016e-01,-4.329661481199999606e+00,-6.023313948830000264e-01,-8.714903395319998580e+00,1.932036876679999945e-02,6.292573641989999446e-03,2.605947898699999786e-03,1.000000000000000000e+00
8.999014939999999685e-01,-4.311424690499999990e+00,-5.879530697120000093e-01,-8.704173326989998571e+00,4.019311163569999797e-03,1.382029615339999988e-03,-1.815325766800000157e-02,1.000000000000000000e+00
9.049641790000000352e-01,-4.362050131369999306e+00,-5.954363016070000070e-01,-8.741305080030000951e+00,3.047313541170000150e-03,-9.271060116589999612e-04,-9.555558674040001352e-03,1.000000000000000000e+00
9.099546570000000001e-01,-4.351036569919999764e+00,-6.075735333199999699e-01,-8.762014690580000931e+00,2.748538553709999749e-02,-1.190468482670000057e-02,2.447417704389999796e-03,1.000000000000000000e+00
9.149702520000000394e-01,-4.346275346869999723e+00,-6.038107832529999719e-01,-8.736044383030000304e+00,-2.523387782280000092e-03,5.263321567329999444e-03,1.636383123700000178e-02,1.000000000000000000e+00
9.199929390000000096e-01,-4.357420425739999992e+00,-5.561937669550000019e-01,-8.750555138939999367e+00,1.301616709679999893e-02,8.143426384779999796e-04,1.254175882789999863e-02,1.000000000000000000e+00
9.250177510000000547e-01,-4.367569771569999482e+00,-5.823974083460000672e-01,-8.761793741310000883e+00,-6.555534433570000229e-03,-3.808294888590000454e-03,5.121034570039999581e-03,1.000000000000000000e+00
9.300178129999999710e-01,-4.355071524519999571e+00,-6.503598049919999680e-01,-8.764811043299999938e+00,-2.504615113139999939e-03,1.740048453210000026e-02,1.089815981690000005e-02,1.000000000000000000e+00
9.350184740000000438e-01,-4.313206897739999768e+00,-6.404900067550000076e-01,-8.719836760069998860e+00,-5.322137381880000066e-03,8.724313229319999655e-03,3.531896509230000262e-04,1.000000000000000000e+00
9.399469870000000116e-01,-4.325503484730000459e+00,-6.264144273899999726e-01,-8.742609732889999208e+00,-2.146510872990000079e-03,1.575327850879999769e-02,-3.837546799330000032e-03,1.000000000000000000e+00
9.449053680000000233e-01,-4.362460173469999702e+00,-6.177453101790000289e-01,-8.717769890669998745e+00,1.444403454660000106e-02,1.013527996839999959e-02,-7.380164228379999629e-03,1.000000000000000000e+00
9.499425950000000007e-01,-4.360744601730000447e+00,-6.058580346390000093e-01,-8.705646906669999296e+00,-1.714759692550000061e-02,3.360170871020000047e-03,4.176591522989999729e-03,1.000000000000000000e+00
9.549845190000000317e-01,-4.348548844759999810e+00,-5.918890574540000005e-01,-8.743717986389999197e+00,-7.248528301720000289e-03,2.049155719580000173e-02,5.918501876290000255e-03,1.000000000000000000e+00
9.600251829999999487e-01,-4.326481974380000040e+00,-6.143804368559999673e-01,-8.724912748160001286e+00,-2.384535968300000204e-03,1.374853961170000027e-02,4.180608317260000109e-03,1.000000000000000000e+00
9.649577980000000332e-01,-4.255736705550000387e+00,-6.827681097090000373e-01,-8.765709453450000410e+00,-8.898581378160000735e-03,2.085180208090000112e-02,-8.483021520079999614e-05,1.000000000000000000e+00
9.699729940000000328e-01,-4.278163933670000141e+00,-7.293939595450000812e-01,-8.793946536900000055e+00,-3.239004407079999672e-03,1.109243184329999909e-02,6.050135940310000758e-03,1.000000000000000000e+00
9.749959639999999927e-01,-4.293373777759999399e+00,-7.129878914059999406e-01,-8.823789886500000179e+00,-1.902167126540000100e-02,5.323375109579999570e-03,1.820340566340000049e-02,1.000000000000000000e+00
9.800050850000000535e-01,-4.306621381869999432e+00,-7.115303130089999373e-01,-8.806157199169998506e+00,-5.693140905350000877e-03,5.997525062409999989e-03,2.067797817290000298e-02,1.000000000000000000e+00
9.849584129999999771e-01,-4.268939593729999871e+00,-6.555286589980000578e-01,-8.797992012889999103e+00,-3.898812830449999850e-02,2.468283846970000320e-02,1.376764848830000043e-04,1.000000000000000000e+00
9.899494580000000044e-01,-4.364724611269999777e+00,-6.088419458199999523e-01,-8.772636037839999901e+00,-3.710613586010000266e-03,-8.000738918780000292e-03,1.726730912919999944e-02,1.000000000000000000e+00
9.949440689999999865e-01,-4.331626643789999953e+00,-6.160877522300000075e-01,-8.795705947780000145e+00,-1.714527606960000033e-02,6.082528270780000442e-04,4.616282880310000440e-03,1.000000000000000000e+00
9.999311730000000065e-01,-4.340513422339999927e+00,-6.232932996950000248e-01,-8.801752242210000077e+00,-9.992009960109999797e-03,4.063323605810000017e-03,-1.169864088299999967e-03,1.000000000000000000e+00
1.004970778999999981e+00,-4.381494836549999938e+00,-5.638336872489999596e-01,-8.807823671079999528e+00,-1.184461545200000097e-02,-8.486451581120000101e-03,8.320279419420000336e-03,1.000000000000000000e+00
1.009945109000000008e+00,-4.364942930199999793e+00,-5.385797843309999555e-01,-8.775809407180000576e+00,-1.923956722019999968e-02,6.496445741500000287e-03,9.624496102330000122e-03,1.000000000000000000e+00
1.014944719999999911e+00,-4.366240861050000532e+00,-5.014464969190000065e-01,-8.739533978709999928e+00,-2.421089634299999904e-02,-2.867922885339999842e-03,1.927009597419999942e-02,1.000000000000000000e+00
1.020084207000000021e+00,-4.353623371540000342e+00,-5.263530842370000018e-01,-8.747733067249999550e+00,-3.671025158839999816e-03,-1.877992972729999877e-02,2.133683068679999989e-03,1.000000000000000000e+00
1.024918298000000005e+00,-4.363167737219999509e+00,-5.407737872439999371e-01,-8.755442326460000757e+00,-3.821051213889999684e-04,7.559498306359999434e-03,1.323619624599999814e-03,1.000000000000000000e+00
1.029946658999999931e+00,-4.342032010209999626e+00,-5.669121448460000545e-01,-8.751699048269999892e+00,-1.364628132429999974e-02,1.578442286700000108e-03,-9.862927719950001157e-03,1.000000000000000000e+00
1.034944743999999917e+00,-4.440781430510000405e+00,-5.904826612550000409e-01,-8.740961965680000390e+00,-1.173999626189999902e-02,6.435979623350000615e-03,1.142968423660000073e-02,1.000000000000000000e+00
1.039923976999999944e+00,-4.341281484100000476e+00,-6.003181553640000168e-01,-8.756703140169999955e+00,-8.554337546229999131e-03,3.211935516449999917e-03,8.119618520140000836e-03,1.000000000000000000e+00
1.044989570999999895e+00,-4.348194624489999605e+00,-6.168549372099999539e-01,-8.743454367020000007e+00,-4.817914683369999874e-03,9.656254202129999770e-03,8.217377588149998857e-03,1.000000000000000000e+00
1.049994372000000009e+00,-4.336146751559999402e+00,-6.159362149300000588e-01,-8.772265450960000877e+00,1.184706343340000057e-05,4.828592762350000442e-03,5.188987590370000222e-03,1.000000000000000000e+00
1.054964943999999960e+00,-4.362877229840000481e+00,-6.325372211190000149e-01,-8.772876860860000292e+00,7.522108964619999769e-03,-2.121671568600000358e-04,7.721539586779999943e-03,1.000000000000000000e+00
1.059978343000000045e+00,-4.337450235380000407e+00,-5.682665551300000173e-01,-8.766317356210000966e+00,-9.804753586649998798e-03,1.503199525179999864e-02,-3.418154083189999556e-04,1.000000000000000000e+00
1.065012222000000008e+00,-4.394785695280000404e+00,-5.848491488800000582e-01,-8.766790234419998384e+00,1.938588451589999973e-03,7.371264044200000198e-03,1.032068580389999997e-02,1.000000000000000000e+00
1.070006411000000046e+00,-4.351218063969999328e+00,-6.148626674149999527e-01,-8.792098863199999670e+00,-2.274417784070000101e-04,1.412225700910000117e-02,7.028292864560000200e-03,1.000000000000000000e+00
1.075017853000000079e+00,-4.330065970340000625e+00,-6.030211672449999893e-01,-8.798153925459999414e+00,-1.626531034709999962e-02,-6.132639944550000340e-03,-6.961312144989999923e-03,1.000000000000000000e+00
1.079988621000000037e+00,-4.368255708010000404e+00,-5.760351798380000110e-01,-8.837935900750000684e+00,-1.261830329900000139e-03,2.201663795860000269e-03,2.346209017560000037e-03,1.000000000000000000e+00
1.085014986000000015e+00,-4.325651368770000005e+00,-5.770938585779999963e-01,-8.812418013130001171e+00,1.485378388320000159e-02,1.069419272239999913e-02,2.771789440890000053e-03,1.000000000000000000e+00
1.090101444999999947e+00,-4.301061409659999946e+00,-6.130195237659999963e-01,-8.830734006539998404e+00,1.051476504650000060e-02,2.674273680900000026e-03,2.537810476499999766e-03,1.000000000000000000e+00
1.094965592000000099e+00,-4.312391781969999727e+00,-6.103565151020000634e-01,-8.806303329640000399e+00,1.291870605200000008e-03,-5.575905553999999445e-03,-2.234179060909999900e-03,1.000000000000000000e+00
1.100013863999999897e+00,-4.300095194969999923e+00,-6.349765040300000551e-01,-8.769978216810001115e+00,-5.781435174869999717e-05,-9.133763611319999434e-03,-1.952589303259999812e-02,1.000000000000000000e+00
1.104948239999999915e+00,-4.352989457549999663e+00,-5.743265858209999353e-01,-8.770478567550000548e+00,9.620451368389999411e-03,-2.965936437249999842e-03,-8.742074482140000519e-03,1.000000000000000000e+00
1.109981764999999898e+00,-4.350093151590000318e+00,-6.029364481040000445e-01,-8.781907724059999865e+00,6.450424902139999597e-03,-3.374252235520000098e-03,-4.567021504039999943e-03,1.000000000000000000e+00
1.115135152999999990e+00,-4.328041478780000340e+00,-6.208424724769999736e-01,-8.793420467189999812e+00,1.671909913419999949e-02,2.868451643739999835e-03,-1.667778380220000245e-02,1.000000000000000000e+00
1.120020782000000104e+00,-4.330532418809999839e+00,-5.766066230499999890e-01,-8.763023575369999207e+00,1.582055911420000155e-02,-5.278140306470001028e-03,-2.223094366489999918e-02,1.000000000000000000e+00
1.124942011999999991e+00,-4.384641902400000291e+00,-5.812985071930000247e-01,-8.752461264819999087e+00,2.321127429599999931e-02,4.130209796129999736e-03,3.440177300939999908e-03,1.000000000000000000e+00
1.129959997999999910e+00,-4.266030136020000363e+00,-6.256318256449999726e-01,-8.771342490900000399e+00,9.016733616590000278e-03,-1.189378090200000036e-02,-8.574713021520000492e-03,1.000000000000000000e+00
1.135023557000000016e+00,-4.370442988919999827e+00,-6.014169834510000312e-01,-8.743747212489999754e+00,6.867097225039999614e-03,-1.382192224260000123e-02,6.043069995939999613e-03,1.000000000000000000e+00
1.140094600000000069e+00,-4.331445441999999701e+00,-6.169191615529999728e-01,-8.757314550069999370e+00,1.226889435199999927e-02,3.260592464359999762e-03,-1.034990604970000179e-02,1.000000000000000000e+00
1.145055740000000100e+00,-4.331909844650000174e+00,-5.956217411759999747e-01,-8.758315836070000415e+00,4.613603232430000351e-04,2.535666339100000038e-03,-1.169140357520000000e-02,1.000000000000000000e+00
1.150113600000000069e+00,-4.373400961939999831e+00,-6.167563722070000809e-01,-8.740475643470000833e+00,6.760196993130000113e-04,-1.442984212189999803e-04,-9.108649566770000636e-03,1.000000000000000000e+00
1.155006463000000094e+00,-4.345686733319999995e+00,-5.883231086000000332e-01,-8.745988853929999252e+00,2.489840611820000327e-02,-6.594924721869999812e-03,-1.127982418979999769e-02,1.000000000000000000e+00
1.160037065000000034e+00,-4.339934161150000413e+00,-6.026899625289999785e-01,-8.749946067130000671e+00,5.010348744689999308e-03,-1.288713142279999946e-02,-7.966483943159999651e-03,1.000000000000000000e+00
1.165004287999999999e+00,-4.344926270350000230e+00,-6.276778714549999805e-01,-8.762107629560000888e+00,-7.258557714520000141e-03,-8.630709722640000220e-03,-1.575092971319999938e-02,1.000000000000000000e+00
1.170078001000000034e+00,-4.338660780209999679e+00,-6.469383791759999447e-01,-8.783781116709999282e+00,1.289466582239999839e-02,9.952038526540000693e-03,-2.081661671400000108e-02,1.000000000000000000e+00
1.175022371999999926e+00,-4.342642251060000014e+00,-6.373769893010000631e-01,-8.769010833080001177e+00,2.206330373879999973e-02,1.043989509340000066e-02,-1.216232031579999977e-02,1.000000000000000000e+00
1.179982936000000038e+00,-4.322749509850000393e+00,-6.276653042340000210e-01,-8.745297364540000729e+00,1.879836618900000006e-02,2.284996211530000015e-02,-1.231345441189999994e-02,1.000000000000000000e+00
1.185033312999999922e+00,-4.379332690080000035e+00,-5.999673691650000418e-01,-8.716147842419999847e+00,9.215398691590000191e-03,2.358236815780000075e-03,3.837228985500000002e-03,1.000000000000000000e+00
1.190028104999999892e+00,-4.312400549790000426e+00,-6.011876316750000004e-01,-8.719716933080000842e+00,2.937408629800000205e-03,6.490236613899999334e-03,-1.415239647029999798e-02,1.000000000000000000e+00
1.195066323000000041e+00,-4.299733960450000225e+00,-6.383565749220000418e-01,-8.737319225269999379e+00,1.803273800759999960e-03,1.973462291059999846e-02,-1.818681135770000221e-02,1.000000000000000000e+00
1.200029876000000106e+00,-4.347285692949999891e+00,-6.169295368159999349e-01,-8.745135451980001307e+00,3.197100944820000477e-03,9.796157479289999831e-03,-1.001470070329999948e-02,1.000000000000000000e+00
1.204978845000000076e+00,-4.361629275609999468e+00,-6.074104517120000324e-01,-8.749631009830000750e+00,-5.916752852499999361e-03,3.012127242980000216e-02,-5.546517204490000177e-04,1.000000000000000000e+00
1.210012085000000015e+00,-4.329270436049999837e+00,-5.945333614169999725e-01,-8.754635686249999438e+00,-2.608587592840000066e-02,4.667059984060000465e-03,1.568434573710000141e-02,1.000000000000000000e+00
1.214993788999999991e+00,-4.312096598409999260e+00,-5.908931782840000091e-01,-8.759684201810001625e+00,1.929188147190000202e-02,1.872729323800000067e-02,6.722464226189999933e-03,1.000000000000000000e+00
1.219975432000000026e+00,-4.299578769880000095e+00,-5.405331103560000461e-01,-8.711267084639999325e+00,-8.311076089739998993e-03,2.112994901839999884e-02,-6.311839446430000250e-03,1.000000000000000000e+00
1.224970977999999988e+00,-4.312916682620000053e+00,-6.098142979839999978e-01,-8.743119435980000631e+00,1.868095016109999791e-03,2.132401801649999942e-02,-1.010911073540000059e-02,1.000000000000000000e+00
1.229999056000000035e+00,-4.333839935930000387e+00,-6.360994436450000400e-01,-8.758319927719998788e+00,-2.795852953570000451e-03,4.928704816850000732e-03,-5.309468135240000101e-03,1.000000000000000000e+00
1.234973316000000043e+00,-4.321608815380000301e+00,-6.363860055019999740e-01,-8.785015042419999531e+00,-7.388017605990000562e-03,1.179064065220000040e-02,1.145041780549999923e-03,1.000000000000000000e+00
1.240032317000000051e+00,-4.358942813000000527e+00,-6.300038301839999688e-01,-8.746088222660000966e+00,-4.696856252849999740e-03,1.252007670699999825e-02,1.271259132769999960e-02,1.000000000000000000e+00
1.245024660999999977e+00,-4.336658500480000455e+00,-6.494854333110000599e-01,-8.801760425519999487e+00,-3.618709510190000391e-03,1.467542536560000228e-02,8.408655412500000426e-03,1.000000000000000000e+00
1.249872824000000104e+00,-4.319685738369999584e+00,-6.267844297460000158e-01,-8.784424675309999486e+00,5.293975118550000789e-03,-8.733869763089998749e-04,2.371053444219999463e-03,1.000000000000000000e+00
1.254930982999999944e+00,-4.322620915039999900e+00,-6.158021402220000828e-01,-8.743387731529999485e+00,7.128375582400000351e-04,8.432541042569999604e-03,8.960267528890000430e-03,1.000000000000000000e+00
1.260083427999999950e+00,-4.273584496929999865e+00,-6.324043154549999768e-01,-8.731749316180000164e+00,1.631475519390000045e-03,2.450461685659999916e-02,-2.249022247269999875e-03,1.000000000000000000e+00
1.265015570000000089e+00,-4.242518327530000022e+00,-6.454935871960000293e-01,-8.716101080669998780e+00,-1.228160876779999834e-02,7.297695148740000227e-03,-9.255873970690000133e-03,1.000000000000000000e+00
1.270003758000000094e+00,-4.238720104300000457e+00,-6.894852891349999569e-01,-8.703409941400000349e+00,-8.900932967659999293e-03,2.519348636270000042e-03,-5.122524686159999306e-03,1.000000000000000000e+00
1.275023334999999980e+00,-4.191560878239999788e+00,-6.984008553880000081e-01,-8.760210856029999604e+00,-5.042733158920000187e-03,3.927273210139999916e-04,-1.115605887029999868e-02,1.000000000000000000e+00
1.280008695000000030e+00,-4.259290598639999814e+00,-6.472812743299999338e-01,-8.785275154660000752e+00,-3.816743614149999998e-03,-1.967138610779999713e-03,-9.723757393659999970e-03,1.000000000000000000e+00
1.284980341000000026e+00,-4.257227820889999848e+00,-6.154681590270000280e-01,-8.818990377260000457e+00,-1.970307901499999959e-02,7.162123452869999587e-03,-7.909537293020000095e-03,1.000000000000000000e+00
1.290060399999999996e+00,-4.294847357450000125e+00,-5.434036242909999759e-01,-8.751763345680000583e+00,-2.446664497260000407e-03,3.126994706690000049e-03,-3.307475242760000295e-03,1.000000000000000000e+00
1.295065189000000005e+00,-4.321683341920000032e+00,-6.785681007359999350e-01,-8.717470615459999905e+00,-7.105834316459999807e-03,-7.302413694560000446e-03,-4.387750755999999738e-03,1.000000000000000000e+00
1.299927950000000054e+00,-4.296051764800000505e+00,-7.238534957479999532e-01,-8.717821328590000363e+00,-4.777291323990000109e-03,-2.491773338989999777e-03,-6.708849221469999694e-03,1.000000000000000000e+00
1.304977421000000026e+00,-4.283021310580000574e+00,-6.843554519660000057e-01,-8.686125629119999303e+00,-1.429253164679999966e-02,-3.250859677789999947e-03,-1.164337247609999876e-02,1.000000000000000000e+00
1.309956319000000091e+00,-4.380245421009999696e+00,-6.167047881499999606e-01,-8.725596638769999913e+00,-2.470649033779999740e-02,1.034359261390000069e-02,5.430776625869999062e-03,1.000000000000000000e+00
1.314991770000000004e+00,-4.301573743090000512e+00,-5.167676924310000697e-01,-8.709378494419999228e+00,-1.847046986220000214e-02,4.900603555140000712e-03,-9.001488797369999652e-04,1.000000000000000000e+00
1.320000969999999940e+00,-4.313977882109999662e+00,-4.182239142329999826e-01,-8.728133463769999878e+00,-2.391130477190000006e-02,8.306570351120000362e-03,1.707723131400000222e-03,1.000000000000000000e+00
1.325011018999999957e+00,-4.354413937400000378e+00,-4.394582062460000160e-01,-8.732223363430000163e+00,-1.007380150260000010e-02,1.678745821120000009e-02,-5.138691514729999861e-03,1.000000000000000000e+00
1.330042155999999975e+00,-4.400707194280000678e+00,-5.288073089879999911e-01,-8.763891005850000582e+00,1.370324380700000018e-02,1.668089628220000009e-02,-7.461272180079999219e-03,1.000000000000000000e+00
1.335008981999999955e+00,-4.278711922940000356e+00,-7.037751688379999537e-01,-8.743555489310001150e+00,-1.651534577829999852e-03,9.382747113700001113e-03,-3.008109703659999495e-02,1.000000000000000000e+00
1.339981282999999967e+00,-4.380633835799999432e+00,-7.023716587149999580e-01,-8.718533860780000921e+00,1.658374816179999933e-02,2.604920603330000001e-02,-3.617571201180000049e-04,1.000000000000000000e+00
1.345018387000000093e+00,-4.359508337930000366e+00,-6.763925102629999575e-01,-8.766948639849999836e+00,-1.940814405679999743e-02,1.458662003279999862e-02,-1.421684771779999773e-02,1.000000000000000000e+00
1.350038974000000058e+00,-4.327611270669999399e+00,-6.204826992530000362e-01,-8.746109849969998962e+00,-1.416519936170000139e-02,2.609588764609999806e-02,-1.944101601840000221e-02,1.000000000000000000e+00
1.355010864000000037e+00,-4.453688550619999909e+00,-4.889137630820000191e-01,-8.708014804850000345e+00,1.078548561779999956e-02,2.885124273599999969e-02,-1.719700172540000044e-02,1.000000000000000000e+00
1.360081244999999939e+00,-4.364138628080000082e+00,-5.723716158289999800e-01,-8.691117446059999807e+00,7.486810907719999852e-03,2.016405761240000136e-02,-1.186399161820000069e-02,1.000000000000000000e+00
1.365042459999999958e+00,-4.345990100189999872e+00,-6.260451556859999434e-01,-8.704141762809999960e+00,8.271576836709999131e-03,2.976117841899999714e-02,-1.075082458559999989e-02,1.000000000000000000e+00
1.369913684999999992e+00,-4.319100047430000089e+00,-6.705045482029999837e-01,-8.752952847730000485e+00,1.456766854969999926e-03,9.680289775129998289e-03,-1.951704733070000128e-02,1.000000000000000000e+00
1.374921207999999950e+00,-4.327256465880000569e+00,-5.845302191240000500e-01,-8.836935199270000041e+00,-1.144270319489999917e-02,1.635324209929999925e-02,-5.845809821040000298e-03,1.000000000000000000e+00
1.379976827999999989e+00,-4.305770025740000229e+00,-4.793428747259999567e-01,-8.779116632030000034e+00,1.066263113170000040e-02,4.163452982900000404e-02,-5.221154540780000193e-03,1.000000000000000000e+00
1.384960766999999926e+00,-4.365836664169999715e+00,-3.658073156350000188e-01,-8.761302158399999485e+00,1.569617539639999934e-02,2.514441497619999966e-02,-2.852860465650000274e-02,1.000000000000000000e+00
1.389968268999999923e+00,-4.337664754909999587e+00,-4.757107653010000381e-01,-8.774197880330000032e+00,1.308649592100000029e-02,3.273371234539999841e-02,-1.465865690260000076e-02,1.000000000000000000e+00
1.394975437000000040e+00,-4.258650547169999356e+00,-4.950055771509999647e-01,-8.802818994660000840e+00,2.676635608080000020e-02,4.167133942249999501e-02,-3.882079198959999949e-02,1.000000000000000000e+00
1.400028800000000073e+00,-4.192934796940000375e+00,-6.011049218270000383e-01,-8.784974125890000707e+00,5.368412286040000897e-02,3.805866092440000209e-02,-4.059845954180000410e-02,1.000000000000000000e+00
1.405012841000000012e+00,-4.328586253180000121e+00,-6.389722226030000174e-01,-8.821120959550000862e+00,7.231311500070000675e-02,2.686532773079999825e-02,-4.556324705479999904e-02,1.000000000000000000e+00
1.410078834999999975e+00,-4.305680301630000706e+00,-7.978313167589999866e-01,-8.741374638139998154e+00,3.628304228190000480e-02,2.908029221000000414e-02,-3.900640457869999911e-02,1.000000000000000000e+00
1.415012855999999930e+00,-4.402998520089999701e+00,-7.534715121600000787e-01,-8.750151234310001414e+00,4.183135181669999508e-02,3.107103891670000284e-02,-4.347916319969999388e-02,1.000000000000000000e+00
1.420003773999999996e+00,-4.329048610000000075e+00,-7.346502726379999793e-01,-8.730703606519998772e+00,2.917170524600000078e-02,2.859866060320000181e-02,-3.179687261579999813e-02,1.000000000000000000e+00
1.425069386999999965e+00,-4.328372610430000655e+00,-5.457478127970000203e-01,-8.773771179349999727e+00,2.996086701750000011e-02,4.291667044160000360e-02,-4.213621094819999108e-02,1.000000000000000000e+00
1.430012494000000078e+00,-4.366484606680000269e+00,-4.700897470820000201e-01,-8.825750957440000377e+00,2.623874694110000030e-02,4.527883231640000145e-02,-3.066769056020000189e-02,1.000000000000000000e+00
1.435006199999999899e+00,-4.273514646559999797e+00,-4.325949328809999828e-01,-8.864870084899999725e+00,2.854536101219999969e-02,5.559090524910000053e-02,-3.400652110579999859e-02,1.000000000000000000e+00
1.440034071999999998e+00,-4.294301706259999740e+00,-4.070360191340000044e-01,-8.806019836529999978e+00,3.380610793830000210e-02,2.888025157149999925e-02,-3.683833405380000647e-02,1.000000000000000000e+00
1.445033028999999969e+00,-4.323229110059999769e+00,-3.925242037770000358e-01,-8.924792346420000300e+00,5.303121730690000396e-02,1.905093528329999952e-02,-3.595286607740000306e-02,1.000000000000000000e+00
1.450012799000000019e+00,-4.248072162269999730e+00,-3.992795232559999685e-01,-8.859439876549998871e+00,3.114560619000000113e-02,2.623377926649999789e-02,-4.711342602969999238e-02,1.000000000000000000e+00
1.455012680999999919e+00,-4.353188195000000427e+00,-4.876610596079999915e-01,-8.799058180819999464e+00,6.854685395959998762e-02,4.281534254549999863e-02,-4.800702258939999745e-02,1.000000000000000000e+00
1.460081187999999974e+00,-4.214594840080000182e+00,-6.381992654689999656e-01,-8.818724419800000547e+00,5.671701952819999115e-02,1.716523431239999967e-02,-4.886315017939999589e-02,1.000000000000000000e+00
1.464960229999999974e+00,-4.251444853569999793e+00,-7.199184213220000128e-01,-8.794314785689998359e+00,6.471448391680000023e-02,2.380318008359999862e-02,-5.108459666370000068e-02,1.000000000000000000e+00
1.469987796999999929e+00,-4.289406043180000516e+00,-8.572617031100000506e-01,-8.873399428320000837e+00,6.841037422420000180e-02,3.014723770320000204e-02,-5.226932093500000209e-02,1.000000000000000000e+00
1.475005568999999905e+00,-4.304423871830000081e+00,-9.066427699379999705e-01,-8.796250722179999926e+00,5.505833402279999844e-02,2.021490037440000151e-02,-3.268883377310000116e-02,1.000000000000000000e+00
1.479935377999999968e+00,-4.254127809049999875e+00,-9.739504655359999541e-01,-8.746371131249999209e+00,5.439459159969999708e-02,2.893167920409999913e-02,-4.715622588990000391e-02,1.000000000000000000e+00
1.484992368999999979e+00,-4.254280953780000374e+00,-9.445159889980000445e-01,-8.762238562469999437e+00,3.852942958469999374e-02,2.283873222769999822e-02,-3.815310448409999639e-02,1.000000000000000000e+00
1.490011962999999939e+00,-4.241272711389999728e+00,-8.388959522710000005e-01,-8.781501481339999415e+00,3.437197580930000107e-02,1.403804402799999768e-03,-2.519092895090000242e-02,1.000000000000000000e+00
1.495011652000000080e+00,-4.202004530840000029e+00,-7.898203711960000151e-01,-8.746056658469999689e+00,3.020142763850000231e-02,3.234699368479999892e-02,-3.239347413179999996e-02,1.000000000000000000e+00
1.500004405999999957e+00,-4.190404693939999703e+00,-8.357407761759999554e-01,-8.824784742749999467e+00,2.491690963509999787e-02,1.969368383290000246e-02,-3.990253433589999871e-02,1.000000000000000000e+00
1.504993859000000045e+00,-4.066524924030000321e+00,-8.269018553560000262e-01,-8.840023812939998393e+00,3.852118924259999994e-02,3.272159025069999727e-02,-3.304058313370000083e-02,1.000000000000000000e+00
1.510023383000000052e+00,-4.193877630740000306e+00,-6.915913945689999842e-01,-8.923353838049999709e+00,3.518504649399999823e-02,1.844514720139999939e-02,-2.309502288699999753e-02,1.000000000000000000e+00
1.515050384000000028e+00,-4.167380084440000410e+00,-6.769287360310000112e-01,-8.879259844779999966e+00,2.328298613430000025e-02,8.051084354520000180e-03,-2.769992314279999882e-02,1.000000000000000000e+00
1.520061463000000002e+00,-4.229761721810000097e+00,-7.217084465440000152e-01,-8.861277613369999528e+00,6.347637390719999915e-04,-1.399990171189999938e-02,-3.805294260380000237e-02,1.000000000000000000e+00
1.525063743000000027e+00,-4.284862262269999889e+00,-6.355591262240000150e-01,-8.812296432580000172e+00,1.957182213659999781e-02,-7.005239371210000149e-03,-3.234785422679999772e-02,1.000000000000000000e+00
1.530044901999999984e+00,-4.281329119700000518e+00,-6.033550388420000354e-01,-8.810721730610001856e+00,2.752889320249999813e-02,-5.533413216469999091e-02,-3.914873301980000692e-02,1.000000000000000000e+00
1.534975610000000046e+00,-4.256545683839999761e+00,-6.488685435209999852e-01,-8.816151938960000933e+00,3.238385543229999747e-02,-1.730967871840000116e-02,-2.054776810110000088e-02,1.000000000000000000e+00
1.540045552999999900e+00,-4.321496879439999717e+00,-6.001183219430000770e-01,-8.872328584219999925e+00,2.681454271079999896e-02,1.680267602209999794e-02,-3.560445457700000399e-02,1.000000000000000000e+00
1.545005315999999906e+00,-4.316069885959999297e+00,-7.191955869399998535e-01,-8.868075602950000302e+00,1.292223762719999988e-02,-2.116105332969999905e-02,-2.939601242539999909e-02,1.000000000000000000e+00
1.550007584999999910e+00,-4.282505177750000058e+00,-6.613771658300000578e-01,-8.902090100749999735e+00,2.832738682629999671e-02,-1.412347331639999919e-02,-1.608543656769999969e-02,1.000000000000000000e+00
1.554982432999999942e+00,-4.302691641210000029e+00,-6.785483000570000645e-01,-8.857865759099999181e+00,3.175640851259999703e-02,-9.076796472069999233e-03,-3.343050926919999971e-02,1.000000000000000000e+00
1.560002080000000069e+00,-4.401999864440000465e+00,-6.968686773850000238e-01,-8.783242187529999967e+00,3.073232993479999703e-02,-2.631399407980000021e-02,-9.342866949740000204e-03,1.000000000000000000e+00
1.565026931000000010e+00,-4.280225834639999505e+00,-6.707463941350000347e-01,-8.780423038460000384e+00,4.163609072570000069e-02,-1.362129859629999766e-02,-3.735829889769999579e-02,1.000000000000000000e+00
1.569984354000000026e+00,-4.332412825730000527e+00,-6.412706357380000277e-01,-8.809348104169998805e+00,5.980990082030000071e-02,-1.635767892000000029e-02,-3.734546899799999486e-02,1.000000000000000000e+00
1.575002801999999980e+00,-4.373351277580000307e+00,-6.005693171129999897e-01,-8.795387383350000476e+00,4.806179925800000557e-02,-2.234516851600000173e-02,-3.623661026359999843e-02,1.000000000000000000e+00
1.579990962999999971e+00,-4.402186619180000093e+00,-5.938278434970000186e-01,-8.847471790860000240e+00,4.515120759610000145e-02,-9.931288659569999233e-03,-2.837552316489999962e-02,1.000000000000000000e+00
1.584982614999999928e+00,-4.281174805930000105e+00,-5.797397334439999828e-01,-8.822233889230000514e+00,5.418132245540000641e-02,-1.531836390500000006e-02,-2.471961267290000500e-02,1.000000000000000000e+00
1.590001196000000006e+00,-4.264267218009999638e+00,-6.715638479970000851e-01,-8.854614648350001005e+00,4.970476776359999266e-02,-2.050403505560000061e-02,-3.597318008540000001e-02,1.000000000000000000e+00
1.594956623999999934e+00,-4.305840168369999610e+00,-6.760424547159999964e-01,-8.826829984839999810e+00,6.458095461130000658e-02,-1.559434272350000011e-02,-3.152025118470000442e-02,1.000000000000000000e+00
1.599969922000000100e+00,-4.314901134440000341e+00,-7.653385486290000816e-01,-8.827547193200000919e+00,5.474025011059999168e-02,-3.320743516090000208e-02,-1.952597685159999930e-02,1.000000000000000000e+00
1.604967814000000104e+00,-4.259052405969999455e+00,-7.998948251610000781e-01,-8.838931926049999888e+00,6.191955506799999565e-02,-3.322796523569999938e-02,-4.118274524809999865e-02,1.000000000000000000e+00
1.610031409000000080e+00,-4.351033062790000017e+00,-9.541730212679999656e-01,-8.804369731230000440e+00,5.613821744919999385e-02,-2.833662927149999816e-02,-2.326792478559999711e-02,1.000000000000000000e+00
1.615022981000000080e+00,-4.186735065509999743e+00,-9.333663070170000742e-01,-8.840305552489999386e+00,8.187769353389999505e-02,-2.482222765679999860e-02,-4.751326888799999731e-02,1.000000000000000000e+00
1.619985608999999993e+00,-4.302746001740000104e+00,-3.499436472770000028e-01,-8.950194498710001056e+00,9.041178971529999220e-02,-2.996238134800000008e-02,-6.286177039149999646e-02,1.000000000000000000e+00
1.624982959000000005e+00,-4.499411606399999819e+00,-1.985444772049999862e-01,-8.844860147050001231e+00,9.422887116669999286e-02,-2.585149742659999944e-02,-6.560818850989999507e-02,1.000000000000000000e+00
1.630023326000000106e+00,-4.344882431200000283e+00,-4.111798409409999633e-01,-8.763322850569998934e+00,1.221258640289999975e-01,-5.142049118880000214e-02,-8.593783527610000805e-02,1.000000000000000000e+00
1.635014085999999978e+00,-4.391728938049999975e+00,-5.935501590659999493e-01,-8.812937653089999657e+00,1.490057110789999861e-01,-5.873059481380001057e-02,-8.883930742739999664e-02,1.000000000000000000e+00
1.640076534999999947e+00,-4.293105189960000345e+00,-5.992648469189999494e-01,-8.877033985429999774e+00,1.652007848020000114e-01,-5.670563876630000527e-02,-8.482573926449998858e-02,1.000000000000000000e+00
1.645014712999999906e+00,-4.313973790460000401e+00,-7.227872547560000305e-01,-8.870371604929999876e+00,1.350458860400000072e-01,-4.211726412180000212e-02,-8.763702213759999582e-02,1.000000000000000000e+00
1.649961534000000007e+00,-4.351704093919999572e+00,-7.818877515659999888e-01,-8.842626104389998076e+00,1.509543955329999965e-01,-2.272893302140000307e-02,-8.995170891280000747e-02,1.000000000000000000e+00
1.655008170999999972e+00,-4.360842216880000066e+00,-8.084485723639999177e-01,-8.747235054600000836e+00,1.417353451249999952e-01,-2.964567951859999745e-02,-8.342856913810001163e-02,1.000000000000000000e+00
1.659983151999999906e+00,-4.312795102069999942e+00,-8.261161118059999753e-01,-8.730189227260000351e+00,1.454713791610000029e-01,-4.244493693109999133e-02,-1.051701009270000070e-01,1.000000000000000000e+00
1.664912670000000094e+00,-4.448088246400000223e+00,-8.256265747229999397e-01,-8.696378143069999567e+00,1.435841023920000070e-01,-5.014841631050000192e-02,-8.596103638410000636e-02,1.000000000000000000e+00
1.669988256999999976e+00,-4.413470814260000097e+00,-8.602952255870000009e-01,-8.706388080429999121e+00,1.442903578280000099e-01,-1.783106662329999800e-02,-7.188796252010000443e-02,1.000000000000000000e+00
1.674955632999999944e+00,-4.324611504329999967e+00,-9.046766574969999919e-01,-8.723407019770000659e+00,1.304335743189999897e-01,-3.041648119690000193e-02,-7.118269056080001045e-02,1.000000000000000000e+00
1.680072615999999908e+00,-4.254185092190000184e+00,-9.218165198029999452e-01,-8.757090093660000463e+00,1.085027381780000050e-01,-1.559881865979999976e-02,-7.849792391060000929e-02,1.000000000000000000e+00
1.685000821999999898e+00,-4.319138333619999770e+00,-8.635440713160000836e-01,-8.765363416489998727e+00,1.003011763100000037e-01,-2.203095890579999730e-02,-6.139225885269999211e-02,1.000000000000000000e+00
1.689978006000000033e+00,-4.302085492009999790e+00,-9.252834652609999155e-01,-8.760752123299999639e+00,1.185790821910000098e-01,-2.282975427809999860e-02,-6.324425339700000259e-02,1.000000000000000000e+00
1.695019837000000029e+00,-4.310298316819999975e+00,-9.188234024020000001e-01,-8.698945363210000892e+00,1.047281399369999894e-01,-1.758563891049999897e-02,-5.771801620719999720e-02,1.000000000000000000e+00
1.700048071000000105e+00,-4.308602618819999286e+00,-9.582571487759999895e-01,-8.725695422969998560e+00,9.945578128100000803e-02,-1.127095520500000052e-02,-6.012495979669999630e-02,1.000000000000000000e+00
1.705088179000000093e+00,-4.192437368809999398e+00,-1.157002336179999924e+00,-8.810002768680000429e+00,9.025281667710000066e-02,-1.604747027160000061e-02,-4.116867482659999911e-02,1.000000000000000000e+00
1.710028649999999928e+00,-3.909043621030000359e+00,-1.332856477350000013e+00,-9.073048140439999187e+00,1.229201778769999920e-01,-4.263564571740000725e-02,-9.318944066759999451e-03,1.000000000000000000e+00
1.714973494000000098e+00,-3.889526727400000272e+00,-1.319971422939999917e+00,-9.083563689229999127e+00,1.478442549709999831e-01,-7.565616816280000545e-02,2.791629359129999682e-02,1.000000000000000000e+00
1.720008492999999916e+00,-4.101987867080000072e+00,-1.076101949370000144e+00,-8.891897792560000013e+00,1.656352430580000090e-01,-1.374330371620000046e-01,6.658239662650000668e-02,1.000000000000000000e+00
1.725019231000000097e+00,-4.273170947689999721e+00,-7.972813547260000355e-01,-8.794077469799999491e+00,1.729690432550000101e-01,-1.606222540139999877e-01,7.418599724769998904e-02,1.000000000000000000e+00
1.729998946000000037e+00,-4.484861395259999384e+00,-5.600266596490000026e-01,-8.686568112190000690e+00,1.802218109369999877e-01,-2.071481049059999968e-01,7.412422448399999531e-02,1.000000000000000000e+00
1.734989391000000047e+00,-4.452392957849999888e+00,-5.214501511579999748e-01,-8.497792676270000456e+00,1.709088534120000169e-01,-1.996674388650000187e-01,4.770535230639999513e-02,1.000000000000000000e+00
1.739973366000000077e+00,-4.466968595690000043e+00,-6.905065950069999570e-01,-8.525689567969999771e+00,1.525452733040000008e-01,-1.625860035420000071e-01,1.627577468750000117e-02,1.000000000000000000e+00
1.745011140999999988e+00,-4.463055513899999660e+00,-8.850829722980000369e-01,-8.574251646569999608e+00,1.450228691099999800e-01,-9.796553850169999189e-02,2.202602662150000140e-02,1.000000000000000000e+00
1.750014068999999894e+00,-4.403327021389999985e+00,-9.509739329649999906e-01,-8.615282160619999630e+00,1.063908189540000021e-01,-7.391546666619999706e-02,1.381388586009999961e-02,1.000000000000000000e+00
1.754985403999999916e+00,-4.397760034910000115e+00,-9.882079773390000099e-01,-8.652325650850000827e+00,1.035850495099999991e-01,-5.917296186090000021e-02,8.503326214850000925e-03,1.000000000000000000e+00
1.760002357000000073e+00,-4.382070590609999705e+00,-9.531393673710000236e-01,-8.566840493529999989e+00,8.820535987619999851e-02,-6.675051897759999575e-02,1.879197917879999943e-02,1.000000000000000000e+00
1.765005769999999918e+00,-4.234582273840000077e+00,-9.838234786439999935e-01,-8.638481834419998506e+00,8.236429840330000696e-02,-5.988509207960000108e-02,5.000883247699999421e-04,1.000000000000000000e+00
1.769906369999999951e+00,-4.167442628279999894e+00,-9.709059102079999892e-01,-8.752524977700000264e+00,5.643302202219999120e-02,-5.464842170479999872e-02,3.914728295059999893e-04,1.000000000000000000e+00
1.774984989000000013e+00,-4.233532764780000512e+00,-9.503953293600000407e-01,-8.747112305010000810e+00,6.264781206849999451e-02,-6.919500976799999870e-02,-6.142449565230000304e-04,1.000000000000000000e+00
1.779946967000000102e+00,-4.397693691680000683e+00,-9.877248699969999324e-01,-8.711195188450000515e+00,5.164319276809999776e-02,-5.276209115980000364e-02,2.203982509670000117e-02,1.000000000000000000e+00
1.784921251000000098e+00,-4.340767981619999105e+00,-1.029676517479999998e+00,-8.627410405310000030e+00,4.856439679859999442e-02,-5.208725482230000536e-02,-4.691156093029999648e-03,1.000000000000000000e+00
1.789971863000000107e+00,-4.409027863380000412e+00,-1.112753590739999909e+00,-8.603159176620000181e+00,1.326559670270000164e-02,-4.760988801720000135e-02,7.009108550850000167e-03,1.000000000000000000e+00
1.794988183000000070e+00,-4.331855776369999411e+00,-1.109632828370000102e+00,-8.635560394009999641e+00,1.301869843159999922e-02,-4.258302599190000315e-02,3.132187994199999923e-03,1.000000000000000000e+00
1.799931546999999910e+00,-4.200752777209999955e+00,-1.068983057270000092e+00,-8.677847045600000087e+00,-1.423104549760000016e-03,-2.478759363290000337e-02,1.992219686509999824e-02,1.000000000000000000e+00
1.804919641999999991e+00,-4.287542587389999937e+00,-9.538473695100000427e-01,-8.754003818089998390e+00,-2.345242351290000027e-02,-3.531044349069999838e-02,2.141509950160000106e-02,1.000000000000000000e+00
1.810043123999999892e+00,-4.407247117439999862e+00,-8.471830844280000550e-01,-8.712948169600000625e+00,-3.153407946229999648e-02,-4.239118099209999990e-02,2.021618187430000019e-02,1.000000000000000000e+00
1.815002288000000075e+00,-4.430075327580000000e+00,-6.710623282159999814e-01,-8.570732824789999427e+00,-3.869834914800000109e-02,-4.177502542730000129e-02,2.498827688399999844e-02,1.000000000000000000e+00
1.819972069999999942e+00,-4.223986645540000140e+00,-7.025875664880000260e-01,-8.555025552569999192e+00,-3.055655583740000264e-02,-5.654282122849999676e-02,2.938340976829999923e-02,1.000000000000000000e+00
1.825040696000000073e+00,-4.003909185640000423e+00,-8.632688345710000100e-01,-8.760067063650000208e+00,-2.478333935140000083e-02,-4.701089859009999899e-02,2.243635430929999744e-02,1.000000000000000000e+00
1.830020224000000084e+00,-4.005051633669999944e+00,-9.712392338160000804e-01,-8.871091151369999039e+00,-2.941936254499999751e-02,-3.445811942219999952e-02,1.013826020059999979e-02,1.000000000000000000e+00
1.835025613000000000e+00,-4.174018791800000017e+00,-1.068048845160000093e+00,-8.849317710980001195e+00,-4.158996045590000051e-02,-6.376884877680000230e-02,7.599155418569999640e-03,1.000000000000000000e+00
1.839983892000000010e+00,-4.375027686360000168e+00,-1.066452808139999986e+00,-8.725743353760000431e+00,-5.193730816250000104e-02,-5.476203933360000026e-02,3.270005062220000119e-02,1.000000000000000000e+00
1.845014716999999971e+00,-4.467761499639999911e+00,-1.021102677330000041e+00,-8.624467337589999616e+00,-5.954502522950000376e-02,-8.398849517110001939e-02,3.913637995719999874e-02,1.000000000000000000e+00
1.849914735999999893e+00,-4.299048900789999905e+00,-8.709795550790000451e-01,-8.678300050060000714e+00,-5.492004007100000085e-02,-5.121138319369999969e-02,2.656073123219999943e-02,1.000000000000000000e+00
1.854984615000000003e+00,-4.363313575430000313e+00,-8.176167982029999282e-01,-8.702183614480000884e+00,-5.723474174739999476e-02,-4.793538898230000067e-02,4.044901952149999869e-02,1.000000000000000000e+00
1.860017151000000091e+00,-4.241495414230000094e+00,-1.054647000339999918e+00,-8.704211320910001604e+00,-6.538185477260000100e-02,-4.616109654310000115e-02,3.663611039519999724e-02,1.000000000000000000e+00
1.865015743999999920e+00,-4.068785854700000648e+00,-1.252972647160000008e+00,-8.716239027839998599e+00,-8.145014941690000010e-02,-4.596195742490000180e-02,5.476698651909999577e-02,1.000000000000000000e+00
1.869973863000000014e+00,-4.067189817680000097e+00,-1.295222035479999922e+00,-8.787522641329999828e+00,-9.950906038280001031e-02,-7.565106451510000829e-02,7.229343056680000157e-02,1.000000000000000000e+00
1.874943164999999912e+00,-4.047366926830000544e+00,-1.184802562579999829e+00,-8.809842025160000034e+00,-1.376028954980000052e-01,-9.032134711740000266e-02,8.063258230689999972e-02,1.000000000000000000e+00
1.879900863000000033e+00,-4.261692399080000193e+00,-1.155242048510000119e+00,-8.767780414500000674e+00,-1.576808094980000075e-01,-1.175143793229999900e-01,1.059053987260000079e-01,1.000000000000000000e+00
1.884949642000000036e+00,-4.436094734000000095e+00,-1.083808505159999935e+00,-8.710783100519998712e+00,-1.710534244779999824e-01,-9.139348566530000606e-02,1.115343868730000049e-01,1.000000000000000000e+00
1.890022319000000062e+00,-4.459606834750000637e+00,-1.025432888560000144e+00,-8.693756562389999942e+00,-1.931731998919999915e-01,-8.491078764199999629e-02,1.370068490509999959e-01,1.000000000000000000e+00
1.894991904999999921e+00,-4.344030782809999991e+00,-9.183643335230000648e-01,-8.799228276689998296e+00,-2.115669548510000220e-01,-8.244020491839999798e-02,1.402842700479999816e-01,1.000000000000000000e+00
1.900011440999999968e+00,-3.942902928269999663e+00,-1.019434597989999913e+00,-9.037187137980000173e+00,-2.007572799920000206e-01,-6.314393877979999903e-02,1.489260345700000043e-01,1.000000000000000000e+00
1.904989457000000108e+00,-3.595091945650000120e+00,-1.277218322889999813e+00,-9.114590111140000062e+00,-1.741552054879999811e-01,-1.023604199290000100e-01,1.769810914990000150e-01,1.000000000000000000e+00
1.909982948999999985e+00,-3.704582247930000349e+00,-1.267647507600000001e+00,-8.877711446299999309e+00,-1.672998368739999908e-01,-1.376856863500000028e-01,2.064953893420000131e-01,1.000000000000000000e+00
1.915019610000000094e+00,-4.078519897729999677e+00,-1.064117131740000000e+00,-8.886834663949999324e+00,-1.556459814310000023e-01,-1.927364617589999995e-01,2.271823883060000160e-01,1.000000000000000000e+00
1.919997841999999899e+00,-4.603268286709999657e+00,-6.273175137100001075e-01,-8.809425845580001635e+00,-1.546342074869999916e-01,-2.487807571890000014e-01,2.338002324100000029e-01,1.000000000000000000e+00
1.925000859999999925e+00,-4.730306520650000124e+00,-5.114018180160000426e-01,-8.649953661019999629e+00,-1.476436555389999961e-01,-2.533341050149999774e-01,2.557956278319999943e-01,1.000000000000000000e+00
1.929984445999999965e+00,-4.767624151659999754e+00,-5.830141885369999333e-01,-8.471649934749999389e+00,-1.324801594020000028e-01,-2.211320847269999945e-01,2.126861214640000108e-01,1.000000000000000000e+00
1.934990890999999991e+00,-4.476365661850000066e+00,-6.103549441990000490e-01,-8.319787640680001317e+00,-1.276614367960000052e-01,-1.589116454120000077e-01,2.057326585049999990e-01,1.000000000000000000e+00
1.940021242000000035e+00,-4.118293689709999761e+00,-8.781596758409999648e-01,-8.588780522660000472e+00,-1.269682794810000070e-01,-1.411131173369999936e-01,2.265421748160000026e-01,1.000000000000000000e+00
1.945018428000000021e+00,-4.013540645079999969e+00,-1.247064446029999774e+00,-8.701433672889999471e+00,-1.593248695140000171e-01,-1.531817317009999957e-01,2.494165003300000405e-01,1.000000000000000000e+00
1.950029527999999956e+00,-4.282265523769999582e+00,-1.509026260329999980e+00,-8.837425028620000234e+00,-1.902319043870000226e-01,-1.660112142559999893e-01,2.820391058919999860e-01,1.000000000000000000e+00
1.954997064000000062e+00,-4.549111456850000401e+00,-1.265784490199999945e+00,-8.892486406099999741e+00,-2.308239787819999778e-01,-2.056824713949999828e-01,2.984980344770000182e-01,1.000000000000000000e+00
1.960012193999999930e+00,-4.608197559809999788e+00,-7.608754317409999191e-01,-8.858024164530000633e+00,-2.519935369490000077e-01,-2.329321354630000118e-01,3.048873543739999969e-01,1.000000000000000000e+00
1.965029437999999962e+00,-4.700984564579999692e+00,-6.100211456680000310e-01,-8.800292691050000116e+00,-2.456587105990000186e-01,-2.143034785990000080e-01,2.896357178689999978e-01,1.000000000000000000e+00
1.970013961999999896e+00,-4.548546224180000763e+00,-7.275798958600001587e-01,-8.717762876400000138e+00,-2.240837663410000236e-01,-1.881791800259999814e-01,2.700771987439999910e-01,1.000000000000000000e+00
1.975028224000000110e+00,-4.250964084319999614e+00,-9.510410799179999097e-01,-8.969562047000000149e+00,-1.919670403000000025e-01,-1.904772818090000042e-01,2.741098105909999805e-01,1.000000000000000000e+00
1.980020322999999971e+00,-4.055248912259999727e+00,-8.403912323299999043e-01,-9.157544871239998940e+00,-1.821319460870000073e-01,-2.030460238459999844e-01,2.809234857559999576e-01,1.000000000000000000e+00
1.985002275000000038e+00,-4.500811828580000729e+00,-6.911565102830000695e-01,-9.276916516080000008e+00,-2.012079507110000054e-01,-2.600135803220000041e-01,2.892648875709999956e-01,1.000000000000000000e+00
1.990012306999999980e+00,-4.625640569780000710e+00,-6.071557097659999735e-01,-9.125736359050000246e+00,-2.216315418479999910e-01,-2.988559901710000077e-01,2.732210755350000242e-01,1.000000000000000000e+00
1.995001816000000039e+00,-4.793205459900000243e+00,-3.994373076340000384e-01,-8.981963847930000355e+00,-2.252610325809999980e-01,-3.197849690910000153e-01,2.432712763549999824e-01,1.000000000000000000e+00
2.000006575000000009e+00,-4.672942711440000174e+00,-4.598840679530000197e-01,-8.749108447260001142e+00,-1.735212355849999888e-01,-3.315650820730000059e-01,2.390281260009999853e-01,1.000000000000000000e+00
2.004975498999999939e+00,-4.826744741409999762e+00,-3.736925159260000018e-01,-8.648406431579999776e+00,-1.382896602149999987e-01,-3.169945776460000308e-01,1.893821209670000227e-01,1.000000000000000000e+00
2.010120514000000025e+00,-4.729187453490000692e+00,-4.785195756440000503e-01,-8.733713309729999708e+00,-1.177873834970000061e-01,-3.205975592140000163e-01,1.762053221460000152e-01,1.000000000000000000e+00
2.014961787999999920e+00,-4.621700015460000088e+00,-5.001170384140000147e-01,-8.849910416180000183e+00,-9.821581840519999496e-02,-3.074176907539999948e-01,1.608521044250000032e-01,1.000000000000000000e+00
2.019998134000000167e+00,-4.755332825360000015e+00,-6.739781699969998874e-02,-8.930437658829999847e+00,-1.067495644089999918e-01,-3.257775604720000162e-01,1.488161683080000131e-01,1.000000000000000000e+00
2.024966258000000074e+00,-4.619330363719999610e+00,3.362059626640000187e-02,-9.161599699589999091e+00,-1.080947443840000050e-01,-3.487011790280000190e-01,1.332864910359999877e-01,1.000000000000000000e+00
2.029953073999999802e+00,-4.445632377679999969e+00,3.090353302709999972e-02,-9.127382372689998746e+00,-8.091773092750000063e-02,-3.714758455749999633e-01,1.195333451029999966e-01,1.000000000000000000e+00
2.035028055999999808e+00,-4.426753781940000465e+00,-9.023526532629999597e-02,-8.975693681619999253e+00,-2.696334943179999957e-02,-4.087762236599999932e-01,8.745757490399999612e-02,1.000000000000000000e+00
2.039946888999999874e+00,-4.352040778530000154e+00,-2.033375201669999910e-01,-9.232305220929999834e+00,2.489328011870000149e-02,-4.112106859679999782e-01,5.430785939100000320e-02,1.000000000000000000e+00
2.044939144000000208e+00,-4.063931692669999762e+00,-6.420805638819999661e-01,-9.333125310030000676e+00,6.756152212619999375e-02,-4.680937826630000020e-01,6.526289880280000677e-02,1.000000000000000000e+00
2.049933996000000036e+00,-4.437217600550000363e+00,-6.209078658629999525e-01,-9.392882151860000306e+00,7.830543816089999276e-02,-5.346732139590000266e-01,5.766154825690000124e-02,1.000000000000000000e+00
2.054979122999999852e+00,-4.509725202880000339e+00,-5.643296175399998837e-01,-9.327957552010001763e+00,6.762013584379999998e-02,-5.506021976470000245e-01,7.123329490419999521e-02,1.000000000000000000e+00
2.059991753999999897e+00,-4.722506076030000166e+00,-3.392341468119999814e-01,-9.114152304239999225e+00,5.937601253389999945e-02,-6.162208914760000100e-01,7.748809456830001163e-02,1.000000000000000000e+00
2.064988327000000012e+00,-4.732525658010000136e+00,-4.139601923740000022e-01,-8.978193097220000141e+00,7.611091434960000346e-02,-6.414077877999999622e-01,5.739861726759999672e-02,1.000000000000000000e+00
2.070009691000000096e+00,-4.748557632139999818e+00,-3.567698765680000217e-01,-9.079389033900000072e+00,8.895371854309999660e-02,-6.535489559170000184e-01,7.635828852649999277e-02,1.000000000000000000e+00
2.074978470000000019e+00,-4.565566917089999954e+00,-3.859101924650000237e-01,-9.233172066899999919e+00,9.788943082090000025e-02,-6.760241985320000202e-01,6.632739305500000293e-02,1.000000000000000000e+00
2.080002599999999813e+00,-4.792134323530000017e+00,-3.755619995929999622e-01,-9.210188666189999651e+00,1.074665039780000053e-01,-7.367987036709999771e-01,8.201982080939999864e-02,0.000000000000000000e+00
2.085014410999999956e+00,-4.907841016119999900e+00,-2.287378823510000103e-01,-9.073346246599999887e+00,8.670469373460000517e-02,-7.927630543709999200e-01,8.233086019749999429e-02,0.000000000000000000e+00
2.090000863999999847e+00,-5.024067348660000043e+00,-8.788090248619999378e-02,-8.934385519680001053e+00,8.163227140900000678e-02,-8.483698368070000662e-01,7.293558865789999401e-02,0.000000000000000000e+00
2.094987417000000018e+00,-5.111100319950000248e+00,1.919398182429999863e-02,-8.830034333839998695e+00,6.962542235849999983e-02,-8.538504838940000896e-01,6.388917565349999661e-02,0.000000000000000000e+00
2.100041682000000076e+00,-5.233131539380000419e+00,1.304592213630000053e-01,-8.646315012260000543e+00,6.903617829079999879e-02,-8.942126631739999443e-01,8.259848505260000695e-02,0.000000000000000000e+00
2.105032030999999915e+00,-5.054748902650000097e+00,1.846731151749999855e-01,-8.689494813299999620e+00,1.143739447000000076e-01,-9.141283631319999659e-01,2.836793288590000114e-02,0.000000000000000000e+00
2.109982979999999841e+00,-5.134565366690000410e+00,1.873262782990000042e-01,-8.810142469419998790e+00,1.385297924279999815e-01,-9.411317706110000625e-01,-3.500997554510000033e-03,0.000000000000000000e+00
2.114973934000000000e+00,-5.206839160259999488e+00,2.666452228760000098e-01,-8.864786498269999981e+00,1.801138222219999807e-01,-9.807302355769998981e-01,-1.243745628740000088e-02,0.000000000000000000e+00
2.119980168000000109e+00,-5.231227751590000530e+00,3.151816555730000413e-01,-8.780928649889998994e+00,2.070361971859999983e-01,-1.001641154289999891e+00,-4.191315919159999820e-02,0.000000000000000000e+00
2.125024922999999788e+00,-5.286790648859999386e+00,1.735821776450000020e-01,-8.801563441639999041e+00,2.510496973990000158e-01,-1.039046645160000004e+00,-6.060302630069999696e-02,0.000000000000000000e+00
2.129968904000000052e+00,-5.211457467709999847e+00,1.829777824989999857e-01,-8.919686547719999581e+00,2.873834967610000013e-01,-1.068427085880000016e+00,-7.682982832189999556e-02,0.000000000000000000e+00
2.135008593999999871e+00,-5.258434322940000349e+00,2.604620407290000328e-01,-9.058347999430001352e+00,3.076994419099999822e-01,-1.129145860670000001e+00,-9.441704303030000467e-02,0.000000000000000000e+00
2.139975474999999960e+00,-5.181614118109999723e+00,9.348127064330000180e-02,-9.097479401860001147e+00,3.426655828949999871e-01,-1.168487429620000073e+00,-1.340694278479999946e-01,0.000000000000000000e+00
2.144972761000000006e+00,-5.207569228099999670e+00,-2.046161800669999906e-02,-9.062535514249999480e+00,3.588300347330000140e-01,-1.216501116749999944e+00,-1.518105715510000009e-01,0.000000000000000000e+00
2.149893050000000194e+00,-5.191336470709999595e+00,-1.679847594960000023e-01,-9.056206895749999930e+00,3.940396308899999922e-01,-1.252145290370000108e+00,-1.654360890390000061e-01,0.000000000000000000e+00
2.154920804000000079e+00,-5.068869197940000682e+00,-5.481281685950000204e-01,-9.233015999550000075e+00,4.202998578549999587e-01,-1.317328214650000051e+00,-1.887916922569999878e-01,0.000000000000000000e+00
2.159834043000000037e+00,-5.104875746350000298e+00,-5.749056643509999898e-01,-9.429283252539999438e+00,4.365370273590000183e-01,-1.400285124779999890e+00,-1.788262724879999821e-01,0.000000000000000000e+00
2.164826496999999961e+00,-5.135211263380000446e+00,-6.212363671649999697e-01,-9.589135376319999793e+00,4.439316093919999928e-01,-1.470962047579999821e+00,-1.885622888800000119e-01,0.000000000000000000e+00
2.169961833999999978e+00,-5.121347573199999559e+00,-8.828909421470000352e-01,-9.712131056869999668e+00,4.394479393959999647e-01,-1.561990022660000088e+00,-1.900095790620000002e-01,0.000000000000000000e+00
2.175020599000000221e+00,-5.014520352639999956e+00,-1.090303054810000116e+00,-9.859147079960001392e+00,4.483255445959999919e-01,-1.662436842920000046e+00,-1.928265094759999965e-01,0.000000000000000000e+00
2.180019135999999857e+00,-4.969481771999999964e+00,-9.703134972729999808e-01,-9.989349330880001432e+00,4.525024890899999597e-01,-1.758943319320000143e+00,-1.877455115320000034e-01,0.000000000000000000e+00
2.185004274999999829e+00,-4.932772628280000404e+00,-1.048977941730000030e+00,-1.013058969320000102e+01,4.328463673590000060e-01,-1.876033782959999785e+00,-1.812843978400000278e-01,0.000000000000000000e+00
2.189968522000000029e+00,-4.883433427830000895e+00,-1.137191866429999809e+00,-1.013927568849999972e+01,4.258519411089999873e-01,-1.994302392009999814e+00,-1.809278726580000052e-01,0.000000000000000000e+00
2.194949174000000003e+00,-4.971436997719999695e+00,-1.151330428029999853e+00,-1.014706853429999889e+01,4.160534739489999967e-01,-2.122831344600000225e+00,-1.620604246849999819e-01,0.000000000000000000e+00
2.199960939999999976e+00,-5.014053904169999853e+00,-1.222732114940000114e+00,-1.018473863200000018e+01,4.285984039310000160e-01,-2.246320724489999865e+00,-1.606843471530000067e-01,0.000000000000000000e+00
2.204987174000000216e+00,-4.868303663239999857e+00,-1.363301446100000147e+00,-1.028696683429999936e+01,4.247865974899999730e-01,-2.388348579409999672e+00,-1.568635702129999865e-01,0.000000000000000000e+00
2.209926963000000022e+00,-4.911255208480000078e+00,-8.788673126540000879e-01,-1.040822823839999955e+01,4.140762686729999587e-01,-2.549412965770000206e+00,-1.540686935189999884e-01,0.000000000000000000e+00
2.214974687000000220e+00,-5.019199450369999482e+00,-8.450077131500000061e-01,-1.026479591899999910e+01,4.063318371769999438e-01,-2.709619760509999864e+00,-1.637453883889999906e-01,0.000000000000000000e+00
2.220017670999999915e+00,-4.965152802880000493e+00,-9.585821429469999488e-01,-1.032079428509999985e+01,4.191672205919999561e-01,-2.849326848980000104e+00,-1.845133304600000135e-01,0.000000000000000000e+00
2.225013407000000054e+00,-4.883646193799999757e+00,-7.898718091220000570e-01,-1.029330422070000139e+01,4.397630095480000167e-01,-2.999845266339999927e+00,-1.818574219940000125e-01,0.000000000000000000e+00
2.229946379999999895e+00,-4.757240120290000540e+00,-6.657985624690000437e-01,-1.034160677150000041e+01,5.281900763510000152e-01,-3.137493133540000478e+00,-1.840389966959999901e-01,0.000000000000000000e+00
2.235002000000000155e+00,-4.789479132850000376e+00,-5.018319891049999315e-01,-1.023249056320000072e+01,5.638478398320000418e-01,-3.291351079940000091e+00,-1.753275990489999991e-01,0.000000000000000000e+00
2.239981230999999795e+00,-4.642780797410000382e+00,-6.465113128710000545e-01,-1.041570310440000036e+01,6.137055754660000195e-01,-3.463231801990000136e+00,-1.859258264299999963e-01,0.000000000000000000e+00
2.245007984999999984e+00,-4.388945152549999840e+00,-6.675736093169999386e-01,-1.041751161510000045e+01,6.986932158470000598e-01,-3.616387844090000581e+00,-2.049339711670000175e-01,0.000000000000000000e+00
2.249952200000000069e+00,-4.103910067310000187e+00,-4.814419658970000016e-01,-1.048485438199999997e+01,7.766112089159999954e-01,-3.775504350659999897e+00,-1.919755339620000112e-01,0.000000000000000000e+00
2.254969557999999985e+00,-3.922566534950000072e+00,-5.177857103670000516e-01,-1.064244031439999993e+01,8.477447628969999593e-01,-3.976101160049999805e+00,-1.968673020599999990e-01,0.000000000000000000e+00
2.259958103999999857e+00,-3.887767608769999939e+00,-2.068057442669999912e-01,-1.069745083850000000e+01,9.302726984020001089e-01,-4.168601989749999959e+00,-1.885558068750000094e-01,0.000000000000000000e+00
2.264945203999999990e+00,-3.635447044649999793e+00,-3.175955483139999980e-01,-1.105167110359999860e+01,9.950615167620000534e-01,-4.430213451390000223e+00,-2.046870738269999934e-01,0.000000000000000000e+00
2.270001890000000078e+00,-3.221652600759999707e+00,-2.552583346060000036e-01,-1.109770337150000152e+01,1.080856919289999940e+00,-4.681113719939999918e+00,-2.108717560770000110e-01,0.000000000000000000e+00
2.274986360000000207e+00,-2.887340858909999586e+00,4.818642464299999761e-01,-1.114103865539999916e+01,1.184436202049999887e+00,-4.939696311949999696e+00,-2.150165885689999945e-01,0.000000000000000000e+00
2.280025398999999897e+00,-3.004376754279999950e+00,1.422691208179999833e+00,-1.190605389029999905e+01,1.298821330070000224e+00,-5.269298076630000160e+00,-2.397491633889999862e-01,0.000000000000000000e+00
2.285030123999999940e+00,-3.843028595590000318e+00,2.711527488149999776e+00,-1.259545186650000126e+01,1.401576519010000021e+00,-5.624291419980000484e+00,-2.584103047849999890e-01,0.000000000000000000e+00
2.289945364999999899e+00,-2.134828985570000004e+00,2.013098356520000021e+00,-1.322552437799999936e+01,1.545611143109999919e+00,-6.043337345119999426e+00,-3.520930409430000352e-01,0.000000000000000000e+00
2.294948470000000018e+00,-1.131658636090000059e+00,1.027311395779999970e+00,-1.260269526170000098e+01,1.811792731290000180e+00,-6.482778072359999477e+00,-3.815464973449999575e-01,0.000000000000000000e+00
2.299991266999999784e+00,-3.386806338079999534e+00,7.646626951939999861e-01,-1.430280991109999889e+01,2.108366966250000196e+00,-7.041264533999999742e+00,-3.502376973629999779e-01,0.000000000000000000e+00
2.304983823000000154e+00,-8.359723929750000337e+00,1.365240159079999849e+00,-1.495013517069999942e+01,2.354174137120000232e+00,-7.800005912779999662e+00,-3.912066519259999597e-01,0.000000000000000000e+00
2.310015409000000020e+00,-1.596840620480000084e+01,-7.744611817620000727e-01,-1.805593144130000027e+01,2.535866022110000007e+00,-8.705957412720000121e+00,-5.114563703540000450e-01,0.000000000000000000e+00
2.315044168000000013e+00,-2.194709015380000139e+01,-3.619127778010000185e+00,-1.725177778970000020e+01,2.706205129620000260e+00,-9.031736373899999393e+00,-7.090281248090000155e-01,0.000000000000000000e+00
2.320009564999999885e+00,-2.699385214940000211e+01,-4.922238959309999551e+00,-1.514315482009999947e+01,2.865005731579999715e+00,-9.051218986509999453e+00,-8.929721117020000820e-01,0.000000000000000000e+00
2.324969848999999922e+00,-2.886682628810000040e+01,-5.863283545869999891e+00,-1.274043784510000066e+01,2.862878799440000233e+00,-8.748921394349999048e+00,-8.809459805490000850e-01,0.000000000000000000e+00
2.330034588999999823e+00,-3.140638217560000101e+01,-7.380340552439999868e+00,-1.257374038539999894e+01,2.759770631790000373e+00,-8.108419418330001349e+00,-5.250084400179999555e-01,0.000000000000000000e+00
2.335039415999999868e+00,-3.157049487949999644e+01,-1.135159980660000123e+01,-9.714793554079999893e+00,2.558525800700000019e+00,-7.004939079279999703e+00,1.133590638639999926e-01,0.000000000000000000e+00
2.340066431999999974e+00,-3.140061177559999805e+01,-1.288169808109999970e+01,-1.247328562250000061e+01,1.962857604029999870e+00,-6.110776424410000018e+00,6.903061270710000308e-01,0.000000000000000000e+00
2.345049144999999946e+00,-3.334300373389999805e+01,-1.375962540949999990e+01,-1.388496794539999968e+01,1.091703653339999969e+00,-5.448132991790000546e+00,1.036044836040000083e+00,0.000000000000000000e+00
2.350038737999999849e+00,-3.929398835960000014e+01,-1.605344712549999997e+01,-1.848020899299999797e+01,1.057200413200000064e-02,-4.886375427249999959e+00,1.203605771060000107e+00,0.000000000000000000e+00
2.355013190999999839e+00,-3.483656003790000000e+01,-1.326250941599999855e+01,-1.584010949530000012e+01,-8.635960817340000428e-01,-4.011477947240000397e+00,1.247498154639999912e+00,0.000000000000000000e+00
2.360047781000000011e+00,-2.367062075010000299e+01,-7.245610010439999193e+00,-1.513674962920000056e+01,-1.382320046420000281e+00,-3.010893583299999676e+00,1.595118522639999981e+00,0.000000000000000000e+00
2.365011400999999847e+00,-1.846534927749999966e+01,-1.120973210620000104e+00,-1.302980189940000066e+01,-1.446386814120000031e+00,-2.298052072529999990e+00,2.192112207410000124e+00,0.000000000000000000e+00
2.370020070999999895e+00,-1.720401767510000113e+01,3.275551071949999837e+00,-1.385423495349999889e+01,-1.209938287729999784e+00,-1.747931718829999870e+00,2.950837135309999582e+00,0.000000000000000000e+00
2.375007602999999801e+00,-1.093597668599999828e+01,4.895604050360000237e+00,-1.235966158140000104e+01,-7.084320783619999506e-01,-1.429581403729999867e+00,3.899068117139999678e+00,0.000000000000000000e+00
2.380003095000000179e+00,-7.434958277819999850e+00,1.095310142379999796e+00,-8.373076163269999483e+00,1.290736198430000037e-01,-1.307754039760000042e+00,4.611998558039999807e+00,0.000000000000000000e+00
2.385014748000000129e+00,-2.429743630559999801e+01,-5.275215800270000033e-01,-9.167490511200000469e+00,5.602294206619999883e-01,-2.656378507609999939e+00,4.732369899750000108e+00,0.000000000000000000e+00
2.390008912999999957e+00,-3.315038039040000228e+01,-1.570376216570000150e+00,-1.530844592010000049e+01,6.563796401020000060e-01,-2.911212921140000187e+00,4.633318424219999621e+00,0.000000000000000000e+00
2.395015160999999893e+00,-2.604045719979999873e+01,-1.902346363729999990e+00,-1.636321450099999808e+01,5.394293069839999344e-01,-2.265104532240000079e+00,4.693908214569999515e+00,0.000000000000000000e+00
2.400073150999999960e+00,-1.846276335270000146e+01,-3.999513581030000431e+00,-1.175546468489999974e+01,4.036730825900000097e-01,-5.843784809109999756e-01,4.713351249690000522e+00,0.000000000000000000e+00
2.404969968000000069e+00,-1.590969565720000034e+01,-3.781025436150000196e+00,-1.025079661980000090e+01,-3.790485113859999589e-02,1.047156691549999907e+00,5.198213577269999774e+00,0.000000000000000000e+00
2.409997426999999970e+00,-1.254209086319999855e+01,-5.970533375750000538e+00,-8.188309962989999136e+00,-3.449956178670000040e-01,2.479539871220000080e+00,5.490346908570000295e+00,0.000000000000000000e+00
2.415003074999999999e+00,-7.158316342390000031e+00,-8.640427707789999801e+00,-8.903547898339999378e+00,-9.103314876559999158e-01,3.453801631930000227e+00,6.038188457490000438e+00,0.000000000000000000e+00
2.420032409000000051e+00,-3.246834972809999442e+00,-6.569492956109999504e+00,-9.606534254889998792e+00,-1.384075522420000093e+00,3.784977674480000331e+00,6.447287559509999433e+00,0.000000000000000000e+00
2.425031233999999980e+00,-7.109987268830000873e-02,-7.313081372160000981e+00,-1.040162547919999980e+01,-2.037956476209999757e+00,3.356281518939999930e+00,6.642660617829999836e+00,0.000000000000000000e+00
2.429966541999999841e+00,2.011200706199999910e+00,-6.379881653880000059e+00,-1.113647470839999976e+01,-2.572755098340000046e+00,2.519644260409999781e+00,6.612868309019999558e+00,0.000000000000000000e+00
2.434942604000000177e+00,2.913694320569999885e+00,-6.666352324890000070e+00,-1.096388059200000065e+01,-2.926903009409999701e+00,1.574883818630000043e+00,6.458179473880000465e+00,0.000000000000000000e+00
2.439932756999999786e+00,1.309181441120000011e+00,-4.192335077480000116e+00,-1.039123618710000052e+01,-3.192203044890000285e+00,9.218630194660000221e-01,6.300092220309999824e+00,0.000000000000000000e+00
2.444918216000000033e+00,-7.098525890549999273e-01,-3.261063696909999976e+00,-9.383137587440000260e+00,-3.434044837950000151e+00,6.853824853899999070e-01,6.038661003109999648e+00,0.000000000000000000e+00
2.450021910999999886e+00,-1.720728398340000131e+00,-3.722702718769999919e+00,-8.388976912240000416e+00,-3.659919500350000465e+00,9.862380027770000224e-01,5.827385425569999278e+00,0.000000000000000000e+00
2.455028218999999901e+00,-1.571898311570000040e+00,-4.182669423510000151e+00,-7.335856098549999871e+00,-3.738302230830000017e+00,1.581259608270000117e+00,5.585542202000000067e+00,0.000000000000000000e+00
2.460015998999999898e+00,-8.938507275779999928e-01,-4.363240510189999810e+00,-6.811269329870000000e+00,-3.824329614639999875e+00,2.293568134310000062e+00,5.434372425080000291e+00,0.000000000000000000e+00
2.465013506000000021e+00,4.048606478569999889e-01,-4.938851655930000639e+00,-7.381763863239998891e+00,-3.873801946640000438e+00,2.890955686569999905e+00,5.254037857059999261e+00,0.000000000000000000e+00
2.470015681000000018e+00,2.948015984630000030e+00,-6.061199735110000653e+00,-7.770915741039999602e+00,-3.908674240109999865e+00,3.179246187209999519e+00,5.083006858830000141e+00,0.000000000000000000e+00
2.474998574999999867e+00,4.799796528729999956e+00,-6.911155937510000236e+00,-7.864726828160001126e+00,-3.921299934389999908e+00,3.230038404459999679e+00,4.782039165500000522e+00,0.000000000000000000e+00
2.480033622000000104e+00,5.555087365269999466e+00,-8.338574758740000092e+00,-7.574885803939999107e+00,-3.890197277069999515e+00,3.077078580859999857e+00,4.447280406950000042e+00,0.000000000000000000e+00
2.485032434999999928e+00,5.714357889769999588e+00,-9.281974968510001034e+00,-7.400268072710000311e+00,-3.820537328719999959e+00,2.897918224329999681e+00,4.084305763239999720e+00,0.000000000000000000e+00
2.490014846999999865e+00,5.144039881999999508e+00,-9.568215337889999006e+00,-6.890776581819999080e+00,-3.717739820480000290e+00,2.768822669979999596e+00,3.720132589340000351e+00,0.000000000000000000e+00
2.495006088999999871e+00,4.147759730430000680e+00,-9.835023861569998971e+00,-6.409429235410000203e+00,-3.600546836849999988e+00,2.789978742599999784e+00,3.312438726429999925e+00,0.000000000000000000e+00
2.499989648000000120e+00,3.143563398909999584e+00,-1.008962406110000032e+01,-6.293937062359999501e+00,-3.441833257679999925e+00,3.034664869309999791e+00,2.881963968280000010e+00,0.000000000000000000e+00
2.505000826999999930e+00,2.665963130070000187e+00,-1.004770799639999979e+01,-6.350959510780000983e+00,-3.237959146499999719e+00,3.340128183359999614e+00,2.410033941270000035e+00,0.000000000000000000e+00
2.510015602000000179e+00,2.461403265029999954e+00,-1.038074518820000058e+01,-6.596174042289999484e+00,-3.008090496059999897e+00,3.647870779040000233e+00,1.907257914540000154e+00,0.000000000000000000e+00
2.515038389999999957e+00,1.771064354740000013e+00,-1.063925934629999936e+01,-6.638448418919999483e+00,-2.742365360259999552e+00,3.917895078659999974e+00,1.426353693010000034e+00,0.000000000000000000e+00
2.520074467000000151e+00,1.561779360879999912e+00,-1.117289392930000069e+01,-6.521118509049999901e+00,-2.448498249050000020e+00,4.172720432280000225e+00,9.736924171449999887e-01,0.000000000000000000e+00
2.524980305000000147e+00,1.840132191879999990e+00,-1.194497954099999859e+01,-6.231508955489999835e+00,-2.185877561569999905e+00,4.356429576870000098e+00,5.937848091130000228e-01,0.000000000000000000e+00
2.530014087000000078e+00,2.177617887589999857e+00,-1.247816404219999953e+01,-6.123306354930000417e+00,-2.000312328340000168e+00,4.561660766600000194e+00,2.290010601280000058e-01,0.000000000000000000e+00
2.534971253999999785e+00,2.261056341509999790e+00,-1.292585987890000077e+01,-5.950940786530000359e+00,-1.861503958699999961e+00,4.740160942080000162e+00,-5.995815619829999998e-02,0.000000000000000000e+00
2.540040136000000004e+00,2.175686042740000214e+00,-1.358379771789999957e+01,-5.971220773489999800e+00,-1.802998065950000006e+00,4.852540016169999859e+00,-2.997626662249999741e-01,0.000000000000000000e+00
2.545022224999999860e+00,1.971211079509999742e+00,-1.404800512900000165e+01,-6.044084349650000298e+00,-1.789662837979999699e+00,4.918591976170000102e+00,-4.758614003659999980e-01,0.000000000000000000e+00
2.549975202999999802e+00,1.544943961410000011e+00,-1.415189688059999895e+01,-6.106523562430000496e+00,-1.777743935590000213e+00,4.963122844699999980e+00,-6.199673414230000290e-01,0.000000000000000000e+00
2.555012511000000153e+00,7.231773500520000120e-01,-1.386192726159999999e+01,-6.163650640280000204e+00,-1.716953992840000165e+00,4.946176052090000219e+00,-7.158979773520000034e-01,0.000000000000000000e+00
2.559997280999999791e+00,-2.075823181299999987e-01,-1.378621063410000147e+01,-6.338593950209999939e+00,-1.597694873810000082e+00,4.976412296300000371e+00,-8.283974528309999696e-01,0.000000000000000000e+00
2.565122464999999963e+00,-1.219594766760000004e+00,-1.401010005349999865e+01,-6.662182345730000677e+00,-1.414311528210000057e+00,5.044298648829999898e+00,-9.457654952999999809e-01,0.000000000000000000e+00
2.569995234999999933e+00,-2.186703403579999705e+00,-1.405573017030000038e+01,-7.122036237739999720e+00,-1.216883063320000069e+00,5.165627479549999457e+00,-1.063951611520000062e+00,0.000000000000000000e+00
2.574990645000000189e+00,-2.942170473470000047e+00,-1.399831609219999962e+01,-7.432003519660001167e+00,-1.048791289329999987e+00,5.312531948090000178e+00,-1.211613774300000168e+00,0.000000000000000000e+00
2.579882298999999879e+00,-3.599745324409999725e+00,-1.419124806329999977e+01,-7.602881479849999735e+00,-8.730531930920000239e-01,5.501346588130000548e+00,-1.354016900060000195e+00,0.000000000000000000e+00
2.584996945999999962e+00,-3.966625749169999882e+00,-1.466466520119999828e+01,-7.522647082660000706e+00,-7.509783506389999808e-01,5.681010246280000509e+00,-1.531502246859999916e+00,0.000000000000000000e+00
2.590002225000000102e+00,-4.116974131550000138e+00,-1.527555721140000067e+01,-7.244871759289998714e+00,-6.312246918680000096e-01,5.842368125920000210e+00,-1.683339595789999921e+00,0.000000000000000000e+00
2.595033048999999981e+00,-4.018350967970000021e+00,-1.571893693849999885e+01,-7.035645656010000693e+00,-5.213699936869999885e-01,5.971473217009999779e+00,-1.824593663219999939e+00,0.000000000000000000e+00
2.599933881000000113e+00,-3.833210089150000055e+00,-1.576068816799999972e+01,-6.854512843790000254e+00,-4.476146399970000189e-01,6.022672176360000407e+00,-1.980828404429999967e+00,0.000000000000000000e+00
2.604999043999999930e+00,-3.808078570500000204e+00,-1.592612890559999883e+01,-6.848640736880001079e+00,-3.884111642840000211e-01,5.985928058619999881e+00,-2.124839067459999953e+00,0.000000000000000000e+00
2.609994283999999887e+00,-4.199064970249999362e+00,-1.592522406570000015e+01,-7.074798101219999857e+00,-3.023633658889999798e-01,5.910418510440000439e+00,-2.305537700649999966e+00,0.000000000000000000e+00
2.615010194999999982e+00,-4.921279174359999509e+00,-1.583748031579999882e+01,-7.410667886169999719e+00,-1.930361986159999932e-01,5.827245235440000393e+00,-2.490090847020000275e+00,0.000000000000000000e+00
2.620034368999999863e+00,-5.489800946359999934e+00,-1.582056775940000115e+01,-7.792931758019999045e+00,-9.276549518110001336e-02,5.778452873230000897e+00,-2.726036071779999848e+00,0.000000000000000000e+00
2.625037293000000105e+00,-6.057583298169999075e+00,-1.591588340589999895e+01,-8.217097081529999514e+00,3.917808830740000109e-02,5.747920989990000784e+00,-2.993609905240000035e+00,0.000000000000000000e+00
2.630041563999999887e+00,-6.451530593559999360e+00,-1.588847049829999847e+01,-8.664335822119999975e+00,1.378058642149999902e-01,5.782182216640000760e+00,-3.267556428909999866e+00,0.000000000000000000e+00
2.635048043999999923e+00,-6.663389383430000201e+00,-1.582540643170000116e+01,-9.052653587180000017e+00,2.229741811750000080e-01,5.833498477940000093e+00,-3.561351060869999419e+00,0.000000000000000000e+00
2.640001525000000182e+00,-6.684601098280000819e+00,-1.555863064119999883e+01,-9.278367299410000157e+00,3.044597208500000041e-01,5.912371158600000065e+00,-3.815582990649999839e+00,0.000000000000000000e+00
2.645033011999999850e+00,-6.540290242509999352e+00,-1.535263577489999953e+01,-9.494553889349999665e+00,4.039494395260000426e-01,5.956265926360000407e+00,-4.086037635799999457e+00,0.000000000000000000e+00
2.650013965999999943e+00,-6.562532469450000683e+00,-1.523585765369999834e+01,-9.885457579260000571e+00,5.430887341500000298e-01,5.963271617890000265e+00,-4.331077098849999807e+00,0.000000000000000000e+00
2.655041232999999945e+00,-6.609202450689999786e+00,-1.516828224710000050e+01,-1.034156234790000006e+01,6.877999901769999980e-01,5.948565483090000328e+00,-4.561360836030000421e+00,0.000000000000000000e+00
2.660025328000000133e+00,-6.918821357569999719e+00,-1.505889598969999987e+01,-1.087351116970000042e+01,8.257794380190000005e-01,5.919415950780000379e+00,-4.763492584230000659e+00,0.000000000000000000e+00
2.665009638999999986e+00,-7.187554711830000720e+00,-1.520260069630000110e+01,-1.140283782640000076e+01,9.243879914279999888e-01,5.914625167849999698e+00,-4.990713119509999629e+00,0.000000000000000000e+00
2.670013277999999879e+00,-7.889717477039999594e+00,-1.529866102359999935e+01,-1.202781798319999851e+01,1.018115520479999869e+00,5.947518348689999179e+00,-5.150001525880000486e+00,0.000000000000000000e+00
2.674995930000000133e+00,-8.315002744489998321e+00,-1.521123642269999898e+01,-1.271310326339999897e+01,1.055206179620000073e+00,5.975608348849999807e+00,-5.332182407380000377e+00,0.000000000000000000e+00
2.680009903000000193e+00,-8.635276900900000996e+00,-1.492901756390000045e+01,-1.335277479339999829e+01,1.112286090849999853e+00,5.991522788999999349e+00,-5.496038436890000156e+00,0.000000000000000000e+00
2.685023480999999990e+00,-9.059877693220000694e+00,-1.487574073170000055e+01,-1.411111712640000171e+01,1.152673363689999952e+00,6.010971069340000028e+00,-5.654185295099999564e+00,0.000000000000000000e+00
2.689998066999999882e+00,-9.717688106480000698e+00,-1.466433553089999897e+01,-1.496241480660000001e+01,1.179502844810000006e+00,6.019701957699999717e+00,-5.794583320619999256e+00,0.000000000000000000e+00
2.694996123000000132e+00,-1.050382913159999987e+01,-1.449044845200000076e+01,-1.577589158239999989e+01,1.220309972759999972e+00,6.026868820190000697e+00,-5.884993076319999794e+00,0.000000000000000000e+00
2.700000256000000043e+00,-1.126958904740000023e+01,-1.461813959690000075e+01,-1.655088694410000016e+01,1.266452431679999879e+00,6.092825889590000266e+00,-5.962283611300000175e+00,0.000000000000000000e+00
2.704979922000000148e+00,-1.202605857240000020e+01,-1.464308582209999976e+01,-1.736226645529999857e+01,1.302798986430000028e+00,6.156610012050000691e+00,-5.975392818450000476e+00,0.000000000000000000e+00
2.709906146999999876e+00,-1.255809974869999834e+01,-1.445885036770000021e+01,-1.811835487200000117e+01,1.319447040560000062e+00,6.221788406369999969e+00,-5.950018882749999349e+00,0.000000000000000000e+00
2.714883926999999808e+00,-1.308545422849999973e+01,-1.431593359660000075e+01,-1.869111968840000060e+01,1.344233393670000165e+00,6.310578346249999804e+00,-5.877263069149999630e+00,0.000000000000000000e+00
2.719888035999999953e+00,-1.366008717690000118e+01,-1.432585176400000115e+01,-1.935646575779999878e+01,1.387121438979999954e+00,6.380055427550000324e+00,-5.766523361209999088e+00,0.000000000000000000e+00
2.724974049000000065e+00,-1.433482300599999881e+01,-1.430964180299999988e+01,-2.004345433479999983e+01,1.468912959099999860e+00,6.377030849459999651e+00,-5.595069408419999668e+00,0.000000000000000000e+00
2.730066336999999788e+00,-1.498259367130000186e+01,-1.444919406599999867e+01,-2.079695215039999923e+01,1.560649752620000053e+00,6.365139484410000215e+00,-5.464294910429999597e+00,0.000000000000000000e+00
2.735033726000000165e+00,-1.605557712330000086e+01,-1.456786837630000164e+01,-2.148080301389999747e+01,1.685559034349999985e+00,6.330757141109999431e+00,-5.334976196290000416e+00,0.000000000000000000e+00
2.739971938000000051e+00,-1.757302400600000070e+01,-1.540445130240000005e+01,-2.256734503570000072e+01,1.761982798579999843e+00,6.253388881679999400e+00,-5.216012001040000179e+00,0.000000000000000000e+00
2.744879948999999986e+00,-2.019781955160000209e+01,-1.181203471339999922e+01,-2.337698500979999849e+01,1.786743044850000128e+00,6.173403263089999982e+00,-5.143348693850000153e+00,0.000000000000000000e+00
2.749993515999999971e+00,-2.062860517000000016e+01,-4.418088537190000054e+00,-2.290545120139999824e+01,1.774773597720000096e+00,6.078734874730000293e+00,-5.167430877690000202e+00,0.000000000000000000e+00
2.755010390999999892e+00,-2.264973924119999893e+01,-3.106088239259999995e+00,-2.369641920820000180e+01,2.176841974259999812e+00,6.053529739380000940e+00,-4.971361637119999344e+00,0.000000000000000000e+00
2.760002932999999992e+00,-2.543709733869999923e+01,-3.951187357019999791e+00,-2.250591412309999839e+01,2.943633556370000459e+00,6.086103916169999906e+00,-4.831526756289999724e+00,0.000000000000000000e+00
2.765005889999999855e+00,-2.701305252439999904e+01,-5.346562103730000182e+00,-2.314731934499999966e+01,3.630192518230000331e+00,6.065512657170000210e+00,-4.647089958190000480e+00,0.000000000000000000e+00
2.770002481000000127e+00,-2.756600087969999890e+01,-8.001818254079999804e+00,-2.312777059500000121e+01,3.978792428969999406e+00,5.988873958589999269e+00,-4.442870616909999626e+00,0.000000000000000000e+00
2.774899963000000191e+00,-2.686691503770000011e+01,-1.056725677090000026e+01,-2.333584168300000172e+01,3.818908691409999889e+00,5.866636276250000392e+00,-4.064948081969999905e+00,0.000000000000000000e+00
2.780113082000000180e+00,-2.586136670710000018e+01,-1.279499594920000050e+01,-2.313217321380000158e+01,3.169439792629999975e+00,5.765737056729999921e+00,-3.502975463869999473e+00,0.000000000000000000e+00
2.785055159000000113e+00,-2.535611533800000217e+01,-1.161452359779999988e+01,-2.274586737310000117e+01,2.341266393659999778e+00,5.681541442869999514e+00,-3.013741016390000027e+00,0.000000000000000000e+00
2.789999295999999962e+00,-2.589659467230000089e+01,-9.418871164119998696e+00,-2.047761848980000110e+01,1.464131474490000029e+00,5.487896919249999783e+00,-2.540283203120000000e+00,0.000000000000000000e+00
2.795036081000000117e+00,-2.738922509360000035e+01,-7.996245422389999469e+00,-1.733951335629999946e+01,8.380563259119999664e-01,5.189371585850000024e+00,-2.060402870179999901e+00,0.000000000000000000e+00
2.799990749000000001e+00,-2.865432218609999993e+01,-6.157467567730000368e+00,-1.308881172230000089e+01,5.574781298640000271e-01,4.768845558169999777e+00,-1.642672061919999926e+00,0.000000000000000000e+00
2.804982979000000043e+00,-2.946357637579999889e+01,-5.191588399639999629e+00,-7.651073556090000061e+00,5.007233023639999780e-01,4.272262096409999543e+00,-1.257419943809999996e+00,0.000000000000000000e+00
2.809976196000000037e+00,-2.970889086050000216e+01,-4.281065208070000239e+00,-3.688234924240000101e+00,6.442184448240000361e-01,3.763169288640000332e+00,-8.796841502189999273e-01,0.000000000000000000e+00
2.815002826999999819e+00,-3.011049247000000051e+01,-2.240158514910000065e+00,-3.522821366939999921e-01,9.455342888830000625e-01,3.285752058029999922e+00,-5.755876898770000416e-01,0.000000000000000000e+00
2.820012809000000065e+00,-3.089522012119999772e+01,4.666740568869999668e-03,1.399016902610000113e+00,1.299117922780000045e+00,2.780699968339999995e+00,-3.133929073810000077e-01,0.000000000000000000e+00
2.825034146000000135e+00,-3.137896576090000167e+01,1.460590876859999998e+00,1.881762571509999926e+00,1.664869308469999920e+00,2.268799304959999930e+00,-2.428193092350000026e-01,0.000000000000000000e+00
2.829994552000000052e+00,-3.167591690940000149e+01,2.309237604099999785e+00,2.337960571370000018e+00,1.945758700370000094e+00,1.695526242260000149e+00,-3.992207646369999585e-01,0.000000000000000000e+00
2.835007343000000013e+00,-3.093751144900000227e+01,2.166131155670000030e+00,3.007485533949999734e+00,1.989714384080000009e+00,1.116621971129999835e+00,-7.426180243490000388e-01,0.000000000000000000e+00
2.840025538999999988e+00,-2.950801172979999976e+01,1.424946001369999937e+00,3.433473688969999937e+00,1.717724919320000154e+00,4.933643341060000020e-01,-1.106620311739999973e+00,0.000000000000000000e+00
2.844970433999999937e+00,-2.791991251729999846e+01,-3.216370057250000358e-01,3.510186049519999685e+00,1.154564142229999923e+00,-8.035262674089999058e-02,-1.443380594250000204e+00,0.000000000000000000e+00
2.849992208999999832e+00,-2.619792272070000294e+01,-1.498272811130000104e+00,2.843821158399999938e+00,3.495337367059999645e-01,-6.153654456139999729e-01,-1.742207050320000006e+00,0.000000000000000000e+00
2.854959864000000014e+00,-2.480049221050000341e+01,-1.235133623610000120e+00,1.862917731920000097e+00,-5.527638196949999916e-01,-1.122591972349999967e+00,-1.956927061079999808e+00,0.000000000000000000e+00
2.859937782999999900e+00,-2.400053191889999837e+01,-6.152404146859999923e-01,9.082486707649999325e-01,-1.289855480189999959e+00,-1.587847471239999919e+00,-2.074381351470000023e+00,0.000000000000000000e+00
2.865066457999999816e+00,-2.330544186860000266e+01,9.544317452689999870e-01,-2.111007380469999972e-01,-1.758567452429999900e+00,-2.022268772129999892e+00,-2.158443212509999931e+00,0.000000000000000000e+00
2.870049054999999960e+00,-2.249046404059999915e+01,3.090597532399999903e+00,-1.644301284479999792e+00,-1.870670318600000215e+00,-2.348356246949999893e+00,-2.198991775510000135e+00,0.000000000000000000e+00
2.874996889000000166e+00,-2.096863791990000081e+01,4.708748184320000085e+00,-3.444680434899999977e+00,-1.764548301699999877e+00,-2.566160917279999953e+00,-2.250815868380000140e+00,0.000000000000000000e+00
2.879999644999999830e+00,-3.716263917900000102e+00,4.023998033949999886e+00,-3.389281203760000238e+01,-2.109558105470000111e+00,-2.397514343259999681e+00,-2.294539213179999759e+00,0.000000000000000000e+00
2.884993124000000186e+00,-2.915771009939999914e+01,1.075049269279999997e+01,-1.283409695650000160e+01,-2.963882923129999458e+00,-4.847243309019999558e+00,-2.897047996520000002e+00,0.000000000000000000e+00
2.889991301999999873e+00,1.096544827970000036e+01,8.225034888799999777e+00,-4.688802543880000506e+00,-3.576239347460000051e+00,-3.200269222260000213e+00,-3.118698120120000361e+00,0.000000000000000000e+00
2.894975817000000173e+00,1.126124090580000070e+00,8.687562968450000866e+00,-9.007395226310000780e+00,-3.150774002079999914e+00,-4.324065208440000418e+00,-2.899287462229999779e+00,0.000000000000000000e+00
2.899994667000000081e+00,-3.206727418830000342e+00,5.977175882509999205e+00,-2.761543857209999508e+00,-2.228620529170000086e+00,-5.198110103610000365e+00,-2.290187835689999840e+00,0.000000000000000000e+00
2.905007948999999812e+00,5.208119263199999516e+00,1.682215420069999823e+01,-2.733034971080000020e+01,-6.931912302969999162e-01,-5.187423706050000582e+00,-2.206304311750000302e+00,0.000000000000000000e+00
2.909942306000000034e+00,-2.698863236890000294e+00,1.793013064020000158e+01,-1.398204183369999853e+01,2.244136929509999989e-01,-5.664855480190000847e+00,-2.206675052640000079e+00,0.000000000000000000e+00
2.915017790999999914e+00,-9.846299288819999163e+00,1.948830934619999766e+01,-1.994400144240000117e+01,5.039141178129999954e-01,-6.221724987030000875e+00,-2.164168119429999759e+00,0.000000000000000000e+00
2.920056916000000058e+00,-1.981949126559999996e+01,1.384811968550000039e+01,-1.331489192969999991e+01,5.164326429369999749e-01,-6.665059566500000088e+00,-1.740173339840000333e+00,0.000000000000000000e+00
