t,ax,ay,az,wx,wy,wz,zv
4.904341999999999903e-03,-4.222809418459999797e+00,-1.493413059610000093e-01,-8.823279598890000130e+00,-5.118334200229999673e-03,-1.022116281089999884e-02,9.264326654370000705e-03,1.000000000000000000e+00
9.960405999999999774e-03,-4.248496232900000003e+00,-1.242006998249999966e-01,-8.822215184520000975e+00,3.942576702679999844e-03,-4.772912710909999953e-03,7.897282019260000105e-03,1.000000000000000000e+00
1.503567899999999971e-02,-4.204948183069999956e+00,-1.184834820890000029e-01,-8.837377097819999250e+00,-8.070630952720000625e-03,2.273223362859999857e-03,-1.617262721990000074e-03,1.000000000000000000e+00
1.999259200000000000e-02,-4.233998920990000414e+00,-1.445232564210000015e-01,-8.826196947639999735e+00,-5.213185213509999999e-03,5.532961804420000532e-03,-7.885633967819998804e-04,1.000000000000000000e+00
2.488508999999999860e-02,-4.221745004100000642e+00,-1.216639296220000110e-01,-8.792057946669999069e+00,-3.133266000079999811e-03,5.095813889060000351e-03,-1.090823439880000143e-03,1.000000000000000000e+00
2.999673599999999954e-02,-4.249624652409999648e+00,-1.406950855680000056e-01,-8.803072092639999013e+00,-1.952776685359999907e-03,-1.032445207240000051e-02,-7.714396342639998939e-04,1.000000000000000000e+00
3.492133900000000263e-02,-4.241235594249999963e+00,-1.467895117190000098e-01,-8.818637910560001458e+00,-4.955318290739999139e-03,1.870620250699999917e-02,-2.969773486260000352e-03,1.000000000000000000e+00
3.989550800000000313e-02,-4.224784225659999670e+00,-1.580686561649999877e-01,-8.871963258030000077e+00,-1.095269713549999920e-02,-1.876990310849999859e-03,2.421182347460000030e-03,1.000000000000000000e+00
4.490842099999999698e-02,-4.228395986419999808e+00,-1.661002791900000053e-01,-8.847380020919999311e+00,-1.791587471959999595e-02,1.644239295270000104e-03,-1.969023142009999981e-03,1.000000000000000000e+00
4.991981399999999985e-02,-4.282933924549999993e+00,-1.482790013580000121e-01,-8.861028022519999325e+00,-1.065460033710000087e-02,8.884448558089999212e-03,7.545228116210001001e-03,1.000000000000000000e+00
5.492936000000000346e-02,-4.218959172769999100e+00,-1.457904085460000054e-01,-8.829008497929999422e+00,-1.213834807279999886e-02,-3.222516272219999936e-03,8.298794738950000111e-03,1.000000000000000000e+00
5.996658600000000228e-02,-4.212014760459999785e+00,-1.508410886649999838e-01,-8.866862720020000310e+00,-1.098872441799999926e-02,8.438745513559999314e-03,5.357924383130000402e-04,1.000000000000000000e+00
6.494044699999999837e-02,-4.258971157419999543e+00,-1.351909260599999940e-01,-8.851056079079999250e+00,9.657856076959998523e-03,4.795419983569999302e-03,9.545840322969999583e-03,1.000000000000000000e+00
7.002196500000000545e-02,-4.135434501869999835e+00,-1.640427621389999868e-01,-8.858754816889998551e+00,-2.502694725989999640e-03,-3.768225666139999978e-03,-1.051752455529999901e-02,1.000000000000000000e+00
7.501913999999999805e-02,-4.218252193540000583e+00,-1.077291926339999928e-01,-8.817016446839998522e+00,1.264191698279999894e-02,-1.420982368289999860e-02,4.846297204489999864e-03,1.000000000000000000e+00
7.997056499999999346e-02,-4.216483138050000079e+00,-1.378481534379999984e-01,-8.874329402639999032e+00,-3.948263358320000006e-03,-1.560128480200000112e-02,3.119471715760000711e-03,1.000000000000000000e+00
8.499277700000000546e-02,-4.255728229979999888e+00,-1.313421234119999947e-01,-8.825545790250000522e+00,-9.033886715770000214e-03,-1.062399894000000053e-02,2.002528170120000065e-03,1.000000000000000000e+00
9.000252400000000041e-02,-4.255784344080000281e+00,-1.566557754260000102e-01,-8.858013643139999616e+00,-6.345009896899999995e-03,-2.224852889779999759e-02,8.592844940719998950e-03,1.000000000000000000e+00
9.499951399999999324e-02,-4.194555383880000043e+00,-1.484086373540000059e-01,-8.854213081810001995e+00,-2.659706864510000442e-03,9.114241227509999044e-03,-1.028713304550000048e-04,1.000000000000000000e+00
9.998242200000000135e-02,-4.265386285159999957e+00,-1.292397991039999916e-01,-8.851066600479999380e+00,1.662575872609999787e-03,2.051959279920000274e-03,1.161661185320000088e-02,1.000000000000000000e+00
1.049573419999999951e-01,-4.220211803179999777e+00,-1.446343155800000058e-01,-8.839299590319999567e+00,-1.198705751450000094e-03,-4.462226759640000769e-03,5.073005333540000529e-03,1.000000000000000000e+00
1.099436520000000028e-01,-4.236897272780000279e+00,-1.684342202970000035e-01,-8.839221848910000290e+00,-3.490943927320000559e-03,-6.297198589890000940e-03,8.671539835629998166e-03,1.000000000000000000e+00
1.149472140000000059e-01,-4.235770899100000264e+00,-1.518802224540000134e-01,-8.853453787879999481e+00,-1.021073199810000089e-02,-6.513589993119999616e-03,8.151661604640000544e-03,1.000000000000000000e+00
1.199562750000000011e-01,-4.186809884319999675e+00,-1.360512783499999989e-01,-8.800628206619999006e+00,1.077427435669999975e-02,-5.668864585459999078e-03,-4.316618666050000240e-03,1.000000000000000000e+00
1.250755269999999919e-01,-4.255040539980000425e+00,-1.004408165910000011e-01,-8.819254581150000050e+00,-1.118257828060000014e-02,-1.447108760479999881e-02,5.460610613230000056e-03,1.000000000000000000e+00
1.300122160000000138e-01,-4.274328008769999521e+00,-1.485220346000000191e-01,-8.889620495279999091e+00,2.644427586349999671e-04,-6.370402872560000651e-03,9.934806264940001380e-03,1.000000000000000000e+00
1.350384540000000022e-01,-4.233139673810000225e+00,-1.085572866219999960e-01,-8.806460566030001047e+00,1.507269451390000131e-03,-3.390491474420000064e-03,-5.535600706929999677e-03,1.000000000000000000e+00
1.400172929999999871e-01,-4.230864714619999134e+00,-1.458018432550000076e-01,-8.840238916989997975e+00,-3.556825453420000335e-03,-5.611693486569999632e-03,-1.092911697920000147e-02,1.000000000000000000e+00
1.449844799999999989e-01,-4.268795801349999586e+00,-1.456505160179999980e-01,-8.821258322189999390e+00,3.128841752190000217e-03,3.859573509540000294e-03,4.875565879050000433e-03,1.000000000000000000e+00
1.500349519999999992e-01,-4.258256579410000242e+00,-1.372943828790000043e-01,-8.826658135409999772e+00,-5.830841138959999559e-03,-1.376720145339999915e-03,4.386585205789999761e-03,1.000000000000000000e+00
1.550479959999999935e-01,-4.207381547699999835e+00,-1.446091172060000041e-01,-8.827963957310000609e+00,-7.991708815100001528e-03,-4.147186875339999891e-03,1.688212389130000057e-03,1.000000000000000000e+00
1.599675299999999967e-01,-4.235984541849999729e+00,-1.267247932090000140e-01,-8.833333375389999631e+00,-1.296332688069999932e-03,4.464840982109999530e-03,9.019181597979999531e-04,1.000000000000000000e+00
1.650580570000000080e-01,-4.216255174509999648e+00,-1.124989369189999949e-01,-8.842706183889999849e+00,5.286275409160000154e-03,-3.965811803940000151e-03,-1.471965387460000101e-02,1.000000000000000000e+00
1.700810140000000026e-01,-4.263436027880000090e+00,-1.422935611399999967e-01,-8.840719978510000132e+00,-1.388012059029999912e-02,-4.196551162749999862e-03,4.452594555910000147e-03,1.000000000000000000e+00
1.750439440000000069e-01,-4.227525633319999976e+00,-1.542680035070000122e-01,-8.853504641280000698e+00,-3.091386286539999848e-03,-4.166823346169999946e-04,9.283057879660001031e-04,1.000000000000000000e+00
1.800068810000000075e-01,-4.242001902440000194e+00,-1.326220254209999894e-01,-8.829568469899999883e+00,-1.575430296359999968e-02,4.298194777220000137e-03,7.261175196619999283e-04,1.000000000000000000e+00
1.849748790000000087e-01,-4.210144582669999913e+00,-1.089138815069999877e-01,-8.825887151039999878e+00,7.603612029920000332e-04,-7.624026853589999791e-03,3.431262448430000083e-04,1.000000000000000000e+00
1.899291070000000137e-01,-4.212717063510000415e+00,-1.446423710220000047e-01,-8.833789302460001380e+00,3.811260219659999733e-03,-1.864665187900000146e-02,-2.083022613079999873e-03,1.000000000000000000e+00
1.949400689999999936e-01,-4.233189942700000152e+00,-1.194834711779999975e-01,-8.823670644030000787e+00,1.320420065889999937e-03,3.866479732099999470e-03,-7.271006237720000799e-03,1.000000000000000000e+00
1.999399139999999964e-01,-4.233375820660000066e+00,-1.315725802999999916e-01,-8.841785561910000979e+00,5.935150664299999705e-03,-4.241394344719999834e-03,-6.999325938520001116e-03,1.000000000000000000e+00
2.049006780000000028e-01,-4.265878160330000668e+00,-1.350751450610000182e-01,-8.835689583130001523e+00,-7.683189120140000369e-03,-8.686557412149999158e-03,7.994675077499999172e-03,1.000000000000000000e+00
2.099395410000000073e-01,-4.229071693719999914e+00,-1.125631612619999999e-01,-8.843194259669999724e+00,7.353553548460000158e-03,-7.060030009600000607e-03,7.446970790620000696e-03,1.000000000000000000e+00
2.148968840000000102e-01,-4.182454027190000367e+00,-1.017940669639999934e-01,-8.832750607060001258e+00,-4.489997401829999742e-03,8.144885301589998780e-03,-1.310520805420000053e-02,1.000000000000000000e+00
2.199275139999999906e-01,-4.285862379220000129e+00,-1.493227291239999921e-01,-8.843196597749999555e+00,1.011207420379999986e-02,-9.956604801120001041e-03,-8.619995787739999837e-04,1.000000000000000000e+00
2.249018650000000064e-01,-4.270253891200000318e+00,-1.502965334589999868e-01,-8.814804031489998692e+00,6.848516641180000608e-04,1.486371085050000075e-02,7.728056050840000253e-03,1.000000000000000000e+00
2.299394710000000064e-01,-4.254597764649999725e+00,-1.408245023670000040e-01,-8.816314436049999870e+00,-5.315550602969999934e-03,-1.958782086149999952e-03,1.268078666179999967e-02,1.000000000000000000e+00
2.349400959999999872e-01,-4.243519321269999978e+00,-1.349249412010000149e-01,-8.826745813689999665e+00,-1.761939376589999979e-03,3.143388312310000342e-03,5.917605012660000045e-03,1.000000000000000000e+00
2.399618079999999987e-01,-4.194516513169999961e+00,-1.125207742919999976e-01,-8.832842961519999037e+00,1.052637700919999923e-03,-7.997179403900000344e-03,-5.523305386299999856e-03,1.000000000000000000e+00
2.448932269999999911e-01,-4.268010788450000703e+00,-1.349880056330000078e-01,-8.830568586849999235e+00,-2.532689832150000243e-03,1.327507197859999905e-02,4.465973936020000042e-03,1.000000000000000000e+00
2.499483999999999873e-01,-4.238203386940000428e+00,-1.183549238060000036e-01,-8.829713431330000972e+00,-7.033592090010000290e-03,1.810950227080000002e-02,3.056335961449999777e-03,1.000000000000000000e+00
2.549091769999999868e-01,-4.238836131890000303e+00,-1.505671396949999907e-01,-8.830234240330000262e+00,9.952085092660000604e-03,3.158041276039999772e-03,1.512497570370000162e-02,1.000000000000000000e+00
2.599033230000000194e-01,-4.226499505149999614e+00,-1.540684988790000098e-01,-8.840844481669998700e+00,-6.131091155109999469e-03,6.466710474340000951e-03,-1.713773934170000068e-03,1.000000000000000000e+00
2.650278500000000093e-01,-4.223528380380000335e+00,-1.529870329189999822e-01,-8.830530008410001130e+00,-5.138319917020000432e-03,3.584714140739999862e-04,8.018615655599999406e-03,1.000000000000000000e+00
2.699749730000000070e-01,-4.212120266660000389e+00,-1.351129654530000002e-01,-8.841548830549999849e+00,3.144318936389999507e-03,1.187541149560000092e-02,-6.234685890379999991e-03,1.000000000000000000e+00
2.749863770000000041e-01,-4.242419251070000286e+00,-1.266376811809999947e-01,-8.819298420299999108e+00,9.148858487610000284e-03,1.027417182920000067e-02,1.162072876469999981e-03,1.000000000000000000e+00
2.799419919999999729e-01,-4.254384998679999974e+00,-1.278097571669999932e-01,-8.824729213169998587e+00,2.653497457500000184e-02,9.181206114589998864e-04,5.491114221509999643e-03,1.000000000000000000e+00
2.849154740000000019e-01,-4.191756108549999915e+00,-1.182815754419999921e-01,-8.815783690169999076e+00,-5.829815752799999765e-03,3.398231230679999663e-03,-1.287041977050000160e-02,1.000000000000000000e+00
2.900140769999999812e-01,-4.277705376250000135e+00,-1.340715757750000070e-01,-8.852711445080000630e+00,6.938705220819999311e-03,8.847644552590001529e-03,1.363001670690000035e-02,1.000000000000000000e+00
2.950412450000000075e-01,-4.199092150520000288e+00,-1.472032527519999967e-01,-8.860787199500000710e+00,7.100609131160000309e-03,1.346138305960000066e-02,-3.121519228439999672e-03,1.000000000000000000e+00
2.999661140000000059e-01,-4.272276629200000286e+00,-1.207300554390000058e-01,-8.839698234249999231e+00,-6.082112900910000008e-03,9.429931640620000527e-03,-4.430068656799999707e-06,1.000000000000000000e+00
3.049384509999999993e-01,-4.216099983949999519e+00,-1.268199789449999948e-01,-8.832942914769999376e+00,-3.163203597070000060e-03,1.462056674060000123e-02,3.102957969530000058e-03,1.000000000000000000e+00
3.099883110000000164e-01,-4.155968171330000516e+00,-1.401029922929999949e-01,-8.851082967089999087e+00,1.444304734469999997e-02,1.077088341119999959e-02,-1.848138682540000077e-02,1.000000000000000000e+00
3.150138749999999987e-01,-4.296358346530000816e+00,-1.314051787099999868e-01,-8.833826127340000056e+00,-1.114817895000000045e-02,1.163281500340000024e-02,-1.153950579460000106e-04,1.000000000000000000e+00
3.199713909999999939e-01,-4.243961219820000075e+00,-1.252821475189999922e-01,-8.799099097350000065e+00,-6.892486941070000324e-03,-1.973732141779999810e-03,9.326592087749999843e-03,1.000000000000000000e+00
3.249661759999999955e-01,-4.218418490019999467e+00,-1.061546276600000144e-01,-8.796265919750000606e+00,1.089532277549999954e-03,-2.849615178999999939e-03,-4.464685451239999714e-03,1.000000000000000000e+00
3.299650989999999839e-01,-4.231359220139999877e+00,-1.531428993339999933e-01,-8.858460217859999375e+00,-7.066749967630000205e-03,9.022853337230000385e-04,-2.981939353050000116e-03,1.000000000000000000e+00
3.350041460000000026e-01,-4.234124885459999987e+00,-1.401018232490000015e-01,-8.854417079950000158e+00,1.033734413799999819e-03,-1.087848842139999862e-02,1.100607309489999922e-02,1.000000000000000000e+00
3.399907260000000209e-01,-4.151751722680000256e+00,-1.435745865270000032e-01,-8.845866109230000163e+00,-5.947542376819999681e-05,4.465334117409999748e-03,-2.007093094290000185e-02,1.000000000000000000e+00
3.449348520000000140e-01,-4.192697188790000418e+00,-1.362874525929999858e-01,-8.822482895549999427e+00,1.326304487879999966e-02,-8.497450500729999273e-03,-2.285832725469999840e-02,1.000000000000000000e+00
3.499735250000000075e-01,-4.295867348139999820e+00,-1.374205117429999901e-01,-8.834303681729998914e+00,-9.120730683209997761e-03,-9.699290618299999042e-03,4.358163103460000083e-03,1.000000000000000000e+00
3.549842899999999801e-01,-4.228158670530000052e+00,-1.432639131429999935e-01,-8.813415792000000692e+00,-7.213372737170000402e-03,8.149309083819999966e-03,8.015139028430000659e-03,1.000000000000000000e+00
3.599802389999999797e-01,-4.210746932480000204e+00,-1.649717500840000017e-01,-8.857880372149999459e+00,5.716817919159999754e-03,-3.139521460979999984e-03,-9.648261591790000674e-03,1.000000000000000000e+00
3.649762859999999831e-01,-4.279329762579999752e+00,-1.588841920649999850e-01,-8.844595943160001639e+00,-1.179721485820000096e-02,1.559459138660000167e-03,4.064142704010000225e-03,1.000000000000000000e+00
3.700130739999999974e-01,-4.209293811060000223e+00,-1.411535516589999817e-01,-8.844446890080000401e+00,3.395487088709999834e-03,3.517229575659999892e-03,-1.924343290740000018e-03,1.000000000000000000e+00
3.750168420000000169e-01,-4.230234307759999979e+00,-1.447134452309999930e-01,-8.841015162060001487e+00,-1.891874824650000182e-03,2.214521542190000039e-02,5.792683921750000839e-03,1.000000000000000000e+00
3.799752149999999773e-01,-4.216750556810000106e+00,-1.437443627359999976e-01,-8.871672166130000647e+00,2.415998838839999996e-03,1.093466579910000111e-02,2.110239584000000025e-04,1.000000000000000000e+00
3.849370799999999870e-01,-4.228372605540000606e+00,-1.338802544540000083e-01,-8.836770364099999497e+00,1.343043148520000132e-02,1.106700673699999998e-02,-6.024503614750000534e-03,1.000000000000000000e+00
3.899448079999999761e-01,-4.218795214380000047e+00,-1.482173251660000024e-01,-8.833815021430000414e+00,1.643827185029999791e-02,3.352435305709999922e-04,-4.447823390359999587e-03,1.000000000000000000e+00
3.949767889999999948e-01,-4.240465194399999582e+00,-1.575942070539999851e-01,-8.819323554740000404e+00,7.613698253410001006e-04,-1.243706420060000130e-02,6.291108205910000105e-03,1.000000000000000000e+00
3.999811369999999866e-01,-4.194881839349999808e+00,-1.662437975809999968e-01,-8.847356640039999220e+00,-1.187852350989999960e-03,9.685321710999999752e-04,5.268547683950000095e-03,1.000000000000000000e+00
4.050399149999999726e-01,-4.201144114619999925e+00,-1.221362781079999849e-01,-8.835766740020000398e+00,2.279349137099999985e-04,6.338401231909999468e-03,7.818924263119999413e-03,1.000000000000000000e+00
4.100006789999999790e-01,-4.215289836610000229e+00,-1.579220507690000108e-01,-8.855247685549999304e+00,-1.705686002969999948e-02,1.140072941779999910e-03,8.108302950859999636e-03,1.000000000000000000e+00
4.149503820000000065e-01,-4.235465486409999869e+00,-1.168860842290000007e-01,-8.789708753200001112e+00,7.043681107460000737e-04,-9.603230282660000150e-04,1.484559755770000107e-02,1.000000000000000000e+00
4.199567759999999761e-01,-4.212167612930000082e+00,-1.372544253280000015e-01,-8.816325541960001289e+00,8.750910870729999153e-03,-1.583848381419999864e-03,-2.093513729050000029e-03,1.000000000000000000e+00
4.249267210000000072e-01,-4.213151071010000415e+00,-1.414219294050000075e-01,-8.873232255059999574e+00,9.312628768379998395e-03,1.475891564040000044e-03,-3.394397208469999462e-03,1.000000000000000000e+00
4.299670520000000162e-01,-4.228514936619998998e+00,-1.396846572830000022e-01,-8.813356755290000066e+00,3.701924346389999683e-03,-1.007423922420000104e-02,-1.033534063029999854e-03,1.000000000000000000e+00
4.349899520000000130e-01,-4.236744128049999780e+00,-1.423727821219999967e-01,-8.849123065189999693e+00,-6.990401539949999028e-03,3.744691610339999973e-03,5.450635217130000293e-03,1.000000000000000000e+00
4.399893189999999898e-01,-4.265557257819999393e+00,-1.144856354910000068e-01,-8.799590095739999285e+00,-1.595528796319999878e-03,1.163985347380000175e-03,1.228487212210000075e-02,1.000000000000000000e+00
4.449859299999999740e-01,-4.208572511049999854e+00,-1.255149881609999851e-01,-8.828728511939999635e+00,8.086564950639999957e-03,1.330570690329999951e-02,3.044041804969999771e-04,1.000000000000000000e+00
4.499794269999999874e-01,-4.181822743550000610e+00,-1.326818019169999918e-01,-8.827794445960000402e+00,-5.864859558639999755e-03,4.044889006760000842e-03,-1.988245174290000084e-02,1.000000000000000000e+00
4.549310739999999909e-01,-4.241946665130000405e+00,-1.530605182800000019e-01,-8.846689700569999815e+00,-1.544873509560000177e-02,2.775479573759999982e-03,-1.022041402760000099e-02,1.000000000000000000e+00
4.599227770000000048e-01,-4.241716948019999656e+00,-1.556259757210000094e-01,-8.869265689510001494e+00,8.601364679630000079e-03,-2.022664062680000052e-03,-1.948614022690000041e-03,1.000000000000000000e+00
4.649040660000000047e-01,-4.225465485919999153e+00,-1.649730469919999942e-01,-8.852318061839998364e+00,7.021976634859998859e-03,-8.953195065259999391e-03,-5.066121928390000112e-03,1.000000000000000000e+00
4.699775560000000185e-01,-4.220918490139999868e+00,-1.447938443900000094e-01,-8.846084135889999089e+00,5.153513047840000381e-03,-6.345934234560000886e-03,3.094015875829999977e-03,1.000000000000000000e+00
4.750244940000000193e-01,-4.185328705849999942e+00,-1.385412046030000122e-01,-8.822629026019999543e+00,-8.284956216810000079e-03,7.717970293020000837e-03,-2.144654281440000129e-02,1.000000000000000000e+00
4.800028459999999830e-01,-4.233765989019999232e+00,-1.460588776229999886e-01,-8.839965360749999945e+00,-3.399995388459999685e-03,6.090381648390001158e-03,1.156477164479999958e-02,1.000000000000000000e+00
4.849305030000000127e-01,-4.184695668639999866e+00,-1.350351966430000106e-01,-8.825355820639998683e+00,3.686212934550000229e-03,3.804333973680000037e-04,-7.784516550600000494e-03,1.000000000000000000e+00
4.899635980000000002e-01,-4.257117638510000468e+00,-1.232108668040000077e-01,-8.843799824349998673e+00,1.199199166149999933e-02,-1.194371841849999928e-02,-2.948882989590000548e-03,1.000000000000000000e+00
4.949430590000000185e-01,-4.241841158919999799e+00,-1.517829086930000126e-01,-8.844913338539999614e+00,9.167052805419999978e-03,8.974907919760001518e-03,-3.697315696629999843e-03,1.000000000000000000e+00
4.999531079999999794e-01,-4.236599166619999579e+00,-1.362978461229999994e-01,-8.839277378480000280e+00,4.829567391430000280e-03,-1.230628229679999949e-02,-3.323892131449999923e-03,1.000000000000000000e+00
5.049721190000000526e-01,-4.193414689409999951e+00,-1.543851270799999897e-01,-8.854395452639998609e+00,-1.124263554810000197e-02,-2.063429681580000209e-03,-8.667356334630000117e-03,1.000000000000000000e+00
5.099778139999999738e-01,-4.266420888909999931e+00,-9.555303541610001006e-02,-8.804926196069999378e+00,4.504390992220000216e-03,5.073605570939999400e-03,6.075570359829999753e-03,1.000000000000000000e+00
5.149409240000000221e-01,-4.206337299350000336e+00,-1.279039108570000083e-01,-8.834360380349998820e+00,-9.332203189839999259e-04,-1.855842024090000042e-02,-1.256301347169999985e-02,1.000000000000000000e+00
5.200471389999999916e-01,-4.235704555869999943e+00,-1.304831867610000140e-01,-8.843669475960000526e+00,1.792468503120000015e-02,6.586771924049999657e-03,8.180232252930000466e-04,1.000000000000000000e+00
5.249096140000000243e-01,-4.226509734280000430e+00,-1.234229386520000055e-01,-8.868813854089999893e+00,-4.131040535870000169e-03,6.154384929690000054e-03,-1.059853471820000094e-02,1.000000000000000000e+00
5.299115650000000288e-01,-4.228204263240000316e+00,-9.679968360950000350e-02,-8.807582263540000511e+00,-8.496802765880001260e-04,2.958315890280000318e-03,-1.047499571000000060e-02,1.000000000000000000e+00
5.349495119999999604e-01,-4.248214201090000586e+00,-1.140793471120000041e-01,-8.875757974139999007e+00,4.516221815719999961e-04,5.711693782360000027e-03,5.103122442960000144e-03,1.000000000000000000e+00
5.399921899999999830e-01,-4.175613367519999564e+00,-1.438647742459999990e-01,-8.873702795179999825e+00,-1.044841203839999913e-02,-5.519448313860000422e-04,-6.817340850830000062e-03,1.000000000000000000e+00
5.450621020000000483e-01,-4.256726008850000298e+00,-1.658826178520000083e-01,-8.823437419799999404e+00,5.585568491370000201e-03,8.237265050409999650e-03,1.767583889889999885e-03,1.000000000000000000e+00
5.500024359999999835e-01,-4.204607699069999427e+00,-1.291356446089999832e-01,-8.831330218869998916e+00,1.009820401670000027e-02,8.973011746999999538e-03,-7.998206652700000710e-03,1.000000000000000000e+00
5.549469409999999714e-01,-4.210553747999999707e+00,-1.516900884429999985e-01,-8.820806486769999566e+00,4.556228872390000358e-03,-1.026401668789999992e-02,-8.193818852310000636e-03,1.000000000000000000e+00
5.599188800000000077e-01,-4.274136285590000028e+00,-1.576675097520000013e-01,-8.837710859819999598e+00,1.256641093639999929e-02,-9.721849113700000225e-03,7.484474219379999918e-03,1.000000000000000000e+00
5.649101460000000019e-01,-4.196120733499999922e+00,-1.683816315929999863e-01,-8.829906908069999005e+00,-3.420503111560000038e-03,-6.256925873460000495e-03,-5.710515193640000944e-03,1.000000000000000000e+00
5.699721250000000516e-01,-4.193606120330000131e+00,-1.829548400149999809e-01,-8.857720213150001243e+00,-1.459524407979999848e-02,4.549669567500000227e-03,-1.180641353129999876e-02,1.000000000000000000e+00
5.749766130000000253e-01,-4.265772069609999662e+00,-1.753741756280000064e-01,-8.818732603110001733e+00,1.217562612149999945e-02,-6.566016469149999271e-03,3.758403705430000009e-03,1.000000000000000000e+00
5.799369140000000256e-01,-4.208566373570000074e+00,-1.482230425200000146e-01,-8.834972374770000414e+00,2.244506496939999846e-03,5.893943365660000121e-03,-4.916277248409999532e-04,1.000000000000000000e+00
5.849339860000000169e-01,-4.185476882149999689e+00,-1.505982472190000032e-01,-8.827128091010001398e+00,-2.087345346809999988e-03,2.214424498379999676e-02,-7.369707338510000059e-03,1.000000000000000000e+00
5.899897029999999765e-01,-4.212805326319999821e+00,-1.699493010350000000e-01,-8.861748153489999780e+00,6.619912106540000278e-03,-1.224040985110000021e-02,2.525270218029999902e-03,1.000000000000000000e+00
5.949673530000000321e-01,-4.204558306970000103e+00,-1.409232774339999883e-01,-8.817065546680000310e+00,-1.740923966279999931e-03,8.383275941009999885e-03,-4.903178662059999929e-03,1.000000000000000000e+00
5.999288959999999893e-01,-4.267785455259999416e+00,-1.266022445409999975e-01,-8.822371836389999444e+00,1.270782481879999780e-02,1.823621336369999875e-03,6.594982929529999080e-03,1.000000000000000000e+00
6.049262290000000375e-01,-4.177243306810000334e+00,-1.242282728180000018e-01,-8.809053505130000516e+00,-1.070779934529999915e-02,-5.728094838559999631e-03,-1.095134671779999895e-02,1.000000000000000000e+00
6.099745930000000094e-01,-4.233566374790000530e+00,-1.660534809070000062e-01,-8.834766038539999755e+00,9.748049080370000535e-03,-6.702172104269999049e-04,-3.821934573349999777e-03,1.000000000000000000e+00
6.149558529999999967e-01,-4.218456191680000522e+00,-1.865617236670000234e-01,-8.864676023639999514e+00,-1.311957184230000059e-02,-8.816371671859999856e-03,-3.369117621330000069e-04,1.000000000000000000e+00
6.199323020000000461e-01,-4.219564445189999624e+00,-1.984055071249999913e-01,-8.860866694480000305e+00,-3.848322434349999918e-03,-1.441202498970000148e-02,1.181312603880000159e-03,1.000000000000000000e+00
6.249017289999999614e-01,-4.216194676489999793e+00,-1.305038276900000183e-01,-8.846054909799999422e+00,1.249560248109999987e-02,-5.593141540880000769e-03,4.610537551340000186e-03,1.000000000000000000e+00
6.299341990000000280e-01,-4.204161416609999868e+00,-1.422100110420000119e-01,-8.827826594670000304e+00,1.396318618210000070e-02,4.141980316489999106e-03,-2.435891423370000006e-03,1.000000000000000000e+00
6.349791769999999502e-01,-4.215566899980000670e+00,-1.709700589169999840e-01,-8.848199520610000590e+00,-4.703244194390000278e-03,8.179344236850001268e-03,1.557618146760000183e-03,1.000000000000000000e+00
6.399320550000000551e-01,-4.196898732130000198e+00,-1.684752646930000319e-01,-8.840188063590000311e+00,-4.502072464669999718e-03,7.608579006049999774e-03,-1.918519847099999995e-02,1.000000000000000000e+00
6.449663650000000414e-01,-4.313604957149999919e+00,-1.468774000649999967e-01,-8.827761128210001473e+00,-6.921242922539999447e-03,4.853438586000000218e-04,8.179181255399998671e-03,1.000000000000000000e+00
6.499552069999999793e-01,-4.207482962250000291e+00,-1.518167013650000008e-01,-8.833910883019999716e+00,-6.973160430789999975e-03,1.848354563119999905e-02,-3.107194788749999747e-04,1.000000000000000000e+00
6.549590530000000133e-01,-4.248544455959999411e+00,-1.529796259300000016e-01,-8.834815138379999766e+00,-1.862770295700000214e-03,1.458152011040000050e-02,7.244029082359999816e-03,1.000000000000000000e+00
6.599525429999999471e-01,-4.243797845950000536e+00,-1.504679993019999995e-01,-8.829364471760001720e+00,5.542996339500000716e-03,4.694784060119999713e-03,2.048686146740000171e-04,1.000000000000000000e+00
6.649036790000000252e-01,-4.227952918829999795e+00,-1.850049409450000015e-01,-8.826115114569999420e+00,-6.674132775519999936e-03,-7.844336330889999792e-03,-4.822206683460000289e-03,1.000000000000000000e+00
6.699517080000000346e-01,-4.208303923239999911e+00,-1.791511003510000144e-01,-8.823523929039998492e+00,8.992600487549999350e-05,8.313074707979999436e-03,-3.344133496280000169e-03,1.000000000000000000e+00
6.750082699999999658e-01,-4.258945146200000309e+00,-1.317966987789999933e-01,-8.854518202239999525e+00,-4.879416897890000333e-03,5.318732466550000516e-03,1.759102754290000140e-02,1.000000000000000000e+00
6.799960149999999537e-01,-4.177284223340000047e+00,-1.604628578249999993e-01,-8.863051637299999896e+00,9.630000218750000424e-03,-7.974304258819999922e-03,3.350789425889999767e-03,1.000000000000000000e+00
6.849751729999999927e-01,-4.229057957460000239e+00,-1.554901109140000015e-01,-8.848077355530000077e+00,5.318206734959999779e-03,-1.893437933180000055e-03,3.369289683179999689e-03,1.000000000000000000e+00
6.900307570000000501e-01,-4.210339520719999840e+00,-1.838855267280000150e-01,-8.832246749199999414e+00,4.709361586720000291e-03,-8.536988869310001282e-03,-8.197534829379999818e-03,1.000000000000000000e+00
6.949734829999999475e-01,-4.243343672439999992e+00,-1.625354080489999908e-01,-8.830618271209999648e+00,-9.610593318940000018e-03,4.841284360739999890e-03,7.612329907720000871e-03,1.000000000000000000e+00
6.998929329999999949e-01,-4.201082155299999954e+00,-1.506056542070000059e-01,-8.825973075750001229e+00,-5.873936228449999977e-03,-5.061062984169999960e-05,2.589077921579999771e-03,1.000000000000000000e+00
7.050027100000000324e-01,-4.210994185239999688e+00,-1.638083688610000033e-01,-8.845732838230000894e+00,-8.004686795180000411e-03,1.809021923689999988e-03,-4.837590269739999553e-03,1.000000000000000000e+00
7.099436930000000423e-01,-4.249628744059999796e+00,-1.553250382789999884e-01,-8.828992131310000602e+00,-1.757064089180000038e-02,-5.534834228460000678e-03,5.697857588529999656e-03,1.000000000000000000e+00
7.149793009999999560e-01,-4.234769028580000594e+00,-1.624986927679999971e-01,-8.830339454269999777e+00,6.433322560039999617e-03,-1.228783279659999977e-02,1.225702185180000021e-02,1.000000000000000000e+00
7.199314350000000085e-01,-4.200451748440000799e+00,-1.590557675060000065e-01,-8.836889022039999375e+00,5.220836494119999657e-03,-3.891004715110000286e-03,1.109858229759999940e-02,1.000000000000000000e+00
7.249598419999999654e-01,-4.157712092390000613e+00,-1.745132662159999959e-01,-8.837858743860000033e+00,3.240682650360000167e-03,7.501518819479999038e-03,-1.380951050670000020e-02,1.000000000000000000e+00
7.299592080000000260e-01,-4.214021716369999560e+00,-1.660769531140000033e-01,-8.827047426989999224e+00,4.459857009350000172e-03,-1.769734080880000201e-03,-1.236393116410000083e-02,1.000000000000000000e+00
7.349135719999999594e-01,-4.229665275699999505e+00,-1.565246598599999983e-01,-8.825718224210000074e+00,5.812252871689999219e-03,3.773552365599999823e-03,-6.522182375189999361e-03,1.000000000000000000e+00
7.398908189999999774e-01,-4.252247986650000477e+00,-1.624115442079999971e-01,-8.829676606450000520e+00,1.065685320649999851e-02,-1.640571095049999858e-02,-2.641696250070000099e-03,1.000000000000000000e+00
7.449167620000000101e-01,-4.221811347330000075e+00,-1.542778673140000056e-01,-8.838997392499999606e+00,5.132189486180000447e-03,4.500979091970000630e-03,1.635913969950000216e-03,1.000000000000000000e+00
7.499902579999999652e-01,-4.267641078349999617e+00,-1.674369894199999875e-01,-8.860653343990000153e+00,-9.743420523589999514e-04,1.697275321930000278e-03,1.328090857710000072e-02,1.000000000000000000e+00
7.549637900000000235e-01,-4.191370908619999724e+00,-1.554694699849999973e-01,-8.845691921700000293e+00,-1.465427223589999862e-03,1.071884855629999869e-02,-5.911421962079999905e-03,1.000000000000000000e+00
7.599502870000000021e-01,-4.283977296130000667e+00,-1.363752039420000062e-01,-8.848683504730001204e+00,-2.723543671889999945e-03,-7.078125607220001059e-03,9.454544633629999653e-03,1.000000000000000000e+00
7.649296540000000144e-01,-4.179177197480000494e+00,-1.424570720049999906e-01,-8.842980909179999571e+00,2.315081655979999732e-04,-1.618978567419999959e-02,-2.423114608969999945e-03,1.000000000000000000e+00
7.699455280000000457e-01,-4.227266105610000047e+00,-1.447221582599999834e-01,-8.838755400439998411e+00,5.654094740750000535e-03,-4.342176020149999399e-03,-7.764764595780000158e-04,1.000000000000000000e+00
7.749856179999999872e-01,-4.280487408179999953e+00,-1.542205476359999883e-01,-8.836332557200000437e+00,-1.398450043050000063e-02,4.034969024359999924e-04,2.854593098159999981e-02,1.000000000000000000e+00
7.799416120000000063e-01,-4.182586421399999921e+00,-1.735497184129999870e-01,-8.885272821460000969e+00,-3.397268010300000165e-03,-1.719095557929999768e-02,-9.970423765479999659e-03,1.000000000000000000e+00
7.849797029999999731e-01,-4.241168081969999726e+00,-1.484012851640000019e-01,-8.849604126710000074e+00,-7.842463441190000370e-03,5.915994290260000003e-03,1.159054925670000144e-03,1.000000000000000000e+00
7.899653220000000253e-01,-4.180686725259999292e+00,-1.697056102059999738e-01,-8.828597579039998422e+00,-2.135082613679999998e-03,-1.094856485719999939e-02,-7.712981663640000422e-03,1.000000000000000000e+00
7.949601929999999816e-01,-4.225384529639999442e+00,-1.625984268150000023e-01,-8.838898023780000557e+00,-2.046342566609999844e-02,-5.810004658999999225e-03,-2.292241435500000195e-03,1.000000000000000000e+00
7.999632079999999812e-01,-4.268274992340000296e+00,-1.518522293359999831e-01,-8.846458814419998262e+00,3.549889661370000081e-03,-2.535445382820000412e-03,9.823621250690001139e-03,1.000000000000000000e+00
8.049993979999999771e-01,-4.232376580490000428e+00,-1.627072940169999871e-01,-8.865356407110001058e+00,-8.834281470629999741e-05,2.237791195509999996e-04,1.689855707809999937e-03,1.000000000000000000e+00
8.099853989999999948e-01,-4.192271656850000028e+00,-1.791570003689999802e-01,-8.829158720049999687e+00,-1.173991058020000186e-02,5.512164440010000610e-03,-1.111490186299999954e-02,1.000000000000000000e+00
8.149912400000000057e-01,-4.259930942369999585e+00,-1.697571759959999871e-01,-8.847932978630000278e+00,6.680124904960000123e-03,3.402240574360000484e-03,3.917613066729999476e-03,1.000000000000000000e+00
8.200335850000000093e-01,-4.252151832800000086e+00,-1.469185083940000025e-01,-8.820636390900000734e+00,-5.704646930100000339e-03,2.121068537240000142e-03,1.460139732809999889e-02,1.000000000000000000e+00
8.249911599999999456e-01,-4.164761134109999929e+00,-1.506285875579999878e-01,-8.830604827210001062e+00,-1.264431234450000101e-02,2.794049214570000061e-03,-1.138718705620000125e-02,1.000000000000000000e+00
8.299426300000000145e-01,-4.234576136359999410e+00,-1.447061569729999886e-01,-8.827490494580001013e+00,-6.538264919070000021e-03,1.576352864500000063e-03,5.593630485239999700e-03,1.000000000000000000e+00
8.349818460000000275e-01,-4.213198417290000108e+00,-1.340138268390000109e-01,-8.838803331230000282e+00,4.491711733860000015e-04,-3.016619477419999699e-03,-4.542053211480000176e-04,1.000000000000000000e+00
8.399767200000000100e-01,-4.245314095730000403e+00,-9.351671641599999807e-02,-8.828623298000000119e+00,-7.060560397799999985e-03,-7.365076337010000550e-03,1.449225004759999852e-02,1.000000000000000000e+00
8.450599840000000418e-01,-4.217703912010000167e+00,-1.722721910249999933e-01,-8.865666788239998652e+00,2.555263694380000439e-03,8.704673498870000442e-03,5.509680137040000314e-03,1.000000000000000000e+00
8.500197080000000405e-01,-4.200184914200000286e+00,-1.283195424540000129e-01,-8.858596995980001054e+00,8.201058022680000892e-03,1.761949807409999777e-02,4.439670592550000114e-03,1.000000000000000000e+00
8.549969419999999820e-01,-4.222856472470000178e+00,-1.423137180120000178e-01,-8.840776092609999637e+00,-2.300328109409999645e-03,-6.508683785800000073e-03,-2.855511382219999821e-03,1.000000000000000000e+00
8.599478109999999509e-01,-4.165483310910000014e+00,-1.449262751310000097e-01,-8.846994820990000008e+00,-1.286236662420000253e-02,-5.764290690419999206e-04,-1.381085906179999913e-02,1.000000000000000000e+00
8.650275160000000518e-01,-4.269777505859999600e+00,-1.544246005739999816e-01,-8.862400479919999796e+00,1.545446924869999829e-03,4.631737712770000494e-03,6.958034820850000045e-03,1.000000000000000000e+00
8.699289780000000194e-01,-4.225226708730000169e+00,-1.212226521279999997e-01,-8.874549182870000053e+00,2.084018196910000006e-03,7.298338692639999743e-03,4.658339545130000224e-03,1.000000000000000000e+00
8.749536060000000504e-01,-4.241556496760000350e+00,-1.448470724139999943e-01,-8.863107166880000776e+00,-1.008912920950000118e-02,-7.025754544880000001e-03,1.355197979140000241e-03,1.000000000000000000e+00
8.799274929999999495e-01,-4.213333441840000582e+00,-1.554717715399999978e-01,-8.843480090870000865e+00,1.250222790990000114e-03,-1.126222871239999923e-02,-3.586544888090000081e-03,1.000000000000000000e+00
8.849748870000000434e-01,-4.220284868419999391e+00,-1.457922351769999902e-01,-8.828925495820000080e+00,6.449435371909999215e-03,-1.709565985950000158e-03,-1.037437655029999940e-02,1.000000000000000000e+00
8.900141190000000480e-01,-4.214626988780000083e+00,-1.423287055189999817e-01,-8.824175086420000369e+00,-6.665630731730000022e-03,1.602796372029999987e-03,7.294726092370000395e-04,1.000000000000000000e+00
8.950142079999999778e-01,-4.224061172079999871e+00,-1.342809442089999972e-01,-8.868694027100000099e+00,-1.293053943660000052e-02,-1.578648015859999976e-02,1.397577347230000069e-03,1.000000000000000000e+00
8.999087300000000456e-01,-4.240957069569999405e+00,-1.649448986100000014e-01,-8.847550701310000321e+00,-7.752795703709999819e-03,-6.402701139449999516e-03,-5.246561486270000024e-04,1.000000000000000000e+00
9.049237430000000026e-01,-4.236433454659999320e+00,-1.921017490720000054e-01,-8.819096760239999000e+00,-1.022041216489999980e-02,-3.440707456320000329e-03,1.773805590349999831e-03,1.000000000000000000e+00
9.099566940000000104e-01,-4.210503186850000468e+00,-1.314506709530000039e-01,-8.814016095980001353e+00,3.104121657090000083e-03,-7.756941020490000158e-03,-1.321677118539999916e-03,1.000000000000000000e+00
9.149563880000000093e-01,-4.215994770010000003e+00,-1.508991024620000010e-01,-8.868321686659999870e+00,9.588340763000000521e-04,-6.747105624529999533e-03,-9.174484759569999023e-03,1.000000000000000000e+00
9.199438580000000032e-01,-4.195568652569999557e+00,-1.424628076259999987e-01,-8.844138847039999973e+00,1.139622181650000237e-03,-1.495345868170000134e-02,-1.330628711729999782e-02,1.000000000000000000e+00
9.249784989999999540e-01,-4.262972794280000421e+00,-1.542102271709999972e-01,-8.835139548029999901e+00,-9.496935643260000573e-03,-1.226885430510000173e-02,7.084423676129999493e-03,1.000000000000000000e+00
9.299853460000000460e-01,-4.223618396750000059e+00,-1.651867993410000013e-01,-8.866105764180000293e+00,-4.699231591079999944e-03,-3.699915949260000701e-03,7.884865626689999824e-03,1.000000000000000000e+00
9.350287059999999872e-01,-4.198301584669999365e+00,-1.580040116970000130e-01,-8.855774339779999949e+00,-1.780619472270000142e-02,5.390799138699999341e-03,1.950678648430000193e-03,1.000000000000000000e+00
9.399984750000000000e-01,-4.225332799459999400e+00,-1.711012658150000143e-01,-8.856901297980000365e+00,-4.034352488820000700e-03,3.840539138760000254e-04,1.030017901210000114e-02,1.000000000000000000e+00
9.450021520000000397e-01,-4.217473025869999503e+00,-1.257758219210000084e-01,-8.848444435279999354e+00,3.927402198309999475e-03,-8.612580131739999223e-04,7.096597924829999536e-03,1.000000000000000000e+00
9.499195889999999531e-01,-4.207541414439999627e+00,-1.711195686569999819e-01,-8.870412521460000477e+00,-8.981592953209998828e-03,-3.697768785059999796e-03,-7.675920613109998673e-03,1.000000000000000000e+00
9.549127050000000283e-01,-4.267501669880000570e+00,-1.282656203089999891e-01,-8.863758324269999989e+00,8.049010299150000450e-03,-1.443498954179999946e-02,1.153640169649999998e-02,1.000000000000000000e+00
9.599746930000000456e-01,-4.209022885169999562e+00,-1.544716180540000039e-01,-8.859414742110001129e+00,4.774290602649999826e-03,-1.513586938380000017e-02,1.170431170610000161e-02,1.000000000000000000e+00
9.650194970000000039e-01,-4.208410013969999142e+00,-1.698076092759999989e-01,-8.852773988919999226e+00,2.884651534260000184e-03,-5.701714195310000899e-03,1.680775312710000059e-03,1.000000000000000000e+00
9.699073550000000266e-01,-4.220443566110000155e+00,-1.806225794090000059e-01,-8.859109037160001421e+00,-7.742156274620000389e-03,-6.763920653609999979e-03,5.625856108960000136e-03,1.000000000000000000e+00
9.749305740000000498e-01,-4.171820989499999577e+00,-1.305399675830000161e-01,-8.837317476589999998e+00,1.056943926960000023e-02,-1.038150116799999891e-02,-6.236984394489999799e-03,1.000000000000000000e+00
9.799493599999999915e-01,-4.243892246239999722e+00,-1.484012760310000067e-01,-8.854061106119999636e+00,8.966642431909999447e-03,-8.741114288569998975e-03,7.843489293010001175e-04,1.000000000000000000e+00
9.849852180000000512e-01,-4.151684794919999533e+00,-1.354256115989999898e-01,-8.842714367200001035e+00,-8.454784750939999330e-03,-1.572133600710000009e-02,-9.800373576580000134e-03,1.000000000000000000e+00
9.899330969999999841e-01,-4.242569473199999663e+00,-1.314918980130000137e-01,-8.827702676030000362e+00,1.143935136500000109e-02,-2.998914569620000133e-03,-7.547143846750000058e-03,1.000000000000000000e+00
9.949688309999999980e-01,-4.272451985769999183e+00,-1.731382150030000011e-01,-8.829768960910000075e+00,2.125143632290000043e-02,-2.238688059149999965e-02,9.596869349479999686e-03,1.000000000000000000e+00
9.999984560000000355e-01,-4.171454494269999813e+00,-1.720177230730000062e-01,-8.830300875820000783e+00,1.970944460480000132e-03,-1.775746420029999939e-02,-1.559344492850000055e-02,1.000000000000000000e+00
1.004984942999999964e+00,-4.312271078200000218e+00,-1.682560141860000025e-01,-8.823283106019999877e+00,2.410330809649999847e-03,-1.037824153900000074e-02,1.214215997609999903e-02,1.000000000000000000e+00
1.009934933999999895e+00,-4.206099983459999692e+00,-1.613701088629999891e-01,-8.845297369430001666e+00,-5.356985609979999542e-03,-7.968778721990000050e-03,-5.689560435709999954e-03,1.000000000000000000e+00
1.014962611000000070e+00,-4.218551468750000311e+00,-1.289849475599999795e-01,-8.804457994039999846e+00,-1.783216488550000162e-03,-2.111029997470000377e-02,-5.256096832449999590e-03,1.000000000000000000e+00
1.019899563000000065e+00,-4.283982849080000932e+00,-1.373650734950000174e-01,-8.818183737050000914e+00,2.743184100840000486e-03,-1.379841193560000026e-02,1.930013112720000215e-02,1.000000000000000000e+00
1.024978386999999991e+00,-4.225094606789999929e+00,-1.554579987429999810e-01,-8.847833025379999938e+00,-5.519235273820000034e-04,-1.341044902800000126e-02,1.302983332429999939e-02,1.000000000000000000e+00
1.030024829000000031e+00,-4.200434797299999801e+00,-1.534496728610000027e-01,-8.885211446659999623e+00,2.221275120969999975e-02,-2.079678699370000189e-02,8.584039751440000407e-04,1.000000000000000000e+00
1.035023572000000058e+00,-4.235196314080000413e+00,-1.446659710930000009e-01,-8.837214016209999912e+00,1.566293463110000200e-02,-9.789146482940000796e-03,4.502546507869998943e-04,1.000000000000000000e+00
1.039970698000000082e+00,-4.260604603840000060e+00,-1.496960102830000028e-01,-8.872683389000000531e+00,1.689418219030000123e-03,-2.145816944540000076e-02,8.027482777830000776e-03,1.000000000000000000e+00
1.044918267999999983e+00,-4.228007863880000272e+00,-1.254169528799999878e-01,-8.822313968719999622e+00,1.385990530250000080e-03,-3.598325327040000077e-02,-8.671510033309999185e-03,1.000000000000000000e+00
1.049925892000000083e+00,-4.266479925619999669e+00,-1.505414298649999927e-01,-8.829941979380000916e+00,-7.139386143539999501e-03,-3.023187862709999889e-03,5.613043904300000185e-03,1.000000000000000000e+00
1.055013903000000086e+00,-4.239731619430000542e+00,-1.635893923479999901e-01,-8.822894398960000828e+00,3.105247626080000125e-03,-1.668387325480000065e-03,9.823189117010000179e-03,1.000000000000000000e+00
1.059998237000000065e+00,-4.189686316530000454e+00,-1.209910901290000007e-01,-8.843814437389999839e+00,-5.811155308039999898e-03,-1.430006697769999925e-02,-5.671327468009999991e-03,1.000000000000000000e+00
1.064991411999999915e+00,-4.265239570169999439e+00,-1.338303691640000126e-01,-8.828492949619999308e+00,1.982259098440000179e-03,-8.417394012210000290e-03,1.409871736539999821e-03,1.000000000000000000e+00
1.069994015000000021e+00,-4.223894583349999898e+00,-1.181034697949999990e-01,-8.790929819419998736e+00,3.915178589519999718e-03,-2.221004292369999772e-02,-3.864748636259999863e-03,1.000000000000000000e+00
1.075064908999999957e+00,-4.251080111909999459e+00,-1.549134435370000118e-01,-8.786859793510000571e+00,-6.676734425129999921e-03,-1.019657496360000005e-02,7.631022017450000321e-04,1.000000000000000000e+00
1.079897789000000108e+00,-4.240850102059999571e+00,-1.253619530230000167e-01,-8.808523343780001014e+00,4.789317492399999647e-03,5.579145159569999339e-03,-2.224764320999999753e-04,1.000000000000000000e+00
1.084920590000000074e+00,-4.248520782819999120e+00,-1.453748956810000104e-01,-8.794549763490000061e+00,8.691233582789999884e-03,-1.369614712889999884e-02,-9.643144905569998523e-03,1.000000000000000000e+00
1.089868080000000017e+00,-4.290228465480000253e+00,-1.765398584059999776e-01,-8.818447940949999619e+00,-6.975895259529999240e-03,-1.673793978989999987e-02,6.793073378499999739e-03,1.000000000000000000e+00
1.094986537999999898e+00,-4.215575375550000281e+00,-1.681172815689999933e-01,-8.807741253490000588e+00,-1.825375854969999920e-02,7.730554323639999940e-03,-1.536049880089999931e-02,1.000000000000000000e+00
1.099982844999999987e+00,-4.274571754400000145e+00,-1.262256937130000201e-01,-8.770379783350000125e+00,6.316553335640000960e-03,-2.840232569720000169e-03,1.503620063890000061e-03,1.000000000000000000e+00
1.105047949999999890e+00,-4.264336191589999991e+00,-1.072908468820000100e-01,-8.773469566060001057e+00,-5.788704380390000299e-03,-6.952535826710000075e-03,2.306488156319999941e-02,1.000000000000000000e+00
1.109941714999999940e+00,-4.238949529140000116e+00,-1.202974544420000041e-01,-8.788393578939999173e+00,-2.742698881779999723e-03,5.698928143829999800e-03,2.268946031109999976e-03,1.000000000000000000e+00
1.114925305999999949e+00,-4.273712799480000157e+00,-1.264251161419999991e-01,-8.805326009039999846e+00,-1.554487645629999866e-02,-2.002567611630000008e-02,4.005956463519999913e-03,1.000000000000000000e+00
1.119966827000000054e+00,-4.272246234059999814e+00,-1.361206811910000147e-01,-8.826689699590000160e+00,1.612101914359999940e-03,-7.217609323560000671e-03,4.272491671140000134e-03,1.000000000000000000e+00
1.124925879999999934e+00,-4.229371845709999356e+00,-1.207194061810000080e-01,-8.813889254730000289e+00,-1.082732249050000033e-02,-8.088255301119999519e-03,7.226409390569999563e-03,1.000000000000000000e+00
1.129998690999999944e+00,-4.241488399959999711e+00,-1.314861532580000048e-01,-8.831002302089999034e+00,-1.148730982099999826e-02,8.293621242050000855e-03,4.043754190209999759e-03,1.000000000000000000e+00
1.134946113000000034e+00,-4.241868631450000038e+00,-1.589937899200000171e-01,-8.843103658769999598e+00,-1.542785111810000137e-02,2.300804946569999943e-03,7.521999068560001125e-03,1.000000000000000000e+00
1.139903786999999946e+00,-4.249739218700000265e+00,-1.183831726520000044e-01,-8.828716821500000478e+00,1.157966325989999852e-04,1.509339921179999808e-02,8.659400977190000182e-03,1.000000000000000000e+00
1.144996217000000094e+00,-4.239459816750000165e+00,-1.319011455340000083e-01,-8.876503239550000757e+00,-1.132863922980000167e-03,-1.696011633609999843e-03,7.425278425220001137e-03,1.000000000000000000e+00
1.149941375000000043e+00,-4.287979517500000171e+00,-1.290261198200000070e-01,-8.831515512310000204e+00,-8.057979866860000284e-03,2.389237284659999783e-03,1.576652936639999850e-02,1.000000000000000000e+00
1.154962413000000021e+00,-4.246224780839999546e+00,-1.063250249240000056e-01,-8.814179762110001093e+00,-6.573187652979999365e-03,4.458793904630000207e-03,9.739647619430000930e-03,1.000000000000000000e+00
1.159943028999999903e+00,-4.233974078810000208e+00,-1.291373342430000015e-01,-8.837932978139999562e+00,7.883459329609999663e-03,6.607790943239999666e-03,-1.534538110720000013e-03,1.000000000000000000e+00
1.164980844000000015e+00,-4.274764354360000240e+00,-1.422643807110000047e-01,-8.845973661249999509e+00,-1.980787143109999718e-02,2.447498030959999529e-02,4.209568724040000168e-03,1.000000000000000000e+00
1.169957512000000088e+00,-4.207182810259999961e+00,-9.563965425359999273e-02,-8.805487921610000157e+00,-1.670292345809999864e-03,1.152185723190000087e-02,-8.201604709029999135e-03,1.000000000000000000e+00
1.174932665999999903e+00,-4.264345836200000406e+00,-1.268607402140000118e-01,-8.853213549380001268e+00,2.363620093089999988e-03,2.387068048119999827e-02,-8.260589092970000227e-03,1.000000000000000000e+00
1.179939746000000067e+00,-4.193135580209999880e+00,-1.021296007950000112e-01,-8.860834545780001292e+00,8.453373797239999848e-03,-8.053991943600000147e-03,-1.881495863200000063e-02,1.000000000000000000e+00
1.184976765000000043e+00,-4.288111619449999523e+00,-9.712700673450000433e-02,-8.843404103030000130e+00,-3.547027241439999843e-03,8.459944278000000248e-03,5.699680186810000132e-03,1.000000000000000000e+00
1.189897629999999928e+00,-4.256160483919999571e+00,-1.387193924479999951e-01,-8.850632300710001843e+00,2.071293443440000090e-02,-3.174763405699999787e-03,-4.607334267350000467e-04,1.000000000000000000e+00
1.194945193999999988e+00,-4.220998861900000065e+00,-1.388547275310000051e-01,-8.849432861799998662e+00,4.250259604309999766e-03,9.448375552889999585e-03,-3.805440152060000220e-03,1.000000000000000000e+00
1.199950738999999933e+00,-4.226908085949999894e+00,-1.543787521389999862e-01,-8.853136977010001019e+00,-2.381943538780000036e-02,3.636198583989999795e-03,-1.454260200259999977e-06,1.000000000000000000e+00
1.204972230999999949e+00,-4.257457245730000395e+00,-1.375404665949999938e-01,-8.838461385930001413e+00,-5.044718272979998967e-03,1.044560037550000021e-02,1.099891401829999893e-02,1.000000000000000000e+00
1.209960756000000082e+00,-4.218392771060000435e+00,-1.613357316700000099e-01,-8.842806721649999702e+00,1.290712039920000054e-02,-8.804172277450001208e-03,-2.392002847050000297e-03,1.000000000000000000e+00
1.214919918000000099e+00,-4.219167554820000277e+00,-1.352822302059999982e-01,-8.849425263010001430e+00,2.532268641520000162e-03,1.850625686349999938e-02,-7.249404210600001071e-03,1.000000000000000000e+00
1.219922490999999942e+00,-4.284255528550000136e+00,-1.767049310409999907e-01,-8.841990144569999543e+00,6.155990529810000632e-03,1.043315418060000027e-02,6.156775634740000109e-04,1.000000000000000000e+00
1.224862708999999938e+00,-4.242637862260000503e+00,-1.192629694280000069e-01,-8.788465475139998873e+00,-1.655100262720000113e-03,1.225959323349999977e-02,3.671036334710000085e-03,1.000000000000000000e+00
1.229924811000000062e+00,-4.219015871389999894e+00,-1.494518627960000068e-01,-8.834052921830000571e+00,3.242110833530000100e-03,1.497933268549999850e-02,2.911198651420000231e-03,1.000000000000000000e+00
1.234932101999999920e+00,-4.213871201979999981e+00,-1.244856177129999852e-01,-8.843228746459999456e+00,-2.323776483540000194e-03,6.264783907680000069e-03,-1.004156190900000120e-02,1.000000000000000000e+00
1.239952691999999912e+00,-4.268067779329999922e+00,-1.008382184110000052e-01,-8.858952969809999800e+00,-6.676864810290000264e-03,1.453904435039999818e-02,5.421692505479999528e-03,1.000000000000000000e+00
1.244966698999999899e+00,-4.236114305710000139e+00,-1.161123142439999950e-01,-8.840697182150000444e+00,6.348526803780000193e-04,1.192886196079999926e-02,2.227907534690000012e-04,1.000000000000000000e+00
1.249980488000000056e+00,-4.241896396240000477e+00,-1.221975433089999979e-01,-8.856194026489999871e+00,8.010784164069998867e-03,-1.066817715759999993e-02,-1.491228351369999977e-03,1.000000000000000000e+00
1.254968376000000108e+00,-4.250531245859999530e+00,-1.148301563460000091e-01,-8.829971790000000098e+00,-6.198308896270000520e-03,1.844429597259999998e-02,6.867058109490000286e-04,1.000000000000000000e+00
1.259945448999999940e+00,-4.270393007410000052e+00,-1.387022129839999840e-01,-8.847158487119999748e+00,-8.085841313000000780e-03,-2.513101790099999972e-03,3.618389600890000151e-03,1.000000000000000000e+00
1.264985682999999916e+00,-4.192767623680000000e+00,-1.306179007900000189e-01,-8.851282289049999363e+00,8.123112842439999745e-03,6.101600360130000900e-03,-3.684618743140000239e-03,1.000000000000000000e+00
1.269960452999999934e+00,-4.217334201919999970e+00,-1.458747897609999900e-01,-8.834010836260000943e+00,3.275589551780000355e-03,6.261966191230000254e-04,-6.494239903989999785e-03,1.000000000000000000e+00
1.274945897999999911e+00,-4.255092854689999982e+00,-1.352592694560000031e-01,-8.853707470379999833e+00,1.309989206490000044e-02,9.589472785589999229e-03,-1.582304015759999948e-03,1.000000000000000000e+00
1.279986821000000052e+00,-4.217016514270000016e+00,-1.233307029240000019e-01,-8.845728746580000745e+00,1.522516924889999977e-02,1.700084190820000136e-03,-1.109520625320000072e-02,1.000000000000000000e+00
1.284964011000000017e+00,-4.272511607000000211e+00,-1.170585729849999979e-01,-8.816553505499999943e+00,8.442313410339999727e-03,-2.138996729630000294e-03,-2.591849770400000107e-03,1.000000000000000000e+00
1.289885712000000018e+00,-4.207017390559999903e+00,-1.196091981829999901e-01,-8.824529306689999686e+00,4.301903303710000008e-03,1.129252836109999889e-03,-1.287193410099999984e-02,1.000000000000000000e+00
1.294931862000000100e+00,-4.244655924080000808e+00,-1.460948622519999962e-01,-8.862429121489999062e+00,9.397397516299999757e-04,1.874360442159999848e-02,-5.451453384010000215e-03,1.000000000000000000e+00
1.299912560999999966e+00,-4.208805150759999947e+00,-1.719741396599999694e-01,-8.827741254470000243e+00,-6.624382454900000321e-03,-3.058151341970000549e-04,-1.464533340189999935e-02,1.000000000000000000e+00
1.304936893999999903e+00,-4.230368455539999850e+00,-1.590476572650000031e-01,-8.851313853239998863e+00,5.180526059120000096e-03,9.844861924650000554e-03,-1.948081515729999796e-02,1.000000000000000000e+00
1.309904183000000000e+00,-4.259135992600000087e+00,-1.912311037180000062e-01,-8.863874059600000521e+00,9.558561723680000181e-04,2.684105653320000093e-03,-1.542323082690000118e-02,1.000000000000000000e+00
1.314924160999999980e+00,-4.226905455599999861e+00,-1.493188840659999961e-01,-8.819669591700000311e+00,1.233434211460000124e-02,3.626858815550000202e-04,-1.336055994029999860e-02,1.000000000000000000e+00
1.319924158000000070e+00,-4.223656390680000428e+00,-1.604067071910000031e-01,-8.852595709739999208e+00,7.511490024630000303e-03,1.616346277300000078e-02,9.405442979189999886e-04,1.000000000000000000e+00
1.324975041000000076e+00,-4.193664280259999266e+00,-1.389774131959999881e-01,-8.853709223939999262e+00,2.746815793219999774e-03,6.304000038649999575e-03,-4.147590138019999553e-03,1.000000000000000000e+00
1.329899087000000035e+00,-4.241575201469999890e+00,-1.591519944219999816e-01,-8.859907494059999777e+00,5.116475280369999455e-03,6.539290305229998948e-03,9.865819010880000524e-04,1.000000000000000000e+00
1.334894894000000054e+00,-4.177306727430000421e+00,-1.470939106259999962e-01,-8.832000080960000332e+00,1.065266039220000120e-02,1.239693164829999868e-02,-1.552574150260000070e-02,1.000000000000000000e+00
1.339872519999999900e+00,-4.234010026910000057e+00,-1.971834179839999923e-01,-8.851614882010000684e+00,7.538947276769999983e-03,-3.226566594090000007e-03,-8.450187742710000768e-03,1.000000000000000000e+00
1.344933651999999924e+00,-4.214218115719999602e+00,-2.162123271739999908e-01,-8.847011772130001006e+00,2.205180749299999812e-02,-4.430949222300000455e-03,-6.125895306470000544e-03,1.000000000000000000e+00
1.349930002000000018e+00,-4.202813801389999604e+00,-1.603127270309999963e-01,-8.836279950230000679e+00,5.645035300399999650e-03,1.811832189560000058e-03,4.281025379899999414e-03,1.000000000000000000e+00
1.354953877000000029e+00,-4.203134411649999791e+00,-1.409777475669999891e-01,-8.808467814200000134e+00,2.013811096550000013e-02,-2.099750330670000116e-03,5.898893810810001276e-03,1.000000000000000000e+00
1.359919294000000001e+00,-4.197247107180000825e+00,-1.467110031230000056e-01,-8.795657432469999648e+00,6.898885127159999978e-03,-6.038012448699999618e-03,-1.015533134339999949e-02,1.000000000000000000e+00
1.364908521999999902e+00,-4.243914458069999895e+00,-1.851493543849999923e-01,-8.838376045730001351e+00,8.011749014259999732e-03,-8.507158607240000378e-03,-1.572532113640000154e-03,1.000000000000000000e+00
1.369907436000000089e+00,-4.205931056630000775e+00,-1.613288818040000128e-01,-8.831611373899999506e+00,-7.950240746140001258e-03,2.080111764369999960e-03,-8.489970117810000799e-03,1.000000000000000000e+00
1.375045583999999987e+00,-4.184927723830000446e+00,-1.566668082769999970e-01,-8.840171696980000604e+00,3.741133492440000020e-03,5.373205523939999714e-03,-2.303735166790000025e-02,1.000000000000000000e+00
1.379872476999999931e+00,-4.235046676479999661e+00,-1.601441655309999990e-01,-8.831655213039999452e+00,1.125724241139999977e-02,-2.468794118610000143e-03,-1.448973175140000000e-02,1.000000000000000000e+00
1.384922256000000074e+00,-4.188782353430000605e+00,-1.105006118419999961e-01,-8.856662228530000291e+00,8.099670521910000897e-04,1.118502765889999896e-02,-1.573495194320000123e-02,1.000000000000000000e+00
1.389877966000000020e+00,-4.236672231850000081e+00,-1.592517467359999828e-01,-8.868467232609999584e+00,6.622637622060000527e-03,5.578962154690000636e-04,-9.453741833569999364e-03,1.000000000000000000e+00
1.394923466000000056e+00,-4.205731442410000298e+00,-1.354794424119999952e-01,-8.864296668930000678e+00,6.110681220890000487e-03,-1.030894555150000010e-02,-1.142589747910000182e-02,1.000000000000000000e+00
1.399911123000000090e+00,-4.223631840759999534e+00,-1.626570616680000081e-01,-8.849373825089999812e+00,1.474058348689999930e-02,-2.001834660770000079e-02,-1.146547496320000220e-02,1.000000000000000000e+00
1.404868980000000045e+00,-4.219969226599999956e+00,-1.928516906569999745e-01,-8.896119209650001025e+00,8.508984930810000943e-03,3.434429876510000125e-03,-5.756385624410000415e-03,1.000000000000000000e+00
1.409897318999999927e+00,-4.192481792469999746e+00,-1.578482366139999926e-01,-8.847903168010001096e+00,1.896576210859999764e-02,-6.838229950520000738e-03,-2.712529897690000094e-02,1.000000000000000000e+00
1.414876089999999920e+00,-4.276983199450000050e+00,-1.492181819040000190e-01,-8.812217522120000979e+00,4.499283153560000408e-03,-1.326315850020000006e-02,-4.681142512710000439e-03,1.000000000000000000e+00
1.419951178999999897e+00,-4.205407909539999878e+00,-1.480036458819999901e-01,-8.809805784810000873e+00,2.618262171750000353e-02,-1.582197844979999846e-03,-1.932566612959999916e-02,1.000000000000000000e+00
1.424895918000000039e+00,-4.284863723570000005e+00,-1.279848945389999992e-01,-8.840450513920000475e+00,1.544079836460000160e-02,-6.690386217090000046e-03,-2.489874139430000091e-03,1.000000000000000000e+00
1.429921667999999979e+00,-4.208250731749999751e+00,-1.970574717839999879e-01,-8.841741722769999257e+00,5.896909162399999356e-03,-2.605562796820000242e-03,-1.430449355389999851e-02,1.000000000000000000e+00
1.434925940999999927e+00,-4.249913990739999647e+00,-1.645163527329999986e-01,-8.799716936989998572e+00,2.081563696270000152e-02,-3.174116369340000254e-03,-1.370028872039999977e-02,1.000000000000000000e+00
1.439866400999999962e+00,-4.217001024440000023e+00,-1.409182450660000085e-01,-8.814701740149999409e+00,2.077811211349999895e-02,4.857483785600000097e-03,-2.116132713850000027e-02,1.000000000000000000e+00
1.444991963000000101e+00,-4.251586600130000448e+00,-1.765515488439999836e-01,-8.809621660410000388e+00,7.602241821589999192e-03,-2.126445993779999943e-03,-1.188700273629999908e-02,1.000000000000000000e+00
1.449916632999999955e+00,-4.226323564059999427e+00,-2.042345968710000126e-01,-8.837544855599999138e+00,1.737216487529999812e-02,1.189603656529999998e-02,-3.557590302079999701e-03,1.000000000000000000e+00
1.454894533999999906e+00,-4.218823855950000201e+00,-1.935560943330000006e-01,-8.840046609289998969e+00,1.273399125779999842e-02,6.857521366330000291e-03,1.641054870559999820e-03,1.000000000000000000e+00
1.459912252999999938e+00,-4.233201340869999107e+00,-1.982926578680000163e-01,-8.842081914510000473e+00,-5.108959507199999604e-03,9.346207603810000736e-03,8.638072758909999191e-03,1.000000000000000000e+00
1.464988310999999932e+00,-4.202104484080000368e+00,-1.967892493010000021e-01,-8.806271765460000012e+00,-7.448614574969999666e-03,1.922008115800000021e-03,-7.681981660429999803e-04,1.000000000000000000e+00
1.469872564999999964e+00,-4.219867227529999987e+00,-1.814841464079999800e-01,-8.834320048340000398e+00,1.160171441729999919e-02,8.395679295060000380e-03,-1.323079038410000102e-02,1.000000000000000000e+00
1.474912929999999900e+00,-4.247817018459999261e+00,-1.492364756129999914e-01,-8.825728745599999314e+00,-1.087501877920000201e-03,5.125498864800000741e-03,-1.970613747840000221e-02,1.000000000000000000e+00
1.479868541999999954e+00,-4.244537850659999556e+00,-1.514592114299999903e-01,-8.793323436559999706e+00,4.069287329909999917e-03,-5.325899459420000565e-03,-1.013601291920000064e-02,1.000000000000000000e+00
1.484910162999999894e+00,-4.297402887149999628e+00,-1.624965373439999916e-01,-8.839237630999999595e+00,-2.863875124599999798e-04,-5.666155833750000440e-03,1.708333380519999958e-02,1.000000000000000000e+00
1.490003605000000064e+00,-4.152636981080000567e+00,-1.756133181459999804e-01,-8.832712613139998226e+00,-7.866526022550000483e-03,5.074693355710000429e-03,-1.679637655620000100e-02,1.000000000000000000e+00
1.494966556999999918e+00,-4.246311582340000612e+00,-1.482237640400000112e-01,-8.833767090630001206e+00,-6.316571030770000254e-03,4.064180888239999484e-03,-8.792686276139998966e-03,1.000000000000000000e+00
1.499951245999999960e+00,-4.246110214549999817e+00,-1.327788508169999993e-01,-8.831779716210000686e+00,9.809235110879999109e-03,-1.840420416559999765e-03,4.118798300619999284e-03,1.000000000000000000e+00
1.504907137000000006e+00,-4.182802109979999905e+00,-1.304873697460000037e-01,-8.841374643019999979e+00,-8.709415793419999705e-03,6.877861451360000244e-04,-1.463228557260000222e-02,1.000000000000000000e+00
1.509936321000000081e+00,-4.222743075219999476e+00,-1.482295270599999770e-01,-8.826010485150000306e+00,5.148835945869999556e-03,-1.360608264799999939e-02,-8.263370953500000227e-03,1.000000000000000000e+00
1.514978034000000084e+00,-4.241704380799999896e+00,-1.554295033009999993e-01,-8.844273287080000046e+00,3.306390717629999892e-03,9.782280772920001408e-03,-5.732237361370000166e-03,1.000000000000000000e+00
1.519896826000000090e+00,-4.263838763459999903e+00,-1.659715930430000208e-01,-8.832932393369999247e+00,3.716852981600000157e-03,2.711373846979999586e-03,-1.137705985459999984e-03,1.000000000000000000e+00
1.524889683999999912e+00,-4.196712854170000284e+00,-1.826402393739999797e-01,-8.819572561060001092e+00,1.039749593469999891e-03,-4.663473926479999934e-03,-1.197475194930000021e-02,1.000000000000000000e+00
1.529873870999999941e+00,-4.275521602469999571e+00,-1.658271430709999938e-01,-8.816232602979999555e+00,-1.522443164140000089e-02,-6.916147656740000149e-03,-1.398755703119999947e-03,1.000000000000000000e+00
1.534919869000000103e+00,-4.261320935419999678e+00,-1.944758943250000094e-01,-8.834645627030001336e+00,-2.010587602849999919e-02,5.382772069419999340e-03,-6.256307475270000452e-03,1.000000000000000000e+00
1.539890057999999895e+00,-4.204210808710000080e+00,-1.875075348840000156e-01,-8.829287314869999292e+00,1.362813450399999980e-02,5.086569115520000670e-03,-9.663609787820000296e-03,1.000000000000000000e+00
1.544908018999999966e+00,-4.220589404320000071e+00,-1.569077408929999973e-01,-8.864290823710000211e+00,5.357974674550000649e-03,1.321268826720000018e-02,-1.466698944569999911e-03,1.000000000000000000e+00
1.549911953000000064e+00,-4.180670066390000272e+00,-1.210233849630000108e-01,-8.841831154619999467e+00,-1.122265821319999969e-03,-1.132367923860000056e-02,-1.451666653159999938e-02,1.000000000000000000e+00
1.554930295999999990e+00,-4.242610097470000063e+00,-1.128885298920000030e-01,-8.867858160800000888e+00,5.644506774839999977e-03,-9.408226236700000314e-03,-8.370068389919999539e-04,1.000000000000000000e+00
1.559895043999999897e+00,-4.206261896020000002e+00,-1.082127109679999893e-01,-8.876314438979999721e+00,8.236287161709999680e-03,-5.561071448029999281e-03,-4.443327430640000610e-03,1.000000000000000000e+00
1.564847324999999900e+00,-4.208437194230000067e+00,-1.058685041950000044e-01,-8.878823206930000822e+00,-2.203921554610000031e-03,3.014858812090000207e-04,-5.094911903139999997e-03,1.000000000000000000e+00
1.569838591999999977e+00,-4.161529897109999432e+00,-1.640653940960000168e-01,-8.858830804740000175e+00,3.882168326530000164e-03,-9.051050292330000422e-04,-1.730122044679999888e-02,1.000000000000000000e+00
1.574837653999999976e+00,-4.261753773879999763e+00,-1.506138375139999819e-01,-8.836064261660000696e+00,1.723325625059999797e-02,6.410549394789999715e-04,-2.667118329549999708e-03,1.000000000000000000e+00
1.579926272000000020e+00,-4.196411240880000726e+00,-1.496549567530000013e-01,-8.856770365080000929e+00,7.847187109290000920e-03,3.126225434239999698e-03,-1.404854748399999957e-02,1.000000000000000000e+00
1.584987332999999943e+00,-4.225097237130000849e+00,-1.802558832549999990e-01,-8.822889722789998501e+00,1.554015092549999736e-03,-6.655274191869999575e-04,-1.527875382449999861e-02,1.000000000000000000e+00
1.589935485000000037e+00,-4.263275868880000097e+00,-1.670646124440000047e-01,-8.814361548409999969e+00,1.532427500929999832e-02,3.937392495569999595e-03,-1.802972983569999877e-03,1.000000000000000000e+00
1.594990885000000080e+00,-4.214143004659999470e+00,-1.946250022060000140e-01,-8.833550817529999932e+00,1.755216717720000166e-02,1.320724003020000252e-02,-8.139315061270000623e-03,1.000000000000000000e+00
1.599868421999999901e+00,-4.234638972459999984e+00,-1.634806530099999766e-01,-8.816495053310001495e+00,1.946220919490000353e-02,-3.437366569409999479e-03,-1.411836780610000071e-02,1.000000000000000000e+00
1.604954867000000007e+00,-4.232416035710000024e+00,-1.597178298780000116e-01,-8.794982309679999943e+00,1.329516898839999857e-02,3.378052264449999970e-03,-2.238752134140000252e-02,1.000000000000000000e+00
1.609921200999999913e+00,-4.250354720249999829e+00,-1.969818127309999889e-01,-8.830023227929999052e+00,-1.019407529380000031e-02,7.126295473430000436e-03,-9.058029390870001724e-03,1.000000000000000000e+00
1.614894998000000026e+00,-4.247266691110000103e+00,-2.007021666950000172e-01,-8.854556780680001182e+00,-1.085541490470000141e-02,9.180855005979999400e-03,-5.908972583710000656e-03,1.000000000000000000e+00
1.619960303000000046e+00,-4.211965952880000863e+00,-1.924069060310000245e-01,-8.843704547279999773e+00,1.879278803239999972e-03,2.930712886150000415e-03,-2.983384532849999750e-03,1.000000000000000000e+00
1.624942319000000079e+00,-4.229318361959999883e+00,-1.756545817379999985e-01,-8.841941044740000422e+00,2.467712387440000165e-03,2.505935728550000210e-03,-3.271037712689999974e-03,1.000000000000000000e+00
1.629992979000000064e+00,-4.196726005909999557e+00,-1.786155504359999979e-01,-8.904298424450001193e+00,3.534635063260000484e-03,1.554167456919999975e-02,-1.418562233449999904e-02,1.000000000000000000e+00
1.634940623000000093e+00,-4.223104602009999375e+00,-1.577714450500000143e-01,-8.830604242689998884e+00,1.646679639820000304e-02,8.514620363710000139e-03,-9.546119719740000717e-03,1.000000000000000000e+00
1.639932938000000062e+00,-4.246260728930000283e+00,-1.542528242039999942e-01,-8.838806838360000029e+00,7.561498321590000120e-03,-6.132109090689999084e-03,3.865308361130000061e-03,1.000000000000000000e+00
1.644929944999999893e+00,-4.212131080319999832e+00,-1.444403365109999948e-01,-8.805410764719999506e+00,-4.479028284550000232e-03,2.490191720429999617e-03,-1.216717530039999927e-03,1.000000000000000000e+00
1.649975661999999899e+00,-4.209750030400000398e+00,-1.325999962520000020e-01,-8.817046841979999883e+00,-1.824360340829999988e-03,1.371571235359999967e-02,-1.414075121279999812e-02,1.000000000000000000e+00
1.654926662000000048e+00,-4.220143414119999825e+00,-1.682470271620000180e-01,-8.816528371060000424e+00,7.965149357909999742e-03,-4.647365305569999515e-03,-2.632764726879999878e-02,1.000000000000000000e+00
1.659958328000000094e+00,-4.279064974159999757e+00,-1.812655900200000059e-01,-8.808602254239998430e+00,1.684699673210000121e-03,8.855558931829999800e-03,5.802896339450000105e-04,1.000000000000000000e+00
1.664924429999999900e+00,-4.199176613939999747e+00,-1.694012021660000200e-01,-8.810025565040000117e+00,-1.438285456969999902e-03,1.215266995130000020e-02,-1.070729829370000233e-02,1.000000000000000000e+00
1.669899895999999995e+00,-4.257735478149999864e+00,-1.780452762669999800e-01,-8.848817360249999098e+00,7.747468538580000452e-03,-5.895638372750000925e-03,5.294641479850000117e-03,1.000000000000000000e+00
1.674950383000000098e+00,-4.219390257659999754e+00,-1.646017842610000004e-01,-8.816084134419998719e+00,-2.609160263089999997e-03,-5.021415650840000376e-03,-9.078024886549998854e-03,1.000000000000000000e+00
1.679962772000000104e+00,-4.201660539709999753e+00,-1.497679338749999811e-01,-8.873346236819999788e+00,1.441965904089999827e-02,8.668497204780000950e-03,-1.353624369949999948e-02,1.000000000000000000e+00
1.684937241999999946e+00,-4.243641486349999603e+00,-1.471875345929999912e-01,-8.858457879770000432e+00,-1.162064727399999935e-02,1.641826331619999912e-02,-6.919527426359999359e-03,1.000000000000000000e+00
1.689948725000000040e+00,-4.200729104069999664e+00,-1.755407826330000198e-01,-8.827817826839998716e+00,-3.849585074930000125e-03,2.085156552490000093e-02,-1.199959963560000113e-02,1.000000000000000000e+00
1.694908862999999988e+00,-4.198174743419999189e+00,-2.199337771159999844e-01,-8.860524164650000145e+00,7.349482737479999007e-03,-3.263081191110000362e-03,-4.154898691920000213e-03,1.000000000000000000e+00
1.699924347000000058e+00,-4.207384762569999381e+00,-1.707329439599999665e-01,-8.818537372789998940e+00,1.562758162619999960e-02,5.074201151729999630e-03,-1.520238351080000069e-03,1.000000000000000000e+00
1.704889609000000084e+00,-4.190590571899999617e+00,-2.053019338419999895e-01,-8.828903283989999906e+00,2.007976174350000007e-03,7.478307466949999510e-03,-9.577610529959999786e-03,1.000000000000000000e+00
1.709930796000000086e+00,-4.247455491680000250e+00,-2.111761779039999787e-01,-8.838337467289999694e+00,-2.500018104909999643e-03,2.138973213730000183e-04,-1.066560298200000013e-02,1.000000000000000000e+00
1.714901706000000026e+00,-4.234574967310000382e+00,-2.065840643409999899e-01,-8.848543804000000179e+00,5.197859834880000189e-03,9.533772245049998775e-03,-7.315902970729999850e-03,1.000000000000000000e+00
1.719921832999999900e+00,-4.206765169369999668e+00,-2.235438756379999892e-01,-8.884200223789999740e+00,7.729869335890000165e-03,3.420084714889999513e-03,-1.833476871250000126e-02,1.000000000000000000e+00
1.724910761000000070e+00,-4.191803747079999809e+00,-1.710802960929999894e-01,-8.855724070890000021e+00,-4.867436364290000342e-04,2.038383670149999938e-02,-2.003631554540000193e-02,1.000000000000000000e+00
1.729884503000000073e+00,-4.242109454469999541e+00,-1.544001602529999906e-01,-8.866768027480000924e+00,1.277578249569999956e-02,6.960135418920000358e-03,-1.366107631470000160e-02,1.000000000000000000e+00
1.734928228000000017e+00,-4.231816023989999564e+00,-1.720849978890000020e-01,-8.848739034310000307e+00,8.939729072149999942e-03,1.544795185329999980e-02,-1.265289075670000124e-02,1.000000000000000000e+00
1.739928023999999906e+00,-4.193437193500000326e+00,-2.055404187730000276e-01,-8.848546726609999524e+00,1.793777942659999930e-02,-3.302672645079999820e-03,-9.528481401500000017e-03,1.000000000000000000e+00
1.744861098000000110e+00,-4.232570349490000439e+00,-2.469471274539999928e-01,-8.847675204470000665e+00,1.504629151899999906e-03,6.026236806059999916e-03,-1.729215867820000155e-02,1.000000000000000000e+00
1.749966123999999956e+00,-4.235188130780000115e+00,-2.457807688219999787e-01,-8.838944785529999848e+00,9.470736607910000548e-03,2.008865214879999861e-02,-9.665603749450000365e-03,1.000000000000000000e+00
1.754951689000000092e+00,-4.177357288580000549e+00,-2.438951377389999842e-01,-8.880600153479999648e+00,1.324342098090000065e-02,4.182919394219999747e-03,-1.265946310010000048e-02,1.000000000000000000e+00
1.759959386000000015e+00,-4.202418372340000374e+00,-2.248031915170000117e-01,-8.876923510790000194e+00,-1.499667065219999857e-03,1.057944633069999966e-02,-6.983984261750000519e-03,1.000000000000000000e+00
1.764978436000000039e+00,-4.183289893500000467e+00,-2.257723836090000102e-01,-8.848495873210001861e+00,1.175165548919999969e-02,9.192846715450000636e-03,-7.368190214040000290e-03,1.000000000000000000e+00
1.769949001999999938e+00,-4.227232787860000229e+00,-2.614962608810000311e-01,-8.869734476070000539e+00,2.040874585510000019e-02,-1.064746081829999989e-02,-5.805194377899999987e-03,1.000000000000000000e+00
1.774916833000000027e+00,-4.176444849910000201e+00,-2.534072999120000058e-01,-8.882737750029999546e+00,1.533944252879999859e-02,6.748147774489999390e-03,-1.239534746860000008e-02,1.000000000000000000e+00
1.779939750999999903e+00,-4.204641893599999847e+00,-2.428308329759999995e-01,-8.891589164999999184e+00,1.379760634150000061e-02,4.933902528140000042e-03,2.785358810800000421e-03,1.000000000000000000e+00
1.784916692999999999e+00,-4.126815434340000088e+00,-2.204656007040000087e-01,-8.904667257759999899e+00,2.998515963550000066e-02,-4.443360958250000547e-03,-4.468835890290000570e-03,1.000000000000000000e+00
1.789957723999999972e+00,-4.143127102190000244e+00,-1.319707493040000179e-01,-8.870443501120000462e+00,1.684548333290000061e-02,5.728574935349999876e-03,-2.885689586400000048e-02,1.000000000000000000e+00
1.794962485999999968e+00,-4.163022766010000097e+00,-1.236066977209999973e-01,-8.845696013360001331e+00,7.857115939260000959e-03,-2.336838282640000403e-02,-1.798769459129999707e-02,1.000000000000000000e+00
1.799948727999999942e+00,-4.173087356169999929e+00,-1.403715801010000097e-01,-8.873183739739999965e+00,2.554832771420000037e-02,-1.509410887959999892e-02,-1.985675096509999932e-02,1.000000000000000000e+00
1.804881101000000099e+00,-4.160346240280000885e+00,-1.979489772630000088e-01,-8.925508970260001007e+00,2.960867062209999664e-02,-1.671531610189999975e-02,-2.388888970019999863e-02,1.000000000000000000e+00
1.809893552999999988e+00,-4.010103364109999902e+00,-1.906890509959999758e-01,-8.979362725519999699e+00,2.124379947780000166e-02,-9.774766862389998659e-03,-1.913409307599999928e-02,1.000000000000000000e+00
1.814932664000000084e+00,-4.130286033059999973e+00,-1.942923179190000071e-01,-9.031978463419999770e+00,2.735030278560000166e-02,-1.967532560229999852e-02,-1.299249287689999838e-02,1.000000000000000000e+00
1.819962582999999912e+00,-4.086874469100000518e+00,-1.735130761969999880e-01,-9.085952630199999547e+00,3.882358223199999792e-02,-5.039515718820000018e-02,-5.705845542249999430e-03,1.000000000000000000e+00
1.824964221000000109e+00,-4.025079107180000726e+00,-1.450963436009999885e-01,-8.963302402080000064e+00,2.026961371300000161e-02,-9.691166132689998935e-02,-2.948296815159999820e-02,1.000000000000000000e+00
1.829911658999999968e+00,-4.231301060209999854e+00,-2.162189213109999841e-01,-8.859415911150000156e+00,2.873118966820000300e-02,-1.201802119609999969e-01,-2.418409660460000069e-02,1.000000000000000000e+00
1.834926349999999928e+00,-4.317423054130000715e+00,-2.424345088679999982e-01,-8.760285090310000911e+00,3.089993447070000371e-02,-1.265440434219999855e-01,-1.530984882270000104e-02,1.000000000000000000e+00
1.839890105999999914e+00,-4.255625938649999718e+00,-1.506171619820000085e-01,-8.730184551080000688e+00,4.491229727860000104e-02,-9.967922419309999116e-02,-3.351339697840000076e-02,1.000000000000000000e+00
1.844918848999999916e+00,-4.312208242089999644e+00,-1.255878616009999948e-01,-8.717708515870000952e+00,1.264681853350000003e-02,-8.237619698049999939e-02,-1.471612509339999958e-02,1.000000000000000000e+00
1.849883155999999973e+00,-4.266914517640000071e+00,-2.451678610880000109e-01,-8.669220087030000244e+00,3.603505343200000266e-02,-7.194964587689998969e-02,-3.823893517259999847e-02,1.000000000000000000e+00
1.854868476000000044e+00,-4.318697604110000476e+00,-3.444122435689999651e-01,-8.730454015669998569e+00,3.343088552359999716e-02,-3.412421420219999973e-02,-3.688502684240000523e-02,1.000000000000000000e+00
1.859906752000000107e+00,-4.280299484400000409e+00,-2.880845176749999847e-01,-8.787925376910001418e+00,7.551777176560000096e-03,-5.462982505559999674e-02,-1.689680106939999912e-02,1.000000000000000000e+00
1.865062140999999896e+00,-4.174382948939999949e+00,-2.953831685170000276e-01,-8.791337231179999989e+00,2.266566827890000371e-02,-4.184438660740000260e-02,-3.206950053569999903e-02,1.000000000000000000e+00
1.869932684999999983e+00,-4.290646106369999657e+00,-2.323956924729999873e-01,-8.818913804890000208e+00,1.043800171459999954e-02,-6.352248787880000747e-02,-1.431849878279999912e-02,1.000000000000000000e+00
1.874918553999999959e+00,-4.259489628339999889e+00,-2.164130921769999993e-01,-8.762690982410001439e+00,1.872665435079999899e-02,-5.211685597900000272e-02,-1.712963543829999769e-02,1.000000000000000000e+00
1.879920862999999942e+00,-4.304377110079999902e+00,-1.827845980149999938e-01,-8.740393810409999631e+00,1.117748953399999925e-02,-4.462058097120000233e-02,-1.565868034959999947e-02,1.000000000000000000e+00
1.884973723000000101e+00,-4.244205842230000414e+00,-2.147120238799999914e-01,-8.829151121269999791e+00,3.274713829159999617e-02,-3.169498220090000151e-02,-1.170990336690000064e-02,1.000000000000000000e+00
1.889962522000000034e+00,-4.166251080410000363e+00,-3.110329018629999775e-01,-8.933200693810000814e+00,1.728122681379999984e-02,-3.624610975380000016e-02,-1.001078914849999960e-02,1.000000000000000000e+00
1.894935019999999914e+00,-4.215464024130000098e+00,-2.513577287050000053e-01,-8.915346472689998691e+00,2.940418571229999958e-02,-5.661321803930000063e-02,9.980342350899999715e-03,1.000000000000000000e+00
1.900000589000000017e+00,-4.140159776820000026e+00,-2.974335251760000243e-01,-8.868080279119999076e+00,3.252458199859999816e-02,-8.670116961000001732e-02,5.310069769620000268e-03,1.000000000000000000e+00
1.904943145999999921e+00,-4.255023881100000516e+00,-2.934481635999999782e-01,-8.864932628740000098e+00,3.650017827750000332e-02,-9.257168322799999571e-02,3.729826072230000081e-03,1.000000000000000000e+00
1.909893045000000011e+00,-4.294415980290000157e+00,-1.291465313299999806e-01,-8.735440571910000784e+00,3.195345774290000301e-02,-1.176757067440000054e-01,-9.759807027879999208e-03,1.000000000000000000e+00
1.914936919000000071e+00,-4.344453976659999661e+00,-1.944184833159999792e-01,-8.736102835209999640e+00,4.573087021709999755e-02,-9.311254322529999294e-02,-1.965323649350000229e-02,1.000000000000000000e+00
1.919910470999999896e+00,-4.401837951870000154e+00,-2.023618983350000122e-01,-8.691904212529999896e+00,3.805130720140000034e-02,-8.897618949410000810e-02,-2.924711443479999554e-04,1.000000000000000000e+00
1.924933940000000065e+00,-4.301529903949999678e+00,-3.170088710000000254e-01,-8.722488735880000732e+00,4.110796377059999784e-02,-5.777236446740000725e-02,-4.406124353410000027e-03,1.000000000000000000e+00
1.929957393000000021e+00,-4.249671121899999626e+00,-3.579211289620000125e-01,-8.751427245599998628e+00,3.291948139669999968e-02,-6.680807471280000853e-02,-3.609576728190000243e-03,1.000000000000000000e+00
1.934957862000000084e+00,-4.200946838480000167e+00,-3.557776141269999859e-01,-8.767719039710000217e+00,1.077001448720000046e-02,-3.934796899559999533e-02,-1.424453686920000052e-02,1.000000000000000000e+00
1.939927938999999935e+00,-4.279063805119999842e+00,-2.793730043609999880e-01,-8.748276672610000304e+00,6.333422381430000442e-03,-5.676113441589999975e-02,-8.583243470639998710e-04,1.000000000000000000e+00
1.944988216000000048e+00,-4.349377696800000415e+00,-2.098084332150000064e-01,-8.719842605289999327e+00,-1.102854125199999834e-02,-4.978659003969999886e-02,1.408011885359999969e-03,1.000000000000000000e+00
1.949897065000000040e+00,-4.343498867890000170e+00,-2.063402273809999965e-01,-8.732886795780000710e+00,-1.051716040819999920e-02,-6.351962685589999935e-02,-1.134982099760000048e-03,1.000000000000000000e+00
1.955068892999999974e+00,-4.342839819459999973e+00,-2.409791772269999910e-01,-8.749356284539999251e+00,-3.010431304569999994e-02,-6.255556643010000417e-02,-3.707025432959999960e-03,1.000000000000000000e+00
1.959890120999999930e+00,-4.318994833490000573e+00,-3.109832905680000037e-01,-8.711903044460001411e+00,1.524169091139999932e-02,-4.573455080390000094e-02,2.981037134300000124e-03,1.000000000000000000e+00
1.964899101999999953e+00,-4.238639148009999857e+00,-3.937642669659999761e-01,-8.782487569769999780e+00,6.371278781439999699e-03,-3.372901305559999896e-02,-1.744230277840000051e-02,1.000000000000000000e+00
1.969981860999999945e+00,-4.309264297599999516e+00,-3.267594998380000115e-01,-8.744269775060001137e+00,-1.252561993899999927e-02,-3.077830933029999938e-02,-1.101096440110000026e-02,1.000000000000000000e+00
1.974970397000000100e+00,-4.233334611860000152e+00,-3.189549635669999827e-01,-8.772808471799999452e+00,-1.921333000059999643e-02,-3.802077099680000599e-02,-4.222655668850000196e-03,1.000000000000000000e+00
1.979998694000000059e+00,-4.253005819280000210e+00,-2.698918218479999798e-01,-8.749717519069999838e+00,-3.563881665469999932e-02,-1.612230017779999955e-02,-1.005608122800000052e-03,1.000000000000000000e+00
1.984895330000000069e+00,-4.335628865169999457e+00,-1.076942583180000024e-01,-8.740835708949999727e+00,-3.041725605729999823e-02,-2.432432584460000186e-02,-6.166553590449999622e-03,1.000000000000000000e+00
1.989962384999999889e+00,-4.388878809319999519e+00,-6.726895960580000187e-03,-8.778211792149999582e+00,-3.441601246600000524e-02,-2.499017678199999884e-02,-1.085066329690000109e-02,1.000000000000000000e+00
1.994942256999999941e+00,-4.432506354119999159e+00,8.604248067839999348e-02,-8.780011535050000759e+00,-2.472678571940000250e-02,-1.067300327120000031e-02,5.635153502229999292e-03,1.000000000000000000e+00
1.999930452000000081e+00,-4.418463800239999628e+00,6.159590295499999674e-02,-8.719620486970001139e+00,-2.281961217519999988e-02,-2.621062472459999987e-02,5.088781006630000055e-03,1.000000000000000000e+00
2.004877056999999851e+00,-4.404120802109999566e+00,-3.214261896859999662e-02,-8.707222193169998903e+00,-6.158624775710000269e-03,1.162731321530000072e-03,-2.000011131170000012e-02,1.000000000000000000e+00
2.009933511999999922e+00,-4.409104435749999773e+00,-1.319364634419999960e-01,-8.673662453389999527e+00,-1.671323180199999966e-02,-1.522327773269999997e-02,-1.830857992169999948e-02,1.000000000000000000e+00
2.014918482000000122e+00,-4.379908151880000489e+00,-1.545481721549999965e-01,-8.679173910289998517e+00,1.024129521099999968e-02,-1.413379097360000034e-03,-3.657447174190000400e-02,1.000000000000000000e+00
2.019982045999999976e+00,-4.437794231399999845e+00,-1.555345893760000098e-01,-8.658678234750000868e+00,-1.398324593899999933e-02,5.279253702609999939e-03,-2.896845340729999746e-02,1.000000000000000000e+00
2.024892321999999911e+00,-4.444491683209999877e+00,-6.139474522660000322e-02,-8.643508138150000519e+00,-2.844322472809999655e-02,1.054294779900000027e-02,-2.386427670720000366e-02,1.000000000000000000e+00
2.029954395999999939e+00,-4.400350928189999955e+00,2.887091980450000317e-02,-8.660726983969999182e+00,-1.286437269300000005e-02,1.369881257410000136e-02,-4.359005391599999474e-02,1.000000000000000000e+00
2.034934811999999926e+00,-4.431431710630000076e+00,7.112301153530001252e-02,-8.717711438480000297e+00,-1.701224595310000046e-02,1.334886252879999811e-02,-3.683377802369999787e-02,1.000000000000000000e+00
2.039903709999999926e+00,-4.451835616230000348e+00,4.338485405380000659e-02,-8.772815486060000723e+00,-7.356542628260000216e-03,3.963563218709999919e-02,-3.339504078029999906e-02,1.000000000000000000e+00
2.045022134999999963e+00,-4.330776456699999777e+00,3.861257988439999872e-02,-8.738347983789999773e+00,3.184460103510000119e-03,5.744250863789999995e-02,-4.712017253039999659e-02,1.000000000000000000e+00
2.049924509999999866e+00,-4.298438659940000406e+00,-1.461596528499999881e-01,-8.765833372090000353e+00,-9.221084415910000068e-03,4.004743322729999860e-02,-5.327958613630000284e-02,1.000000000000000000e+00
2.054964881000000076e+00,-4.349536686750000491e+00,-3.049761956400000029e-01,-8.720308469229999915e+00,3.920161165300000382e-03,5.005766078829999854e-02,-5.840999633069999392e-02,1.000000000000000000e+00
2.059974980999999872e+00,-4.339001264210000208e+00,-4.224824484610000264e-01,-8.680843889330001062e+00,1.249565649779999822e-02,5.982856452469999947e-02,-5.578510090710000341e-02,1.000000000000000000e+00
2.064904802000000039e+00,-4.302103904450000016e+00,-3.907414850789999727e-01,-8.713993879260002018e+00,-2.793292514979999787e-03,6.813909858469999192e-02,-5.955467000599999616e-02,1.000000000000000000e+00
2.069982294999999972e+00,-4.386815447050000039e+00,-2.774880308639999793e-01,-8.709469095310000242e+00,-8.821695111690000188e-03,6.932945549489999415e-02,-5.092306435110000029e-02,1.000000000000000000e+00
2.075004414999999991e+00,-4.399829242400000062e+00,-1.206751377810000025e-01,-8.739865402619999557e+00,-1.281787641349999875e-02,9.392476826909999799e-02,-4.537427425380000101e-02,1.000000000000000000e+00
2.079924823999999894e+00,-4.336912475240000120e+00,-6.360669478819999667e-02,-8.733756564349999252e+00,1.583316549660000044e-02,9.221835434439999701e-02,-6.075410172339999748e-02,1.000000000000000000e+00
2.084916821000000198e+00,-4.344692169330000020e+00,-1.483671910980000064e-01,-8.770086353359999976e+00,-4.598795901979999511e-03,9.668955206869998820e-02,-7.291395217180000887e-02,1.000000000000000000e+00
2.089962965999999867e+00,-4.207788959460000200e+00,-1.868459109030000120e-01,-8.749594769470000699e+00,1.112412661310000113e-02,1.053890958430000052e-01,-7.035085558889998814e-02,1.000000000000000000e+00
2.094941744000000217e+00,-4.177672638139999783e+00,-3.108895844019999855e-01,-8.929787670489998774e+00,2.674076333640000233e-02,9.390998631719998935e-02,-8.746040612460000141e-02,1.000000000000000000e+00
2.099919776000000127e+00,-4.139934735889999828e+00,-3.386278149490000167e-01,-8.931385753340000733e+00,3.057267889380000173e-02,8.600775897500001488e-02,-7.159639149899998944e-02,1.000000000000000000e+00
2.104940817000000131e+00,-4.046577237759999335e+00,-3.345550856170000364e-01,-8.991230857969998880e+00,3.673927485939999793e-02,6.493128091099999166e-02,-7.960278540850000695e-02,1.000000000000000000e+00
2.109958153000000003e+00,-4.166240851280000435e+00,-2.935006609720000048e-01,-8.956753418830000868e+00,3.707573190329999796e-02,3.960473835469999898e-02,-7.137867808339999620e-02,1.000000000000000000e+00
2.115014920000000131e+00,-4.167115296030000415e+00,-2.532802577320000248e-01,-8.859389607660000721e+00,5.012008175250000364e-02,5.220453441140000123e-02,-8.052282780410001395e-02,1.000000000000000000e+00
2.119873296000000185e+00,-4.222505759339999720e+00,-3.114541594829999815e-01,-8.861509084039999706e+00,4.893160983919999513e-02,3.620737045999999904e-02,-7.961127907039998453e-02,1.000000000000000000e+00
2.124872991000000155e+00,-4.266693276109999822e+00,-3.004705730500000227e-01,-8.855005693489999885e+00,5.912708491090000462e-02,1.914423331620000029e-02,-8.779460936779999447e-02,1.000000000000000000e+00
2.129877444999999980e+00,-4.233878217219999129e+00,-3.521060129420000573e-01,-8.889581916830000097e+00,4.444689303640000227e-02,3.530435636640000263e-02,-8.572565764190000215e-02,1.000000000000000000e+00
2.134843051999999908e+00,-4.231153760689999821e+00,-2.680252790569999655e-01,-8.935312571389999903e+00,5.822223424909999528e-02,3.342651203270000093e-02,-8.868489414449999553e-02,1.000000000000000000e+00
2.139962789000000143e+00,-4.312889794619999329e+00,-2.009386788649999978e-01,-9.041476944130000248e+00,3.877080976959999814e-02,1.857852004470000179e-02,-7.947866618630000657e-02,1.000000000000000000e+00
2.144997635000000180e+00,-4.062778723240000112e+00,-1.795029277290000058e-01,-8.937792113250001336e+00,4.745326191189999654e-02,4.333778098230000458e-02,-7.362096011639998605e-02,1.000000000000000000e+00
2.149934231000000029e+00,-4.315764181010000478e+00,-8.369555222610000622e-02,-8.962452507250000977e+00,6.113092228769999997e-02,9.729778394100000588e-03,-6.188641488550000042e-02,1.000000000000000000e+00
2.154936497000000006e+00,-4.237954965140000141e+00,-2.335124763419999805e-01,-8.948775279560001294e+00,6.629341095690000074e-02,4.297398030760000466e-03,-8.065553009510000038e-02,1.000000000000000000e+00
2.159976556999999797e+00,-4.175853021490000039e+00,-2.703553294400000140e-01,-9.040928078080000319e+00,1.013390272859999858e-01,1.289895735680000009e-02,-7.966181635860000720e-02,1.000000000000000000e+00
2.165022217000000193e+00,-4.034023461140000322e+00,-3.786917489859999986e-01,-9.149163411869999152e+00,8.806131780150000532e-02,-1.402715966110000198e-02,-1.013864949350000016e-01,1.000000000000000000e+00
2.169978482999999958e+00,-4.155598753490000519e+00,-3.146606639060000044e-01,-9.185656282480000101e+00,1.135315001009999936e-01,-3.937768191100000231e-02,-7.776106894019998994e-02,1.000000000000000000e+00
2.174988088000000097e+00,-4.063058124700000384e+00,-4.362763613399999740e-01,-9.091083563339999785e+00,1.012743413450000046e-01,-6.051680445669999076e-02,-1.125228628519999996e-01,1.000000000000000000e+00
2.179966614000000025e+00,-4.242213791630000230e+00,-3.671698361590000070e-01,-8.974616407779999250e+00,1.236361414189999924e-01,-1.139970943329999958e-01,-9.852910786869999160e-02,1.000000000000000000e+00
2.184936465999999911e+00,-4.198466127580000595e+00,-3.370846406279999763e-01,-8.801528370330000683e+00,1.101561710239999936e-01,-1.259209811689999958e-01,-1.124196648599999904e-01,1.000000000000000000e+00
2.189941613999999870e+00,-4.303892249169999573e+00,-3.301074220259999636e-01,-8.710158246619998934e+00,8.781902492049999120e-02,-1.247906088830000038e-01,-1.065272241829999939e-01,1.000000000000000000e+00
2.194930092999999971e+00,-4.380321116590000230e+00,-2.809766401650000134e-01,-8.709952494910000453e+00,8.750604093070001033e-02,-1.189380884170000013e-01,-1.131131947039999974e-01,1.000000000000000000e+00
2.200001009999999813e+00,-4.412316383530000330e+00,-3.498864006640000079e-01,-8.698862361099999774e+00,7.191875576969999906e-02,-9.002192318439999896e-02,-1.009097322819999948e-01,1.000000000000000000e+00
2.204971684999999848e+00,-4.308206020710000139e+00,-2.372040608690000052e-01,-8.700909356760000435e+00,6.441144645209999353e-02,-4.842311143880000113e-02,-9.939296543599999978e-02,1.000000000000000000e+00
2.209920400000000118e+00,-4.290653412890000240e+00,-1.556206784910000029e-01,-8.891415562000000605e+00,5.804475769399999874e-02,-5.531458929179999817e-02,-1.027568131689999970e-01,1.000000000000000000e+00
2.214874140000000047e+00,-4.219660599040000015e+00,-9.057532006869999097e-02,-9.043052230619998966e+00,7.700230926280000887e-02,-5.850620940330000797e-02,-1.066141203050000041e-01,1.000000000000000000e+00
2.219915680999999807e+00,-4.186604132609999418e+00,-3.762980450830000212e-02,-9.101310942850000529e+00,9.980050474410001593e-02,-8.439402282239999442e-02,-1.165920123460000013e-01,1.000000000000000000e+00
2.224833605999999797e+00,-4.282409316159999868e+00,6.275497789620000134e-03,-9.009770723269999948e+00,1.129525527360000087e-01,-1.205225065350000041e-01,-1.193120703099999902e-01,1.000000000000000000e+00
2.229892264000000068e+00,-4.292770843430000482e+00,-3.868767268090000239e-02,-8.984270371310000058e+00,1.477871686220000036e-01,-1.559318602089999894e-01,-1.189125701789999906e-01,1.000000000000000000e+00
2.234927835000000140e+00,-4.352055391569999543e+00,-1.703604756520000207e-01,-8.831208638319999693e+00,1.757767349480000019e-01,-1.661943346260000010e-01,-1.196692809459999896e-01,1.000000000000000000e+00
2.239870741999999915e+00,-4.471309255249999559e+00,-2.946898707569999831e-01,-8.684422916860000896e+00,1.995673030609999843e-01,-1.549903005359999919e-01,-1.281695961950000129e-01,1.000000000000000000e+00
2.244874122000000138e+00,-4.475083805350000610e+00,-5.547820369939999718e-01,-8.622811387080000500e+00,1.963504552839999973e-01,-1.349708437920000004e-01,-1.154686957599999897e-01,1.000000000000000000e+00
2.249893356999999927e+00,-4.374270730510000149e+00,-6.358016297429999186e-01,-8.596564016140000319e+00,1.745158135890000073e-01,-1.166943311690000068e-01,-1.023398414249999944e-01,1.000000000000000000e+00
2.254942182000000184e+00,-4.349339118349999644e+00,-6.465490145329999550e-01,-8.576755738339999269e+00,1.579119265080000112e-01,-1.003701165320000088e-01,-7.150150835510001024e-02,1.000000000000000000e+00
2.260774126999999911e+00,-4.290348876980000448e+00,-6.962012995170000496e-01,-8.677875102650000727e+00,1.284727752210000074e-01,-8.668207377200000396e-02,-6.945192068819999731e-02,1.000000000000000000e+00
2.264917333000000088e+00,-4.280213851940000147e+00,-6.920872152620000106e-01,-8.737406319030000645e+00,1.105507910249999975e-01,-7.627721875910001281e-02,-5.432222411040000393e-02,1.000000000000000000e+00
2.269861237000000198e+00,-4.192824906819999420e+00,-6.849939690649999857e-01,-8.712154973389999668e+00,9.033871442080000647e-02,-8.128975331780000091e-02,-4.643655940889999945e-02,1.000000000000000000e+00
2.274940562999999916e+00,-4.277602792659999764e+00,-6.778660899470000389e-01,-8.733442091569999732e+00,9.714127331969998891e-02,-7.376066595319999419e-02,-2.032174170019999948e-02,1.000000000000000000e+00
2.279946706000000045e+00,-4.226628976749999822e+00,-6.903660174919999948e-01,-8.670967222959999887e+00,7.404354214670000323e-02,-7.235833257439999722e-02,-2.630264870820000350e-02,1.000000000000000000e+00
2.284911813999999985e+00,-4.335563106459999538e+00,-6.638343497240000168e-01,-8.663919058010002061e+00,6.737083196639999383e-02,-6.417739391330000431e-02,-1.982862874870000222e-02,1.000000000000000000e+00
2.289956260999999937e+00,-4.317041653600000473e+00,-7.136694439300000914e-01,-8.643711551760000944e+00,6.377908587460000278e-02,-5.408979952340000480e-02,-1.525100879369999975e-02,1.000000000000000000e+00
2.294953108000000075e+00,-4.311850222440000380e+00,-7.066837497610000129e-01,-8.661623056030000711e+00,5.294397473339999827e-02,-4.786243662240000779e-02,-1.389686763290000002e-02,1.000000000000000000e+00
2.299883834000000071e+00,-4.332991210140000327e+00,-6.436896065130000011e-01,-8.664632759239999871e+00,3.293104097249999890e-02,-4.420048370960000250e-02,1.193547854199999893e-03,1.000000000000000000e+00
2.304892269000000216e+00,-4.314733084400000251e+00,-5.750468994530000266e-01,-8.710069983810001304e+00,3.856249153610000202e-02,-4.521679505710000241e-02,1.541776582600000000e-04,1.000000000000000000e+00
2.309893358000000063e+00,-4.363099932679999959e+00,-5.485817941139999876e-01,-8.696842837969999351e+00,2.259134873749999925e-02,-1.880724355580000104e-02,-2.221488393840000304e-03,1.000000000000000000e+00
2.314859186000000069e+00,-4.386710233109999635e+00,-4.844968234229999893e-01,-8.720668534719999698e+00,2.647566795349999905e-02,-3.110705688600000005e-02,-1.215649535880000166e-03,1.000000000000000000e+00
2.319908031000000204e+00,-4.407798029319999422e+00,-4.579916052699999351e-01,-8.685963132039999479e+00,3.409461304550000238e-02,-3.527986630800000051e-02,5.318637937310000639e-03,1.000000000000000000e+00
2.324898606000000090e+00,-4.362841866270000146e+00,-5.024545049180000333e-01,-8.724773047430000261e+00,3.573683276769999695e-02,-3.588177636269999915e-02,5.592082627119999115e-03,1.000000000000000000e+00
2.329941797000000037e+00,-4.288605540449999864e+00,-5.927374179109999863e-01,-8.697656492440000164e+00,2.554218098519999910e-02,-1.191031746570000126e-02,-1.499792747200000102e-02,1.000000000000000000e+00
2.334881551000000055e+00,-4.314252607400000272e+00,-6.561180031930000656e-01,-8.720988268189998394e+00,2.108113840220000174e-02,-1.733723841609999608e-02,-2.934912452469999426e-03,1.000000000000000000e+00
2.339960388000000169e+00,-4.307444973209999972e+00,-6.923474736329999768e-01,-8.773930169310000693e+00,1.959464047099999853e-03,-1.792327314620000001e-02,1.809876598420000204e-02,1.000000000000000000e+00
2.344925561999999797e+00,-4.326778034719999333e+00,-6.379906642189999699e-01,-8.706677418769999122e+00,3.619831986729999795e-03,-2.885334007440000167e-02,1.354035455729999879e-02,1.000000000000000000e+00
2.349906932000000115e+00,-4.431261030239999954e+00,-6.234780816770000289e-01,-8.711641178649999873e+00,-1.566015370189999950e-02,-1.733568124470000194e-02,2.210406586530000092e-02,1.000000000000000000e+00
2.354976677999999879e+00,-4.417426858409999824e+00,-5.341013602759999701e-01,-8.697592779560000764e+00,-1.146062090989999858e-02,-9.994044899939999796e-03,1.704671047629999908e-02,1.000000000000000000e+00
2.359918663000000194e+00,-4.435774416010000110e+00,-5.747669865330000682e-01,-8.725770826289998894e+00,-1.931694895029999887e-02,-6.673752795899999361e-03,1.852933131159999885e-02,1.000000000000000000e+00
2.364930172000000219e+00,-4.383063108780000050e+00,-5.583495567499999757e-01,-8.726555254670000039e+00,-7.220828905699999689e-03,-1.407353021199999991e-02,2.560526505109999781e-02,1.000000000000000000e+00
2.369948477999999970e+00,-4.318235539559999836e+00,-5.705533508929999664e-01,-8.745542863729999894e+00,-2.209590375419999767e-02,9.097883012150001242e-04,2.023988775909999968e-02,1.000000000000000000e+00
2.374941049999999887e+00,-4.329939129090000449e+00,-6.146792006060000091e-01,-8.743900941739999766e+00,-2.114599198100000285e-02,1.814321149140000079e-03,3.939854726199999713e-02,1.000000000000000000e+00
2.380003202999999790e+00,-4.196519085159999385e+00,-6.326479149520000123e-01,-8.863006044600000521e+00,-1.528006047010000042e-02,-1.148113980890000038e-02,3.108684718609999731e-02,1.000000000000000000e+00
2.384894474999999847e+00,-4.139209344230000198e+00,-6.293627558019999624e-01,-8.994588936230000442e+00,-1.578843221070000066e-02,-2.234027534719999764e-02,4.098612442610000128e-02,1.000000000000000000e+00
2.389949779999999802e+00,-4.153958292809999620e+00,-5.254472579710000035e-01,-8.950760900419998833e+00,-2.001990377899999854e-02,-4.035015404219999963e-02,5.079388245939999574e-02,1.000000000000000000e+00
2.394924451000000065e+00,-4.222700112860000132e+00,-4.715460103050000407e-01,-8.802142702830000331e+00,9.762986563149998395e-03,-5.428926646710000026e-02,5.604369193319999609e-02,1.000000000000000000e+00
2.399940688000000044e+00,-4.239747401519999848e+00,-6.020565599960000513e-01,-8.779813966649999912e+00,-6.208267062900000265e-03,-8.333481103180000182e-02,5.066251009700000613e-02,1.000000000000000000e+00
2.405006741999999864e+00,-4.155486233030000420e+00,-6.620245968879999721e-01,-8.663806245289999097e+00,-7.656828500329999725e-03,-8.749886602160000804e-02,4.652585089209999858e-02,1.000000000000000000e+00
2.409952082999999856e+00,-4.026117802579999960e+00,-8.007322988980000167e-01,-8.808986285119999593e+00,-1.640120521189999958e-02,-7.390305399889998683e-02,7.086695730689999972e-02,1.000000000000000000e+00
2.414933605999999955e+00,-3.852437936709999899e+00,-7.723330836920000442e-01,-8.907390545249999292e+00,-2.703458070760000193e-02,-9.371877461670000131e-02,7.571171969180000294e-02,1.000000000000000000e+00
2.419893340999999864e+00,-3.964674615099999855e+00,-7.823580724909999784e-01,-8.875400831269999458e+00,-3.795927390460000078e-02,-1.139395311470000061e-01,8.043314516539999681e-02,1.000000000000000000e+00
2.424921057999999796e+00,-4.102697184390000196e+00,-7.619963985950000129e-01,-8.904552106949999768e+00,-4.390383139250000205e-02,-1.453571766609999816e-01,9.959686547520001099e-02,1.000000000000000000e+00
2.429975379000000046e+00,-4.111391655240000276e+00,-6.471626894520000617e-01,-8.860288602329999819e+00,-4.622024297709999285e-02,-1.628419011830000152e-01,8.578707277769999362e-02,1.000000000000000000e+00
2.434986771999999799e+00,-4.406821585510000361e+00,-3.609604235930000127e-01,-8.740598393069999972e+00,-4.760684818030000431e-02,-1.955685764550000039e-01,9.648665785790000449e-02,1.000000000000000000e+00
2.439950012999999807e+00,-4.167839226389999929e+00,-5.986314443860000223e-01,-8.623664789039999334e+00,-3.532486408950000212e-02,-1.832147687669999914e-01,9.820108115669999582e-02,1.000000000000000000e+00
2.444980221999999870e+00,-3.851587749619999723e+00,-7.566892320970000085e-01,-8.766683851439999842e+00,-2.968589588999999765e-02,-1.906035840510000023e-01,8.113329112530000276e-02,1.000000000000000000e+00
2.449938572999999842e+00,-3.816332311850000103e+00,-6.470291261999999710e-01,-8.982131021189999842e+00,-1.779017224909999750e-02,-1.891640275719999875e-01,8.633164316420000040e-02,1.000000000000000000e+00
2.454950181000000065e+00,-4.117948821799999770e+00,-4.296041900990000273e-01,-9.004262773500000705e+00,-4.966226220130000313e-02,-2.450787127019999900e-01,8.373929560180000398e-02,1.000000000000000000e+00
2.459962576000000123e+00,-4.591440778539999990e+00,-3.808763630160000302e-01,-8.909893467979999926e+00,-4.892377927899999729e-02,-2.478441745039999811e-01,1.059476956729999975e-01,1.000000000000000000e+00
2.465008130999999825e+00,-4.647682013459999872e+00,-4.067610381180000179e-01,-8.658783448690000384e+00,-3.601693361999999676e-02,-2.769351899620000057e-01,8.747448772189998778e-02,1.000000000000000000e+00
2.470006721999999932e+00,-4.606272729230000529e+00,-4.152278376899999901e-01,-8.501420219110000787e+00,-2.957487478850000240e-02,-2.421850860120000060e-01,9.247583895919998798e-02,1.000000000000000000e+00
2.474967788999999918e+00,-4.592433588969999647e+00,-4.005881947020000222e-01,-8.457499828850000512e+00,-1.831539324480000027e-03,-2.189379781480000065e-01,9.234716743229999525e-02,1.000000000000000000e+00
2.479991406999999981e+00,-4.344029613770000076e+00,-5.309634275760000133e-01,-8.722063788470000745e+00,-1.432132627820000004e-02,-1.855122298000000114e-01,8.118379861119999485e-02,1.000000000000000000e+00
2.484927605000000206e+00,-4.269642189040000702e+00,-5.241814392860000282e-01,-8.860900012230001010e+00,-3.728041797880000258e-02,-1.788492053750000144e-01,8.076393604280000804e-02,1.000000000000000000e+00
2.489947873999999839e+00,-4.516064050509999817e+00,-5.440490460549999296e-01,-8.769905151569998836e+00,-4.843750223519999870e-02,-1.875719428060000082e-01,9.862600266930000859e-02,1.000000000000000000e+00
2.494958508999999935e+00,-4.627363740309999862e+00,-6.122215052560000537e-01,-8.718662455589999638e+00,-7.979248464110000327e-02,-2.223324030640000115e-01,1.204207539560000068e-01,1.000000000000000000e+00
2.499948890999999840e+00,-4.454084271940000228e+00,-4.903028062879999927e-01,-8.585692493519999857e+00,-6.111947074529999746e-02,-2.191868722439999917e-01,1.331323087219999923e-01,1.000000000000000000e+00
2.504974904000000002e+00,-4.436197317590000466e+00,-5.008420282200000129e-01,-8.720449339010000855e+00,-4.517030343410000093e-02,-2.113857269289999841e-01,1.162583082909999926e-01,1.000000000000000000e+00
2.509922185999999833e+00,-4.337855893569999566e+00,-4.546347325899999792e-01,-8.683138722269999832e+00,-3.890172019600000169e-02,-1.844046711919999915e-01,1.209935247900000010e-01,1.000000000000000000e+00
2.514917066000000201e+00,-4.342233670259999734e+00,-5.038329901970000080e-01,-8.740689578479999611e+00,-4.508844763040000675e-02,-1.874302029610000198e-01,1.183326095340000161e-01,1.000000000000000000e+00
2.519934040999999958e+00,-4.529868996240000278e+00,-8.029070856540000412e-01,-8.726905383280000095e+00,-5.200508236890000191e-02,-1.932139992709999976e-01,1.332901865239999872e-01,1.000000000000000000e+00
2.524969930000000140e+00,-4.353090579839999918e+00,-7.454178234330000041e-01,-8.740022054480000691e+00,-6.857524812219999155e-02,-1.950045824049999876e-01,1.550091952090000003e-01,1.000000000000000000e+00
2.529929377000000201e+00,-4.264813161450000223e+00,-7.426255623659999694e-01,-8.651089971579999371e+00,-8.023584634069999555e-02,-2.124311029910000148e-01,1.826019436120000228e-01,0.000000000000000000e+00
2.534979529000000120e+00,-4.131203732430000386e+00,-7.968833683849999572e-01,-8.828048712979999380e+00,-8.835721760989999340e-02,-2.182273268699999880e-01,1.975527852769999870e-01,0.000000000000000000e+00
2.539972285999999801e+00,-4.139380024619999432e+00,-8.330738219890000407e-01,-8.874009669169998560e+00,-7.794634252789998941e-02,-2.447152286769999907e-01,2.323062866930000192e-01,0.000000000000000000e+00
2.544966434000000000e+00,-4.665667459740000744e+00,-7.609208052519998988e-01,-8.857229799279998872e+00,-1.321313530210000142e-01,-2.732398509980000223e-01,2.751785516739999604e-01,0.000000000000000000e+00
2.549970849000000150e+00,-4.798602642769999704e+00,-5.649750393039999485e-01,-8.711335473700000165e+00,-1.512877643109999948e-01,-2.798579633240000364e-01,2.717789411540000311e-01,0.000000000000000000e+00
2.554921440999999849e+00,-5.040642635890000278e+00,-2.666408389620000263e-01,-8.689235870099999204e+00,-1.787650436160000134e-01,-2.862752377989999930e-01,2.808911204339999967e-01,0.000000000000000000e+00
2.559951556000000128e+00,-4.921937346009999992e+00,-1.241542029349999993e-01,-8.539275610260000704e+00,-1.684506386520000232e-01,-2.520751655099999766e-01,2.801414430139999578e-01,0.000000000000000000e+00
2.564978679000000206e+00,-5.023292857159999514e+00,1.429656791149999939e-01,-8.522505092719999453e+00,-1.628245264289999994e-01,-2.221359461549999859e-01,2.544241845609999664e-01,0.000000000000000000e+00
2.569993548999999877e+00,-5.062453485679999865e+00,1.698253458620000225e-02,-8.678167948119998698e+00,-1.388978213069999856e-01,-2.052962183949999797e-01,2.118600904940000085e-01,0.000000000000000000e+00
2.574975956999999926e+00,-4.876295831040000195e+00,-5.064146041880000088e-02,-8.698808000560001474e+00,-1.298239678140000186e-01,-1.815612763170000032e-01,1.932562291619999983e-01,0.000000000000000000e+00
2.579956890000000058e+00,-4.767069732639999557e+00,-1.116384384990000006e-01,-8.825894165299999372e+00,-1.343678981070000056e-01,-1.773062497379999936e-01,1.792524456980000014e-01,1.000000000000000000e+00
2.584922064000000130e+00,-4.862746613640000604e+00,-2.974747157029999922e-01,-8.620353472530000616e+00,-1.401720643040000047e-01,-2.033717781309999917e-01,1.689220815900000228e-01,1.000000000000000000e+00
2.589937149999999910e+00,-4.844593117309999641e+00,-6.733570880900000555e-01,-8.882320985919999856e+00,-1.421538740400000167e-01,-1.858917325739999904e-01,1.671772748230000161e-01,1.000000000000000000e+00
2.594956633999999873e+00,-4.774100361930000425e+00,-1.775591732499999797e-01,-8.589398946819999381e+00,-1.128376945849999952e-01,-1.644320786000000034e-01,1.809067726139999832e-01,1.000000000000000000e+00
2.599960042999999832e+00,-4.897208855209999712e+00,-1.607664986810000141e-01,-8.641932267130000511e+00,-1.181173697110000087e-01,-1.607826352119999802e-01,1.726536303759999835e-01,1.000000000000000000e+00
2.604977311999999934e+00,-5.196917485710000228e+00,-7.135530875410001084e-02,-8.348615675760001409e+00,-1.534508913759999871e-01,-1.481733918189999943e-01,1.420069336889999978e-01,1.000000000000000000e+00
2.609970339000000195e+00,-4.794919278080000069e+00,-4.369655491800000097e-02,-8.558654264460001215e+00,-1.503628939389999863e-01,-1.437454819679999940e-01,1.124730855230000048e-01,1.000000000000000000e+00
2.614986452000000128e+00,-4.561957786680000737e+00,-7.727276177010000691e-02,-8.746870312939998726e+00,-1.453927308319999945e-01,-1.441347002979999903e-01,1.094137281179999865e-01,1.000000000000000000e+00
2.619959861999999973e+00,-4.790222644690000031e+00,-9.352703688069999299e-02,-8.533954122970000000e+00,-1.552688926459999952e-01,-1.386011838910000127e-01,8.988967537879999359e-02,1.000000000000000000e+00
2.624921726000000177e+00,-4.798662848520000246e+00,-3.357991673940000088e-01,-8.762637206399999101e+00,-1.688845604659999777e-01,-1.565068364140000112e-01,7.788248360160000827e-02,1.000000000000000000e+00
2.629966420000000138e+00,-4.737893322519999728e+00,-2.996489910019999869e-01,-8.675752703669999732e+00,-1.667200177910000136e-01,-1.692566424610000009e-01,7.560191303489999237e-02,1.000000000000000000e+00
2.634979835999999853e+00,-4.551562064869999702e+00,-6.513095434650000015e-02,-8.717211672260001265e+00,-1.545549482109999928e-01,-1.838041991000000097e-01,6.866755336519998754e-02,1.000000000000000000e+00
2.639990765999999933e+00,-4.881761987490000010e+00,-1.245087337279999866e-02,-8.942412174269998459e+00,-1.604173332449999878e-01,-1.837463080879999933e-01,7.282070070510000825e-02,1.000000000000000000e+00
2.644942835000000159e+00,-4.564257880319999572e+00,2.452020738850000103e-01,-8.749141765010000071e+00,-1.464131474489999973e-01,-1.768532842400000193e-01,4.920918866989999751e-02,1.000000000000000000e+00
2.649904929999999936e+00,-4.571019045019999893e+00,-8.761596793970000130e-02,-8.854506511799998592e+00,-1.259508132929999802e-01,-2.096645385029999864e-01,3.597720712419999467e-02,1.000000000000000000e+00
2.654911513000000056e+00,-4.607835740759999688e+00,-1.025272971589999936e-02,-8.837941161439999860e+00,-1.046422347430000094e-01,-2.535382807250000092e-01,5.509806424380001011e-02,0.000000000000000000e+00
2.659940438000000018e+00,-4.459205268219999851e+00,7.591009511479999972e-02,-9.024262774480000360e+00,-1.012257039550000098e-01,-2.672003805640000285e-01,3.307393565770000432e-02,0.000000000000000000e+00
2.664958196999999807e+00,-4.553535410769999459e+00,1.196158653859999976e-01,-8.940926319620000839e+00,-6.528589129449999251e-02,-3.077363669870000207e-01,3.591264411810000251e-02,0.000000000000000000e+00
2.669938881000000208e+00,-4.612551371110000353e+00,1.706970141299999910e-01,-9.116860394159999714e+00,-3.896070271730000395e-02,-3.476332128050000358e-01,3.067566454409999602e-02,0.000000000000000000e+00
2.674973910999999926e+00,-4.559188029709999590e+00,3.914754619089999554e-01,-9.136332571869999697e+00,-4.097867757080000256e-02,-3.642031848430000163e-01,3.974164649840000035e-02,0.000000000000000000e+00
2.679961528000000204e+00,-4.446471166590000301e+00,3.998770872900000439e-01,-9.261680953019999052e+00,-9.141219779849999588e-03,-4.269961416720000069e-01,1.276542153210000197e-02,0.000000000000000000e+00
2.684908662999999862e+00,-4.651492803919999197e+00,2.910099036029999975e-01,-9.131720109639999805e+00,1.152946613729999813e-02,-4.641667306419999806e-01,1.270060660319999790e-03,0.000000000000000000e+00
2.689935860999999928e+00,-4.676523492540000326e+00,3.599053981139999636e-01,-9.144459179700000107e+00,4.035645723339999907e-02,-5.045140385629999225e-01,1.552400644870000068e-04,0.000000000000000000e+00
2.694898529000000043e+00,-4.634630224180000369e+00,3.546001678459999584e-01,-9.204308375980000179e+00,5.726673454049999862e-02,-5.378396511080000275e-01,-1.805576309559999565e-02,0.000000000000000000e+00
2.699910797999999890e+00,-4.754074934250000162e+00,3.699438309170000050e-01,-9.108230512980000526e+00,7.681069523099999519e-02,-5.883904695510000504e-01,-9.056659415360001492e-03,0.000000000000000000e+00
2.704983571000000087e+00,-4.794133972920000097e+00,3.071503613409999889e-01,-9.104810475399998992e+00,9.640849381689998998e-02,-6.135340929029999835e-01,-1.056629698719999989e-02,0.000000000000000000e+00
2.709936202999999821e+00,-4.681709078480000841e+00,2.308401153269999950e-01,-9.221745832999999948e+00,1.255089491609999997e-01,-6.627581119540000287e-01,-1.753235794599999897e-02,0.000000000000000000e+00
2.714899272999999891e+00,-4.707887183569999578e+00,1.058114676449999902e-01,-9.262053877989998796e+00,1.241011992099999850e-01,-6.909888982770000521e-01,-4.133579134940000566e-02,0.000000000000000000e+00
2.719999501999999847e+00,-4.769109714040000725e+00,2.358201687620000153e-01,-9.217821353030000608e+00,1.340016722679999994e-01,-7.614161372179999443e-01,-2.992741949860000181e-02,0.000000000000000000e+00
2.725070446999999785e+00,-4.769725215590000289e+00,1.527463468970000071e-01,-9.225859698060000724e+00,1.343408375980000014e-01,-8.073338270190000276e-01,-5.455639585850000084e-02,0.000000000000000000e+00
2.729960596999999822e+00,-4.851550681360000006e+00,1.438595409479999920e-01,-9.303613968869999695e+00,1.735239624980000062e-01,-8.299918174739999710e-01,-5.350307375189999881e-02,0.000000000000000000e+00
2.734943235999999889e+00,-4.843355684469999645e+00,2.072052832449999826e-01,-9.414410677579999387e+00,1.777191609140000017e-01,-8.842567801480000211e-01,-6.683874875310000241e-02,0.000000000000000000e+00
2.739931637000000197e+00,-4.903010819480000393e+00,1.394583194479999955e-01,-9.424701769969999532e+00,2.011111527679999844e-01,-9.501283168790000122e-01,-6.941769272089999554e-02,0.000000000000000000e+00
2.744975616000000063e+00,-4.887857381759999953e+00,8.172604225139999679e-02,-9.490461067080000035e+00,2.205361276870000109e-01,-1.022830247879999765e+00,-6.937699764969999794e-02,0.000000000000000000e+00
2.749942944999999916e+00,-4.907235451440000062e+00,1.789325736459999872e-02,-9.473630928310001309e+00,2.443762570620000019e-01,-1.085887789729999886e+00,-9.485581517220000036e-02,0.000000000000000000e+00
2.754952918999999945e+00,-4.796457447429999910e+00,-2.379593407819999978e-02,-9.685798930260000716e+00,2.610800862309999859e-01,-1.142451643939999872e+00,-9.098176658150000651e-02,0.000000000000000000e+00
2.759998402999999989e+00,-4.871678692629999752e+00,6.849327038649999366e-02,-9.790428933039999393e+00,2.654637396339999955e-01,-1.221072912220000140e+00,-1.073959544299999957e-01,0.000000000000000000e+00
2.764911811999999802e+00,-5.002473941019999870e+00,1.608537340060000112e-02,-9.704676064690000103e+00,2.790208458900000354e-01,-1.298238039020000123e+00,-1.097249835730000067e-01,0.000000000000000000e+00
2.769962221000000113e+00,-4.999232767139999645e+00,-4.661959362470000090e-02,-9.807697463230001134e+00,2.874758243559999982e-01,-1.381778240200000063e+00,-1.182971224190000059e-01,0.000000000000000000e+00
2.774938893999999934e+00,-4.937953245790000167e+00,1.739669391780000185e-01,-9.855380420899999550e+00,2.992897033690000153e-01,-1.492984056470000098e+00,-1.226808652280000078e-01,0.000000000000000000e+00
2.779862226000000103e+00,-4.874736911160000297e+00,-2.287016054610000182e-01,-9.896485169229999102e+00,3.251851201059999807e-01,-1.594980359080000021e+00,-1.187563017010000027e-01,0.000000000000000000e+00
2.784850433999999986e+00,-4.865913845490000611e+00,-2.546033047630000268e-01,-1.000585739809999986e+01,3.647867739199999737e-01,-1.667294383049999995e+00,-1.220140680670000061e-01,0.000000000000000000e+00
2.789926148999999800e+00,-4.961978849019999416e+00,8.752231657310000079e-02,-1.011066801810000015e+01,3.626303672789999988e-01,-1.797991037370000100e+00,-1.411036401989999856e-01,0.000000000000000000e+00
2.794907483999999886e+00,-5.004463653530000222e+00,-2.973315580719999851e-02,-1.006149452960000090e+01,3.866141736509999816e-01,-1.907339334490000038e+00,-1.475833505389999856e-01,0.000000000000000000e+00
2.799922232000000122e+00,-4.943191146440000239e+00,9.080425172010000989e-02,-1.000129695830000109e+01,3.901773691179999948e-01,-1.994204163549999853e+00,-1.668467074630000102e-01,0.000000000000000000e+00
2.804903680999999871e+00,-4.856828621760000075e+00,1.247082246550000086e-02,-1.009878702620000013e+01,4.011242091659999454e-01,-2.132799148559999747e+00,-2.027694880959999835e-01,0.000000000000000000e+00
2.809918684999999972e+00,-4.832514556980000542e+00,1.380955157950000123e-01,-1.027152259700000059e+01,4.223841726780000472e-01,-2.235877990720000152e+00,-2.277003824709999957e-01,0.000000000000000000e+00
2.814953036999999991e+00,-4.794642506959999828e+00,3.713294400569999709e-01,-1.051553359789999931e+01,4.290308654309999969e-01,-2.373632907869999809e+00,-2.455620020630000233e-01,0.000000000000000000e+00
2.819876156999999939e+00,-4.884607147790000603e+00,7.212041502830000006e-01,-1.082996896509999907e+01,4.461997151370000192e-01,-2.505833864209999540e+00,-2.885383367539999799e-01,0.000000000000000000e+00
2.824981673999999998e+00,-4.776694177819999609e+00,5.370628404300000769e-01,-1.104014082479999992e+01,4.678429067129999952e-01,-2.682871103290000114e+00,-3.348882794379999805e-01,0.000000000000000000e+00
2.829958737000000113e+00,-4.552717372390000072e+00,2.969630215869999978e-01,-1.119351586160000167e+01,5.153674483300000331e-01,-2.850705862049999872e+00,-3.664492666720000069e-01,0.000000000000000000e+00
2.834930459000000180e+00,-4.319091864130000680e+00,-2.238009922049999934e-01,-1.135912727950000090e+01,5.625668764110000053e-01,-3.046939134599999655e+00,-4.089476764199999614e-01,0.000000000000000000e+00
2.839951087000000207e+00,-4.159906972079999932e+00,-4.859824223380000419e-01,-1.159769638170000050e+01,6.139160990720000655e-01,-3.268790245059999933e+00,-4.112081229689999451e-01,0.000000000000000000e+00
2.844922126999999801e+00,-3.787178698080000405e+00,-9.169444567869999840e-01,-1.189340132949999962e+01,6.769332289699999672e-01,-3.468578577040000166e+00,-4.011785984040000530e-01,0.000000000000000000e+00
2.849904206999999801e+00,-3.566338729369999960e+00,-1.149544494460000177e+00,-1.215117899000000001e+01,6.939539909360000758e-01,-3.699378967290000375e+00,-3.824096024040000152e-01,0.000000000000000000e+00
2.854904063999999853e+00,-3.367238298780000250e+00,-1.704298803199999934e+00,-1.252138592880000090e+01,7.206831574439999111e-01,-3.926341533660000049e+00,-3.398301303390000028e-01,0.000000000000000000e+00
2.859918712999999890e+00,-3.189378224619999980e+00,-1.687833406089999988e+00,-1.247946051170000104e+01,7.239331603049999897e-01,-4.177299976349999611e+00,-3.005892336369999640e-01,0.000000000000000000e+00
2.864930933000000124e+00,-3.014764585040000000e+00,-1.539400355810000010e+00,-1.242998190279999982e+01,6.833968162540000613e-01,-4.458516597750000088e+00,-2.420554310080000049e-01,0.000000000000000000e+00
2.869910336999999867e+00,-2.982253477530000030e+00,-1.525083515040000171e+00,-1.229031507349999863e+01,6.398510932919999616e-01,-4.744632720950000326e+00,-1.903405934569999958e-01,0.000000000000000000e+00
2.874889446000000071e+00,-3.005834259609999837e+00,-2.095948635290000084e+00,-1.215650632250000029e+01,6.236944198610000489e-01,-5.072555065159999543e+00,-1.261344701050000072e-01,0.000000000000000000e+00
2.879917830000000123e+00,-3.177011494999999908e+00,-2.507925362229999955e+00,-1.215459961210000017e+01,6.138629317279999942e-01,-5.376051425930000960e+00,-6.602838635440000381e-02,0.000000000000000000e+00
2.884874223999999820e+00,-3.633768882300000058e+00,-2.360626138290000231e+00,-1.196609013359999807e+01,6.195668578149999828e-01,-5.712383747100000519e+00,-3.647386794909999660e-03,0.000000000000000000e+00
2.889847324000000217e+00,-5.401607699129999496e+00,-1.426245685789999884e+00,-1.201361760849999882e+01,5.643660426140000297e-01,-6.031346797940000393e+00,1.502373814580000022e-01,0.000000000000000000e+00
2.894874904999999998e+00,-5.457853317959999728e+00,-1.580938234860000069e+00,-1.174965453729999965e+01,5.505801439290000099e-01,-6.368812561039999487e+00,1.797062754630000259e-01,0.000000000000000000e+00
2.899923595000000187e+00,-6.778570006310000728e+00,-2.708579744260000144e+00,-1.117067976039999877e+01,5.684228539469999841e-01,-6.647500038150000456e+00,2.639261484150000059e-01,0.000000000000000000e+00
2.904939457999999863e+00,-8.772402229089999892e+00,-2.627287070190000406e+00,-1.058947795499999955e+01,5.234167575839999698e-01,-6.872604370119999473e+00,3.461150228980000576e-01,0.000000000000000000e+00
2.909958834000000216e+00,-9.681149643150000372e+00,-2.236693176890000245e+00,-1.184871229290000016e+01,3.835366368289999661e-01,-7.040026664730000938e+00,3.069554567339999873e-01,0.000000000000000000e+00
2.914985890000000079e+00,-1.392596747980000060e+01,-1.594163042609999970e+00,-1.291817224700000111e+01,1.837346106769999765e-01,-7.201085090639998576e+00,2.535959482190000003e-01,0.000000000000000000e+00
