t,ax,ay,az,wx,wy,wz,zv
4.974371000000000001e-03,-2.313605736179999983e+00,2.480296619940000058e-01,-9.503913253849999521e+00,-4.124888218939999976e-03,8.943057619040000600e-03,-1.837979652920000186e-03,1.000000000000000000e+00
1.002166999999999988e-02,-2.312771769570000302e+00,2.335670012739999857e-01,-9.529764903460000269e+00,-6.114511284980000093e-03,1.436004880819999894e-03,-9.098942391569999136e-03,1.000000000000000000e+00
1.500319599999999989e-02,-2.276840039970000173e+00,2.394334638889999978e-01,-9.505907642539998648e+00,2.339380560439999809e-03,4.139970522369999448e-03,6.275179795920000567e-03,1.000000000000000000e+00
2.004190000000000138e-02,-2.332541176669999938e+00,2.446552719240000229e-01,-9.479013790389998917e+00,-7.041207980359999626e-03,1.723040640350000097e-02,1.719052530829999828e-02,1.000000000000000000e+00
2.501934299999999944e-02,-2.271544271649999835e+00,2.073743927340000182e-01,-9.524193825330000251e+00,5.293146241459999873e-03,1.560299098490000071e-02,-9.255267214029999200e-04,1.000000000000000000e+00
3.000171000000000088e-02,-2.269982575290000248e+00,2.393544255689999956e-01,-9.529908695850000555e+00,-5.476841703060000496e-03,-9.357316885140000212e-04,-7.384206168349999669e-03,1.000000000000000000e+00
3.504345999999999850e-02,-2.327791205659999640e+00,2.276773952460000028e-01,-9.518141101170000340e+00,-7.842635735870000929e-03,-3.444197122010000164e-03,-9.191773133350000617e-04,1.000000000000000000e+00
4.000173399999999713e-02,-2.338181520640000066e+00,2.288748431360000113e-01,-9.523660741369999627e+00,-1.641236478460000045e-03,-1.010640244929999869e-02,2.915390068670000150e-03,1.000000000000000000e+00
4.503781700000000082e-02,-2.308468519419999865e+00,2.119221008999999933e-01,-9.542539629360000220e+00,8.864902891219999734e-03,2.198413014409999859e-03,1.095652207729999952e-02,1.000000000000000000e+00
4.998620699999999778e-02,-2.265742161239999941e+00,2.250831227030000159e-01,-9.528676523710000623e+00,-1.429628301410000059e-02,-1.189979072660000102e-02,3.441375447439999971e-03,1.000000000000000000e+00
5.499133400000000282e-02,-2.325527352379999968e+00,2.636233177710000097e-01,-9.490772617250000209e+00,2.910797484219999724e-03,7.144825067369999167e-04,5.426851101220000161e-03,1.000000000000000000e+00
5.998178099999999791e-02,-2.306062335060000024e+00,2.394714212790000074e-01,-9.531247835500000321e+00,-3.528921399269999842e-03,-8.517909795050000385e-03,-9.381737327199999536e-04,1.000000000000000000e+00
6.506159200000000142e-02,-2.297412287879999848e+00,2.298463367830000104e-01,-9.532011805610000721e+00,5.513825453819998917e-03,-5.843668710439999144e-03,2.847110154109999854e-03,1.000000000000000000e+00
7.004645299999999464e-02,-2.305953175600000016e+00,2.391435775640000094e-01,-9.567169043710000764e+00,-1.840237528090000324e-02,2.055115066470000057e-02,-1.186369103380000142e-03,1.000000000000000000e+00
7.504963500000000343e-02,-2.286118448189999874e+00,2.379713006480000115e-01,-9.550315524060000172e+00,2.104811603199999766e-03,6.849257275460000384e-03,2.982654375960000492e-03,1.000000000000000000e+00
8.002946399999999461e-02,-2.304621634740000147e+00,2.622791731529999781e-01,-9.499740936600000296e+00,-1.333784218879999900e-02,-5.927025340499999335e-04,5.265790969129999569e-03,1.000000000000000000e+00
8.504858099999999810e-02,-2.338684501729999976e+00,2.263252865179999906e-01,-9.539425881259999684e+00,1.781011931599999929e-03,-1.139242760839999889e-02,1.419522333889999821e-02,1.000000000000000000e+00
8.998721599999999488e-02,-2.282974158809999654e+00,2.419280389169999879e-01,-9.517301727730000493e+00,7.909444160759998912e-03,1.590543426569999974e-02,2.201359486210000167e-03,1.000000000000000000e+00
9.504223600000000216e-02,-2.303818355530000250e+00,2.657177510339999715e-01,-9.519695344869999687e+00,6.283270195130000353e-03,-4.381704144180000558e-03,-2.025495283310000012e-03,1.000000000000000000e+00
1.000102610000000031e-01,-2.301105443309999554e+00,2.560892690050000087e-01,-9.519372104269999468e+00,1.388135831800000122e-02,6.987485103310001056e-03,8.758567273620000010e-03,1.000000000000000000e+00
1.050024100000000044e-01,-2.259760456480000013e+00,2.536084850399999979e-01,-9.525701891810001598e+00,-1.157249324020000192e-02,-1.457345671950000150e-02,5.143458023670000046e-03,1.000000000000000000e+00
1.100126730000000053e-01,-2.271940139099999811e+00,2.536831942440000431e-01,-9.526247250730000005e+00,4.150132648649999985e-03,-8.920509368180000453e-03,-3.573078662159999939e-03,1.000000000000000000e+00
1.150323639999999981e-01,-2.297329285770000062e+00,2.499901849449999991e-01,-9.546112227150000962e+00,-1.575186848640000191e-03,-5.042260978369999397e-03,-6.113578099760000328e-03,1.000000000000000000e+00
1.200644720000000054e-01,-2.298996488330000254e+00,2.180147004210000183e-01,-9.522534952210000014e+00,2.950989175590000221e-03,6.332945078610000000e-03,1.117502572009999948e-03,1.000000000000000000e+00
1.250540410000000047e-01,-2.308626048070000270e+00,2.643806572110000142e-01,-9.524152908799999651e+00,1.080074580390000044e-03,9.180048480629999022e-03,1.485931780190000162e-02,1.000000000000000000e+00
1.300411989999999962e-01,-2.311848663380000168e+00,2.680451345350000070e-01,-9.527904370289999036e+00,-9.143484756350000325e-03,-2.990425098689999863e-03,1.196666620670000167e-02,1.000000000000000000e+00
1.350584770000000101e-01,-2.314864357940000339e+00,2.381641563390000105e-01,-9.551076571559999451e+00,4.620190709830000048e-03,4.434382542970000292e-03,2.401911886409999718e-03,1.000000000000000000e+00
1.400343679999999924e-01,-2.309527088559999886e+00,2.167784000910000231e-01,-9.541824174569999428e+00,-1.762476749720000074e-03,-3.979685716330000041e-04,-2.117000985889999805e-03,1.000000000000000000e+00
1.451067940000000112e-01,-2.307422955890000349e+00,2.777239767779999813e-01,-9.505559852010000199e+00,9.677084162830000211e-03,-1.385314855720000057e-02,-2.885692752900000189e-03,1.000000000000000000e+00
1.499677909999999892e-01,-2.293796289340000349e+00,2.623125822329999690e-01,-9.491686809480000875e+00,-5.304658785460000282e-03,-4.105921834709999369e-04,-9.487452916799998933e-04,1.000000000000000000e+00
1.550269860000000055e-01,-2.317811371179999913e+00,2.180594346119999749e-01,-9.523308274670000628e+00,3.592657856639999790e-03,5.954527296130000986e-03,8.554613217710000175e-03,1.000000000000000000e+00
1.600474839999999899e-01,-2.297276386540000104e+00,1.619114126660000097e-01,-9.551504441589999672e+00,-6.742274854330000330e-03,-3.993457183239999299e-03,7.085482589900000093e-03,1.000000000000000000e+00
1.650177600000000133e-01,-2.253575338110000104e+00,2.097464008289999793e-01,-9.515349424620000107e+00,-4.883803892879999900e-03,1.510503143069999964e-02,-8.288953453299999913e-03,1.000000000000000000e+00
1.700426369999999965e-01,-2.312864708549999815e+00,2.359401236140000191e-01,-9.524254615610001196e+00,1.815616386010000154e-03,1.646864227949999858e-03,-7.873231545090000547e-03,1.000000000000000000e+00
1.750395319999999977e-01,-2.294243302449999966e+00,2.775221523300000492e-01,-9.511551785900000056e+00,6.939582992350000479e-03,-5.071680992839999735e-03,5.979787558319999037e-03,1.000000000000000000e+00
1.800153600000000131e-01,-2.336999325119999860e+00,2.478625252660000000e-01,-9.527470070530000612e+00,2.753603737800000215e-03,1.274297013880000204e-03,1.086463313550000039e-02,1.000000000000000000e+00
1.850237200000000026e-01,-2.300410446779999951e+00,2.561857881819999960e-01,-9.525323121630000500e+00,9.185722097749999399e-03,5.914745852350000374e-03,2.158617135140000526e-04,1.000000000000000000e+00
1.899977589999999883e-01,-2.313308945190000188e+00,2.394921900719999830e-01,-9.522175471249999745e+00,-8.839799091219999183e-03,1.234270166609999914e-02,5.771128460759999967e-03,1.000000000000000000e+00
1.950173639999999986e-01,-2.283261597450000124e+00,2.385228701159999853e-01,-9.498206566639998627e+00,-1.167404931039999968e-02,1.291404850779999912e-02,-5.798117257649999627e-03,1.000000000000000000e+00
2.000470089999999979e-01,-2.292615408990000159e+00,2.405932831819999895e-01,-9.528427517380000822e+00,-8.277883753179999041e-03,-7.846942171450000877e-03,-5.913573317229999307e-03,1.000000000000000000e+00
2.053020590000000090e-01,-2.357282380820000078e+00,2.384839446110000039e-01,-9.509645660020000335e+00,3.380310954530000266e-03,7.432441227140000953e-03,1.170161645859999974e-02,1.000000000000000000e+00
2.103373520000000052e-01,-2.303618449040000016e+00,2.310175907860000100e-01,-9.543301845910001191e+00,1.324594020839999810e-02,6.496688351039999615e-03,7.336908020079999787e-03,1.000000000000000000e+00
2.152116990000000063e-01,-2.282291729509999811e+00,2.368933144189999951e-01,-9.541659339400000661e+00,1.271343324329999962e-02,8.436753414570000468e-04,4.349114373330000005e-03,1.000000000000000000e+00
2.201940069999999972e-01,-2.264220650759999565e+00,2.155431409420000000e-01,-9.542164366310000645e+00,1.425190595909999955e-03,4.853750579060000896e-03,-1.717848517000000047e-02,1.000000000000000000e+00
2.252287769999999911e-01,-2.346103253549999934e+00,2.391872888419999954e-01,-9.557922491930000319e+00,-1.768081635240000352e-02,2.666289918119999804e-03,4.433342255650000140e-03,1.000000000000000000e+00
2.302408200000000127e-01,-2.286081623309999866e+00,2.467361333179999838e-01,-9.505811196430000720e+00,-5.705120041970000548e-03,-4.654256161300000111e-03,1.068799523639999902e-03,1.000000000000000000e+00
2.352918009999999949e-01,-2.314173014670000139e+00,2.357750144460000197e-01,-9.534424127450000341e+00,7.133080624039999339e-03,1.302260439839999888e-03,1.311778742820000031e-02,1.000000000000000000e+00
2.402034969999999880e-01,-2.255614150459999578e+00,2.635133728569999945e-01,-9.489380286110000284e+00,1.061180606480000010e-03,1.300881244239999839e-02,-3.178089158609999961e-03,1.000000000000000000e+00
2.451968629999999871e-01,-2.301124732529999939e+00,2.180949443160000167e-01,-9.515238949980000527e+00,4.469593055550000367e-03,-4.648827947679999920e-03,2.708439482379999645e-03,1.000000000000000000e+00
2.502201589999999976e-01,-2.298524486899999886e+00,2.324373213910000124e-01,-9.509244678010000840e+00,9.893986396490001001e-03,-4.193729721010000175e-03,4.955573938790000174e-03,1.000000000000000000e+00
2.553383909999999979e-01,-2.287451450359999860e+00,2.097991904619999903e-01,-9.517176055529999346e+00,1.817229669540000115e-03,1.788928173479999856e-02,-2.908605849369999986e-03,1.000000000000000000e+00
2.602040389999999981e-01,-2.314356554550000222e+00,2.322803041979999705e-01,-9.533838436510000847e+00,-2.160844160239999961e-03,5.310538224880000102e-03,-5.557585973290000113e-04,1.000000000000000000e+00
2.652103000000000099e-01,-2.297353689559999523e+00,2.418582981490000061e-01,-9.525632333700000842e+00,6.773291970599999972e-04,-3.753184573719999580e-03,-5.561778321859999451e-03,1.000000000000000000e+00
2.702450499999999867e-01,-2.326221910520000158e+00,2.359114820410000146e-01,-9.534500115289999300e+00,3.929271828379999817e-03,3.468563780189999873e-03,-6.890914402899999541e-03,1.000000000000000000e+00
2.751582719999999815e-01,-2.293886013449999872e+00,1.928854467960000041e-01,-9.537987957410001272e+00,-4.411974456159999461e-03,-1.729958690699999815e-02,-5.323207005860000195e-05,1.000000000000000000e+00
2.800010179999999904e-01,-2.284929676790000030e+00,2.465962499240000050e-01,-9.513561372160001639e+00,-4.673409275709999866e-03,-4.848483484239999447e-03,6.353802978989999718e-03,1.000000000000000000e+00
2.849968520000000227e-01,-2.262615992050000191e+00,2.180456800810000040e-01,-9.527869883500001080e+00,-1.060721557589999926e-02,8.218890056009999986e-03,-1.595168560739999852e-02,1.000000000000000000e+00
2.900241559999999774e-01,-2.350369532690000263e+00,2.324430752780000109e-01,-9.517000114439998271e+00,-1.213397365059999981e-03,-1.380567438899999930e-02,2.348018111659999716e-03,1.000000000000000000e+00
2.951464970000000076e-01,-2.261877594770000055e+00,2.549562646530000309e-01,-9.515591416679999526e+00,-5.250260233880000085e-03,1.208704896269999956e-03,-1.025293115530000014e-02,1.000000000000000000e+00
3.001641939999999953e-01,-2.317821161919999984e+00,2.120873744650000059e-01,-9.530140166519998957e+00,1.275796536360000039e-02,7.963207550349999872e-03,-5.683521740140000042e-03,1.000000000000000000e+00
3.051212280000000221e-01,-2.328475534659999902e+00,2.228754200589999901e-01,-9.524014377110001206e+00,-1.392174744979999927e-03,9.024800732729999428e-03,1.445105299349999997e-04,1.000000000000000000e+00
3.101759390000000116e-01,-2.296767852489999928e+00,2.421024456360000021e-01,-9.495918747959999351e+00,1.635547727349999673e-03,-1.679425593469999938e-03,-3.286158666010000149e-03,1.000000000000000000e+00
3.152490490000000034e-01,-2.286606085569999891e+00,2.322653806239999841e-01,-9.530608953069998890e+00,-3.875440452249999997e-03,2.305403817449999757e-03,-8.977368474009999114e-03,1.000000000000000000e+00
3.202618219999999738e-01,-2.295975825329999775e+00,2.322675908469999939e-01,-9.514992866269999183e+00,2.239659428599999856e-03,-1.407013833520000083e-02,9.042746387419999671e-03,1.000000000000000000e+00
3.252369379999999754e-01,-2.261636479489999907e+00,2.418628281940000124e-01,-9.512226908689999760e+00,4.740572534500000004e-03,-5.480661988259999395e-03,1.705939183010000016e-03,1.000000000000000000e+00
3.304170830000000003e-01,-2.289894313460000053e+00,2.251715499049999902e-01,-9.520203878920000307e+00,-5.388333811419999692e-04,7.284986786540000037e-03,4.358383826910000071e-03,1.000000000000000000e+00
3.354344149999999858e-01,-2.283006307520000000e+00,2.311253437430000057e-01,-9.531339605439999474e+00,-4.451037966649999981e-05,1.228646654639999926e-02,-1.110782288009999966e-02,1.000000000000000000e+00
3.404286790000000118e-01,-2.336433069540000407e+00,2.262830365450000103e-01,-9.538633269580000018e+00,-1.874894462529999931e-02,-2.193627413359999952e-03,3.664729418230000361e-03,1.000000000000000000e+00
3.454184000000000143e-01,-2.273438999359999713e+00,2.349811241220000069e-01,-9.490179912050001221e+00,-1.335490588100000063e-02,8.667758665980000330e-04,-6.830608472229999194e-03,1.000000000000000000e+00
3.504505090000000211e-01,-2.294052456059999745e+00,2.311195715900000169e-01,-9.523583584480000752e+00,1.019658893350000074e-02,-2.364322077480000145e-03,-6.284795701500000588e-03,1.000000000000000000e+00
3.554250649999999845e-01,-2.318507536750000320e+00,2.332587207759999892e-01,-9.544366844789999860e+00,-2.127137221400000194e-02,2.027533017100000001e-03,1.525964308529999952e-02,1.000000000000000000e+00
3.604007830000000023e-01,-2.258461064320000045e+00,2.262555274830000129e-01,-9.543300092339999097e+00,6.040452979510000861e-03,2.893268130719999984e-03,-1.155880931759999987e-02,1.000000000000000000e+00
3.654427270000000227e-01,-2.272582528660000101e+00,2.477397756689999897e-01,-9.522832473850000312e+00,-7.193902973090000354e-03,4.747726488860000080e-03,-1.633048430089999864e-02,1.000000000000000000e+00
3.704478130000000147e-01,-2.314035505900000178e+00,2.429605237699999642e-01,-9.526304533879999425e+00,-1.069644372910000078e-02,-1.447173580529999976e-02,-1.231113914399999988e-03,1.000000000000000000e+00
3.754628340000000231e-01,-2.292786235509999937e+00,2.271892098710000252e-01,-9.557510988520000694e+00,4.914658609779999632e-03,-3.123651724309999857e-03,8.350045420229998752e-03,1.000000000000000000e+00
3.804648270000000054e-01,-2.295909482099999899e+00,2.214819746720000093e-01,-9.541156650569998732e+00,3.959964029489999697e-03,7.786892354489999973e-03,5.469349212939999920e-03,1.000000000000000000e+00
3.854579320000000031e-01,-2.302525685370000019e+00,2.597825340320000231e-01,-9.519561489360000905e+00,-1.993026025590000083e-02,-1.598789170380000152e-02,-1.011808752079999948e-03,1.000000000000000000e+00
3.904598309999999795e-01,-2.288112398480000031e+00,2.465229106930000025e-01,-9.527489359749999664e+00,-1.374790351839999883e-02,1.588385179639999895e-02,2.874012570830000246e-04,1.000000000000000000e+00
3.954418080000000058e-01,-2.310413662140000213e+00,2.512494825569999701e-01,-9.540018001930000935e+00,-3.603942925110000060e-03,-1.046361587939999976e-02,1.997537212450000051e-03,1.000000000000000000e+00
4.003034300000000156e-01,-2.304154747879999743e+00,2.491905224669999919e-01,-9.494111406280000054e+00,1.484645903110000040e-02,4.033046774570000353e-03,1.154648698870000025e-02,1.000000000000000000e+00
4.054185220000000034e-01,-2.261837993409999914e+00,2.538872654479999991e-01,-9.509095624920000489e+00,2.046307316050000220e-03,-3.744835732500000069e-03,-1.022487878800000007e-02,1.000000000000000000e+00
4.104081130000000188e-01,-2.314267122700000012e+00,2.096283639400000065e-01,-9.532961069160000633e+00,-6.769860628989999782e-03,-7.072836626319999216e-03,4.376375582069999895e-04,1.000000000000000000e+00
4.154361060000000272e-01,-2.301958260740000206e+00,2.658004608810000113e-01,-9.507924243060001501e+00,1.075873523949999987e-02,-1.364822266620000077e-03,-1.998609397560000261e-03,1.000000000000000000e+00
4.204084860000000257e-01,-2.307414772590000052e+00,2.061955216809999991e-01,-9.516304533390000486e+00,-2.575862919909999681e-03,3.918786998839999917e-03,6.385957822199999322e-03,1.000000000000000000e+00
4.254833359999999898e-01,-2.333695169009999848e+00,2.360994971599999770e-01,-9.515241872589999872e+00,1.097569987179999873e-02,8.009140379729998843e-03,5.846868269149999887e-03,1.000000000000000000e+00
4.303472340000000229e-01,-2.273598281569999990e+00,1.760371330490000108e-01,-9.566101706739999599e+00,-9.436184540390000347e-03,-7.022840902210000097e-03,-4.549172706900000106e-03,1.000000000000000000e+00
4.355049200000000176e-01,-2.270872655999999878e+00,2.419728827059999809e-01,-9.498018935110000172e+00,-2.018235996370000215e-02,-8.637355640529999906e-03,-5.325011443350000963e-03,1.000000000000000000e+00
4.404862520000000226e-01,-2.333016977479999809e+00,2.417723368989999899e-01,-9.538542084159999490e+00,-1.246882602570000172e-02,4.363406915219999842e-03,4.173013381659999334e-03,1.000000000000000000e+00
4.454692490000000116e-01,-2.299375843040000422e+00,2.239558357060000005e-01,-9.528194877669999840e+00,1.290541328490000042e-02,9.585655294360000134e-03,5.539287813009999978e-03,1.000000000000000000e+00
4.503972729999999869e-01,-2.266803506860000095e+00,2.379837400039999940e-01,-9.544649753389998992e+00,6.159285549069999123e-03,-1.223515253509999991e-02,5.072729662060000352e-03,1.000000000000000000e+00
4.554259050000000197e-01,-2.291934148729999787e+00,2.158866936820000026e-01,-9.499438738780000335e+00,9.064103476700001091e-03,1.264192629609999906e-03,1.440334366629999942e-03,1.000000000000000000e+00
4.603730710000000226e-01,-2.260749759779999923e+00,2.596079446499999777e-01,-9.525347087020000103e+00,-5.946496035899999887e-03,6.484532728789999152e-03,-8.618451654909998691e-03,1.000000000000000000e+00
4.654616300000000151e-01,-2.313387855649999825e+00,2.238569419090000179e-01,-9.540089313599999343e+00,3.804071340709999725e-03,1.232311129570000038e-02,-6.937128491700000248e-04,1.000000000000000000e+00
4.704773910000000225e-01,-2.289394839509999890e+00,2.359695871699999670e-01,-9.517344397829999636e+00,-3.988183103499999549e-03,8.403840474779999264e-03,-7.921308279039999609e-03,1.000000000000000000e+00
4.754123319999999930e-01,-2.295022762390000359e+00,2.667854350639999872e-01,-9.525087559299999285e+00,2.456001937390000014e-03,-3.525598905980000235e-03,-5.936995614319999851e-03,1.000000000000000000e+00
4.804712609999999828e-01,-2.315592379950000002e+00,2.012256608460000207e-01,-9.545740471230001134e+00,2.485835691909999822e-03,6.473947316410000492e-03,4.764967598019999892e-04,1.000000000000000000e+00
4.855056819999999940e-01,-2.281457616770000030e+00,2.360486437559999873e-01,-9.497800908449999469e+00,2.234732918440000132e-02,5.685961805279999594e-03,2.041938947509999800e-03,1.000000000000000000e+00
4.904366510000000012e-01,-2.298205922470000218e+00,2.262070304330000003e-01,-9.541439559169999640e+00,1.688994467260000049e-02,-2.715367823840000340e-03,4.682474769649999820e-03,1.000000000000000000e+00
4.954360329999999979e-01,-2.252631773650000113e+00,2.549421447960000253e-01,-9.506784425370000235e+00,2.327626571059999755e-04,-4.876635037359999467e-03,2.328013069929999867e-04,1.000000000000000000e+00
5.003018670000000112e-01,-2.294870348309999919e+00,2.217992056619999819e-01,-9.506430205110000031e+00,3.960862290110000149e-03,-1.102538779380000120e-03,-5.524772685020000636e-03,1.000000000000000000e+00
5.053678689999999696e-01,-2.318409775459999711e+00,2.203518929300000151e-01,-9.531783257549999888e+00,8.739807643000000945e-03,2.049995120610000054e-03,6.162647157909999576e-03,1.000000000000000000e+00
5.102708339999999509e-01,-2.282708201349999744e+00,1.915100850560000068e-01,-9.563906242519999878e+00,2.648064168170000381e-03,-9.702847339209999186e-03,1.804257975890000186e-03,1.000000000000000000e+00
5.153638130000000039e-01,-2.320488189169999771e+00,2.002208677179999896e-01,-9.529842060349999144e+00,-1.023965608330000034e-02,2.708723768589999924e-03,4.017186351120000110e-03,1.000000000000000000e+00
5.202458840000000473e-01,-2.259742336309999988e+00,2.265440255689999960e-01,-9.496534834039998429e+00,-7.669958751649999344e-03,-7.058153860270000371e-03,-5.566620733589999932e-03,1.000000000000000000e+00
5.254176579999999541e-01,-2.323986698809999751e+00,2.362985999289999861e-01,-9.484756717959999861e+00,2.056913217529999821e-04,1.507106795910000130e-02,-1.817849930380000109e-03,1.000000000000000000e+00
5.303903530000000366e-01,-2.291030331760000038e+00,2.261176351159999987e-01,-9.557719662839998520e+00,1.367220003160000107e-02,5.652694962919999804e-04,-1.017987169329999907e-02,1.000000000000000000e+00
5.355435039999999480e-01,-2.278319757129999790e+00,2.215882297920000188e-01,-9.521406824959999682e+00,3.472356474960000051e-04,3.498303703960000018e-03,-1.280752662570000186e-02,1.000000000000000000e+00
5.402353250000000440e-01,-2.321056782839999943e+00,2.277620230559999903e-01,-9.495212061000000148e+00,-8.539030328390000493e-03,-7.021832279860000829e-04,6.442110985519999833e-03,1.000000000000000000e+00
5.453747119999999837e-01,-2.290391303199999840e+00,2.266059483560000087e-01,-9.502750055289999054e+00,4.912433214489999450e-03,1.251668669280000049e-02,-3.993118647490000346e-03,1.000000000000000000e+00
5.504321279999999650e-01,-2.311540474209999640e+00,2.431287199439999824e-01,-9.503854801659999296e+00,-6.707872729749999284e-03,3.785788547249999657e-03,1.357006002220000063e-02,1.000000000000000000e+00
5.553467589999999676e-01,-2.257421930530000065e+00,2.347343280209999994e-01,-9.513228194679999916e+00,-1.611264608800000095e-02,2.693198621269999801e-03,1.626432640480000120e-03,1.000000000000000000e+00
5.603610249999999571e-01,-2.321585044499999917e+00,2.575352848279999773e-01,-9.501828848789999782e+00,-8.997981785800001188e-04,-8.142127189789999560e-04,7.960527203979999786e-03,1.000000000000000000e+00
5.652535469999999673e-01,-2.276867950890000269e+00,2.334062577549999851e-01,-9.524301961880000889e+00,1.172305736689999850e-02,8.129475172610000451e-04,1.200706046070000241e-02,1.000000000000000000e+00
5.703344000000000191e-01,-2.262486812710000184e+00,2.501480423879999804e-01,-9.524855504110000481e+00,5.933981388810000319e-03,8.350877091289999471e-03,-4.563093185420000371e-03,1.000000000000000000e+00
5.751964630000000467e-01,-2.257955306760000003e+00,2.166896988950000047e-01,-9.530241873330000502e+00,-3.271293826400000285e-03,-1.377566484730000053e-03,-8.476453833279998934e-03,1.000000000000000000e+00
5.804370779999999952e-01,-2.320322477209999956e+00,2.086645056099999951e-01,-9.512294128700000684e+00,-9.804513538260002051e-04,1.218326762319999965e-02,-1.372415921650000118e-03,1.000000000000000000e+00
5.852838729999999545e-01,-2.305694670790000345e+00,2.538582768159999836e-01,-9.510430088399999704e+00,1.621124520900000046e-02,-8.076094090939999262e-03,1.696830848230000211e-03,1.000000000000000000e+00
5.904759929999999768e-01,-2.322389054359999871e+00,2.453962995489999965e-01,-9.528117136260000564e+00,1.167975552379999990e-02,-7.492281496520000403e-03,1.074411626910000070e-02,1.000000000000000000e+00
5.953535290000000479e-01,-2.258476700280000138e+00,2.454444130079999897e-01,-9.521065464179999438e+00,-1.530301757160000033e-03,1.194559875880000024e-02,-1.095377188179999864e-02,1.000000000000000000e+00
6.003249980000000541e-01,-2.290969103090000125e+00,2.346368955279999891e-01,-9.519540446569999759e+00,-7.072343956680000009e-03,-8.420952595769999952e-03,2.981880679730000163e-04,1.000000000000000000e+00
6.052344509999999511e-01,-2.296543980610000091e+00,2.132133645540000011e-01,-9.538431024999999508e+00,-7.108160294589999616e-03,1.057589892300000002e-03,-7.162258960310000262e-03,1.000000000000000000e+00
6.104657740000000166e-01,-2.306598487770000094e+00,2.453412083610000127e-01,-9.524079259039998746e+00,2.637529745699999581e-03,-2.959188539530000286e-03,6.649730727079999903e-03,1.000000000000000000e+00
6.153356439999999594e-01,-2.288476555619999964e+00,2.370420387070000245e-01,-9.524929153869999610e+00,-7.492664735760001110e-03,6.926737725729999184e-03,6.272489205000000498e-03,1.000000000000000000e+00
6.204869389999999596e-01,-2.288511334669999897e+00,2.229850727120000209e-01,-9.500894782810000549e+00,1.017487328500000024e-02,-1.101020164789999999e-02,4.610789008439999254e-03,1.000000000000000000e+00
6.252488269999999515e-01,-2.304221529499999921e+00,2.322375427690000216e-01,-9.535277529410000952e+00,1.421789405869999844e-03,-9.985519573089999060e-03,6.106758490199999841e-03,1.000000000000000000e+00
6.304010839999999449e-01,-2.286819582190000144e+00,2.333341058339999941e-01,-9.546021626259999948e+00,6.614247336979999642e-03,7.942353375259999376e-03,-1.275560352950000191e-03,1.000000000000000000e+00
6.353938160000000002e-01,-2.283432423970000347e+00,2.478678590280000149e-01,-9.512944117050000870e+00,9.590735658999999941e-03,-5.143924150620000219e-03,-6.559292785819999770e-03,1.000000000000000000e+00
6.404298529999999934e-01,-2.294923393669999978e+00,2.252858787339999946e-01,-9.510420151529999089e+00,1.021008100359999983e-02,-7.487866561859999638e-03,-5.556567106399999158e-03,1.000000000000000000e+00
6.454164369999999540e-01,-2.326401066479999891e+00,2.501767204929999933e-01,-9.527979773610001146e+00,-1.340789953249999986e-03,2.421797253189999838e-04,2.524977782739999850e-03,1.000000000000000000e+00
6.504739149999999581e-01,-2.294037696879999810e+00,2.320048482580000238e-01,-9.558218844529999814e+00,-3.394257277250000218e-03,4.103987477719999756e-03,3.674302017320000419e-03,1.000000000000000000e+00
6.554577820000000443e-01,-2.307661294689999920e+00,2.370729818350000018e-01,-9.525807690269999739e+00,6.107650231569999345e-03,1.166950818149999937e-02,7.588706910609999481e-03,1.000000000000000000e+00
6.604243990000000508e-01,-2.263712116720000278e+00,2.383379785360000003e-01,-9.509641568370000186e+00,-1.112389750779999888e-02,1.069062389430000017e-02,-1.722781104039999974e-03,1.000000000000000000e+00
6.653888380000000380e-01,-2.278290823300000323e+00,2.444063569300000405e-01,-9.502077855119999583e+00,-5.281159188600000748e-03,1.337966416030000058e-03,-1.147087849679999903e-02,1.000000000000000000e+00
6.704219129999999804e-01,-2.290907436029999911e+00,2.180957845670000173e-01,-9.518574816410000139e+00,-5.831198766829999783e-03,-5.446120165290000044e-03,-1.502566784620000019e-02,1.000000000000000000e+00
6.755025839999999615e-01,-2.336668047340000332e+00,1.929677365180000048e-01,-9.541818913869999363e+00,4.328526090829999846e-03,-3.371285274619999824e-04,-2.809900091960000103e-03,1.000000000000000000e+00
6.803957470000000507e-01,-2.292355150620000170e+00,2.657530963420000059e-01,-9.500485032969999466e+00,5.149350501600000705e-03,-2.947827102619999824e-03,5.771424621340000109e-03,1.000000000000000000e+00
6.854984379999999877e-01,-2.289912872029999935e+00,2.380101713540000163e-01,-9.554476735399999754e+00,3.385912859810000144e-03,-3.927108831700000004e-03,1.211900962520000031e-03,1.000000000000000000e+00
6.904061830000000066e-01,-2.336967322540000058e+00,2.467335943019999811e-01,-9.521430790360000174e+00,-9.782048873600001151e-03,-8.268253877760001549e-03,4.901542328300000084e-03,1.000000000000000000e+00
6.954818940000000449e-01,-2.272646972200000004e+00,2.405252959799999979e-01,-9.532287699939999470e+00,-1.569781452420000029e-03,-2.290925476699999758e-04,-4.786942154169999877e-04,1.000000000000000000e+00
7.003381600000000429e-01,-2.277568792640000339e+00,2.441186077639999896e-01,-9.525437687920000229e+00,-4.953180905430000676e-03,-8.482031524180000739e-03,1.570459688080000056e-03,1.000000000000000000e+00
7.052695230000000093e-01,-2.302889257979999993e+00,2.406411226449999829e-01,-9.530292142210001316e+00,7.475086953489999339e-03,4.376590251920000132e-03,-2.417046111079999750e-03,1.000000000000000000e+00
7.104220350000000073e-01,-2.304508237490000333e+00,2.443334378249999994e-01,-9.522494620199999815e+00,4.058945458380000190e-03,5.632296204570000006e-03,3.613153239709999704e-03,1.000000000000000000e+00
7.153687739999999851e-01,-2.292094746120000082e+00,2.130957660560000022e-01,-9.566987257399999223e+00,6.392712821249999693e-04,6.186734884980000029e-03,-7.376530207689998946e-03,1.000000000000000000e+00
7.201887959999999644e-01,-2.327467234399999807e+00,2.467014455980000021e-01,-9.534159339029999458e+00,1.031015813349999907e-02,8.243472315370000900e-03,-2.447896869849999942e-03,1.000000000000000000e+00
7.252787179999999889e-01,-2.332214867319999829e+00,2.051112883740000004e-01,-9.527980942660001062e+00,-7.988947909330000553e-04,-4.793117754159999591e-03,6.397155113520000547e-03,1.000000000000000000e+00
7.302892450000000313e-01,-2.290902321459999946e+00,2.361460762479999920e-01,-9.503972875080000549e+00,5.209239665420000408e-03,-6.354982964689999229e-03,8.499099873010000639e-03,1.000000000000000000e+00
7.354893249999999716e-01,-2.319784424809999912e+00,2.216455677359999987e-01,-9.544597146419999234e+00,1.381102390589999951e-02,-1.516994182020000095e-02,7.458776235579999379e-03,1.000000000000000000e+00
7.404598629999999959e-01,-2.268410503670000189e+00,2.301233453599999812e-01,-9.512311664360000307e+00,-2.182359341530000062e-03,9.599106386300000279e-03,-1.358191715550000024e-03,1.000000000000000000e+00
7.454626880000000400e-01,-2.303640660870000190e+00,2.254242825570000053e-01,-9.504030158229999969e+00,1.283488795159999987e-02,-8.181869983670000956e-03,9.590224362910000286e-03,1.000000000000000000e+00
7.502560419999999564e-01,-2.266554938930000151e+00,2.252251980550000199e-01,-9.530020339530000939e+00,2.992262598129999829e-03,-7.121253293010000075e-03,-2.068856265400000147e-03,1.000000000000000000e+00
7.552394900000000133e-01,-2.268905593710000002e+00,2.503751474079999872e-01,-9.498810962269999436e+00,3.557901829480000343e-03,5.988008342679999353e-03,1.753111602739999960e-03,1.000000000000000000e+00
7.603817139999999863e-01,-2.287419740040000260e+00,2.525143696599999599e-01,-9.537422140220000344e+00,-1.539134653289999950e-03,-1.268402393910000175e-02,1.556844683359999816e-03,1.000000000000000000e+00
7.653944729999999641e-01,-2.326661763240000180e+00,2.252688180009999874e-01,-9.536374092470000008e+00,-1.825736369939999970e-03,1.177092548459999881e-02,6.505534052849999867e-03,1.000000000000000000e+00
7.704286089999999865e-01,-2.267673859959999927e+00,1.908743809679999959e-01,-9.516426698460000111e+00,-8.871540194380000618e-04,4.078868310899999572e-03,-8.506539277729999182e-03,1.000000000000000000e+00
7.754392719999999573e-01,-2.304218899149999888e+00,2.275500973390000015e-01,-9.533791674760001555e+00,-1.215015538039999985e-03,-3.202023450290000187e-03,2.101672580469999933e-03,1.000000000000000000e+00
7.804611500000000479e-01,-2.302333377670000125e+00,2.251472922470000027e-01,-9.543983982949999501e+00,-4.484839737420000076e-03,-5.783383268859999815e-03,2.563994610679999619e-03,1.000000000000000000e+00
7.853474809999999584e-01,-2.303658196529999813e+00,2.323546480759999810e-01,-9.541270047819999434e+00,1.577298971820000051e-04,8.916827850040000628e-03,-2.945098327469999628e-03,1.000000000000000000e+00
7.901726310000000142e-01,-2.293424241159999877e+00,2.203450613309999861e-01,-9.543173251089999809e+00,-3.794752759860000203e-03,-1.245297258720000095e-03,2.566829789430000066e-04,1.000000000000000000e+00
7.951310620000000551e-01,-2.276749439080000048e+00,2.156127903779999910e-01,-9.536260110700000681e+00,-8.549267658959999348e-05,-4.859391134229999742e-03,-1.922147348520000104e-04,1.000000000000000000e+00
8.001101870000000282e-01,-2.317002685140000295e+00,2.370422031040000099e-01,-9.547409281230001099e+00,-5.203699227420000364e-03,-5.956409499050000292e-03,3.572152694689999849e-03,1.000000000000000000e+00
8.055095340000000270e-01,-2.285706652520000048e+00,2.287452436740000095e-01,-9.541556463550000089e+00,-2.156110713260000252e-03,2.404286526139999894e-03,-5.629953462630000321e-03,1.000000000000000000e+00
8.103459520000000360e-01,-2.300631103790000243e+00,2.406757007679999893e-01,-9.541368247499999455e+00,-1.452719606459999986e-02,1.410138420760000122e-02,-1.200402528050000146e-02,1.000000000000000000e+00
8.154272230000000343e-01,-2.282845271729999848e+00,2.370593003689999978e-01,-9.521651155109999820e+00,6.125632789919999632e-04,-4.856561776249999733e-03,3.663219744340000337e-03,1.000000000000000000e+00
8.204436920000000022e-01,-2.237820427359999531e+00,2.491880199829999976e-01,-9.501013440760001316e+00,7.379039656370000450e-03,1.666142139579999699e-03,-1.142700109629999836e-02,1.000000000000000000e+00
8.252874930000000386e-01,-2.349492603729999907e+00,2.505357265309999804e-01,-9.502046875459999598e+00,5.905175115909999835e-03,-7.013639435170001060e-03,6.637684069569999533e-03,1.000000000000000000e+00
8.302707729999999620e-01,-2.285624234930000220e+00,1.871320343679999942e-01,-9.535552839219999299e+00,-2.843589521940000000e-03,8.912838995460000205e-03,1.940444344649999882e-03,1.000000000000000000e+00
8.352653249999999474e-01,-2.265893260149999922e+00,2.215459250199999786e-01,-9.540867312239999620e+00,3.296777373179999790e-03,-3.185197478159999731e-03,-7.661391049619999984e-03,1.000000000000000000e+00
8.402196379999999909e-01,-2.332533724010000142e+00,2.263378172060000193e-01,-9.542870468749999446e+00,9.719043038790000852e-03,7.687903009359999158e-03,9.431869722899999253e-03,1.000000000000000000e+00
8.453610280000000143e-01,-2.256599508239999885e+00,2.288185646379999882e-01,-9.523170912030000324e+00,-1.874697208399999857e-02,1.206950284539999932e-02,-2.383821178230000146e-03,1.000000000000000000e+00
8.503980399999999662e-01,-2.319335511999999877e+00,2.338660938190000038e-01,-9.502058565889999642e+00,5.365416407589999534e-03,3.498776815829999793e-03,2.608102047820000293e-03,1.000000000000000000e+00
8.554692630000000353e-01,-2.293379086840000358e+00,2.550042685130000097e-01,-9.526566399680000075e+00,8.340351283550000508e-03,-8.637729100879999039e-03,3.045423654840000161e-03,1.000000000000000000e+00
8.603408059999999580e-01,-2.279560843240000079e+00,2.752442887920000247e-01,-9.524335279629999818e+00,5.648531485350000679e-03,-7.596202194689999614e-04,-3.392936894670000019e-03,1.000000000000000000e+00
8.652826559999999834e-01,-2.333000026349999700e+00,2.251771211300000186e-01,-9.545985970429999412e+00,2.099538687619999754e-04,-1.731536351140000249e-02,5.993102677169999913e-03,1.000000000000000000e+00
8.703534280000000400e-01,-2.251171345709999994e+00,2.108082944400000158e-01,-9.542152091349999310e+00,-5.662603769450000671e-03,-7.705313153560000745e-03,-8.154509589080000814e-03,1.000000000000000000e+00
8.754143159999999702e-01,-2.365696427290000070e+00,2.170956493470000137e-01,-9.516209256319999810e+00,-9.071787819270000358e-03,1.655167341229999908e-02,1.971001364290000252e-02,1.000000000000000000e+00
8.804973130000000037e-01,-2.259674385639999894e+00,2.564114501639999655e-01,-9.500404368949999068e+00,-5.306630861010000824e-03,1.461344957349999980e-02,4.232548177239999626e-03,1.000000000000000000e+00
8.854881580000000252e-01,-2.300292957879999989e+00,2.374961574170000034e-01,-9.499386131810000578e+00,4.977582953869999841e-03,-8.438726887109998867e-03,-5.941738374530000123e-03,1.000000000000000000e+00
8.904325819999999725e-01,-2.307999148340000417e+00,2.191373843079999773e-01,-9.552217558289999744e+00,-9.553882293400000128e-03,8.305123075840000271e-03,-3.872015979139999901e-03,1.000000000000000000e+00
8.954285969999999928e-01,-2.289432395039999957e+00,2.135802251049999934e-01,-9.500180497060000562e+00,3.598814364519999781e-03,1.305642537769999972e-02,-2.698825672270000267e-03,1.000000000000000000e+00
9.003098139999999860e-01,-2.289467758609999848e+00,2.227708271730000078e-01,-9.537263150270000267e+00,-5.314450711010000952e-03,-1.481572631749999980e-03,-8.760003838689998891e-04,1.000000000000000000e+00
9.055123360000000288e-01,-2.304655683140000022e+00,2.611701159329999911e-01,-9.503775891210000992e+00,2.526842989030000323e-03,3.097863867880000250e-03,2.343726577239999692e-03,1.000000000000000000e+00
9.103590729999999631e-01,-2.293146593259999921e+00,2.073708308040000114e-01,-9.525531211419998812e+00,-2.763829194010000104e-03,-7.547392044220000047e-03,1.142363809049999970e-02,1.000000000000000000e+00
9.154932730000000518e-01,-2.295530127390000175e+00,2.214038314020000120e-01,-9.568689969660001182e+00,-8.491734974090000415e-03,2.301758155229999964e-03,2.860983135180000109e-03,1.000000000000000000e+00
9.204445289999999558e-01,-2.274661380759999574e+00,2.264145722360000057e-01,-9.521116317589999767e+00,2.039791550489999938e-03,7.855499163270000113e-03,6.339110434059999979e-03,1.000000000000000000e+00
9.253379919999999981e-01,-2.312940404139999906e+00,2.303472903090000024e-01,-9.502770513559999799e+00,1.067647337910000022e-02,1.319260522719999974e-02,1.117137726400000000e-04,1.000000000000000000e+00
9.305250720000000086e-01,-2.312423832919999978e+00,2.301294463069999963e-01,-9.515570373899999268e+00,-1.010542269800000087e-02,1.348203048110000087e-02,8.850927464659999466e-03,1.000000000000000000e+00
9.355088780000000437e-01,-2.302200106679999969e+00,2.442231641169999856e-01,-9.543781153860001254e+00,2.569727366789999797e-03,1.933524943890000194e-02,3.304893849420000203e-03,1.000000000000000000e+00
9.404157380000000011e-01,-2.314318852890000056e+00,2.421539200950000026e-01,-9.507980941679999631e+00,-1.908910926430000196e-03,-3.114850027489999597e-03,3.968456760049999914e-03,1.000000000000000000e+00
9.453752140000000193e-01,-2.274190840640000211e+00,2.762972501770000200e-01,-9.542095977249999805e+00,4.635437391699999757e-03,-5.498693790289999050e-03,-7.664455100890000053e-03,1.000000000000000000e+00
9.504177710000000223e-01,-2.297857547430000036e+00,2.381352042390000034e-01,-9.543694060099999987e+00,1.980026136150000039e-04,1.304690260440000138e-03,4.654110409320000134e-03,1.000000000000000000e+00
9.552703679999999808e-01,-2.295651415690000086e+00,2.180523290170000017e-01,-9.539158754749999858e+00,-1.910370774570000277e-02,2.682574559000000330e-04,1.657537883150000122e-03,1.000000000000000000e+00
9.602344860000000537e-01,-2.322788867329999896e+00,2.229531614699999942e-01,-9.532533199130000412e+00,2.619614591820000268e-03,1.583468634640000259e-03,3.465688787399999883e-04,1.000000000000000000e+00
9.652390090000000367e-01,-2.310916350969999922e+00,2.420668080669999833e-01,-9.517558332839998414e+00,-8.722351863980000106e-03,-3.062177449459999728e-03,-1.290605869139999995e-04,1.000000000000000000e+00
9.704486979999999985e-01,-2.294394401359999947e+00,2.600930247530000017e-01,-9.482855852769999316e+00,1.773174619299999928e-03,3.350414335730000134e-03,7.640575990079999900e-03,1.000000000000000000e+00
9.754185899999999743e-01,-2.296942186149999898e+00,2.371590892159999853e-01,-9.526464108349999904e+00,5.999406334010000744e-03,-8.154574781660000118e-03,1.035860180849999986e-02,1.000000000000000000e+00
9.804537549999999824e-01,-2.276546463849999924e+00,2.110032142230000018e-01,-9.529527587580000514e+00,-3.731286851690000100e-03,-1.417535124349999847e-03,-3.033152548599999960e-03,1.000000000000000000e+00
9.854895129999999837e-01,-2.319585979629999795e+00,2.323591963870000054e-01,-9.532321017690000176e+00,-2.625091583470000258e-04,-2.331214258449999972e-03,9.962097741660000394e-03,1.000000000000000000e+00
9.904152529999999954e-01,-2.240764225720000002e+00,2.142193449920000159e-01,-9.557859948089998170e+00,1.538299676029999952e-02,-1.470101624730000070e-02,-6.436119787399999063e-03,1.000000000000000000e+00
9.954761589999999716e-01,-2.290294418699999834e+00,2.251586721570000005e-01,-9.528297753520000413e+00,-1.125143282120000081e-02,2.104728482659999633e-04,5.601283162829998920e-03,1.000000000000000000e+00
1.000396749999999946e+00,-2.274721440380000015e+00,2.526530657449999606e-01,-9.521881456739999194e+00,-2.545214956629999678e-04,8.730212226509999340e-03,-1.656200038270000049e-03,1.000000000000000000e+00
1.005420403000000018e+00,-2.272764461090000410e+00,2.119117073700000076e-01,-9.555071778680000349e+00,-6.253641564399999714e-03,3.398040775210000100e-03,-8.464065380390000531e-03,1.000000000000000000e+00
1.010307797999999924e+00,-2.295764228409999941e+00,2.385387252719999851e-01,-9.504968900379999752e+00,1.614076830450000138e-02,2.448583953080000174e-03,-6.915028207000000621e-03,1.000000000000000000e+00
1.015348354999999980e+00,-2.347341855429999846e+00,2.443366526949999895e-01,-9.530660975520000022e+00,-1.080498099329999830e-02,1.429215632379999927e-02,1.057277526710000137e-02,1.000000000000000000e+00
1.020278859999999899e+00,-2.261224391559999880e+00,2.539364018199999906e-01,-9.505576218630000795e+00,-7.902422919870000576e-03,-1.297783199700000036e-02,3.178029553960000017e-03,1.000000000000000000e+00
1.025469760000000008e+00,-2.309128883030000079e+00,2.658599907820000108e-01,-9.512125786400000393e+00,2.292346581820000131e-02,-1.209661923350000001e-02,8.094735443590000273e-03,1.000000000000000000e+00
1.030420474000000031e+00,-2.267579021279999996e+00,2.228590899779999968e-01,-9.526564061600000244e+00,1.348065678029999881e-02,8.440379053349999355e-03,-6.152847781780000245e-04,1.000000000000000000e+00
1.035438376999999965e+00,-2.288501690059999927e+00,2.550432670829999582e-01,-9.528498244530000605e+00,9.196173399690000042e-03,8.536335080860000049e-03,-1.059631723909999941e-02,1.000000000000000000e+00
1.040390420999999899e+00,-2.300497978930000187e+00,2.260775953669999783e-01,-9.566020458189999687e+00,2.058738656340000292e-02,-1.103208959100000081e-02,-1.333457883450000136e-03,1.000000000000000000e+00
1.045416560000000050e+00,-2.236045088250000035e+00,2.418924744130000193e-01,-9.518884028489999594e+00,-3.632625739559999616e-04,1.194537151599999987e-03,-1.680361479520000104e-02,1.000000000000000000e+00
1.050436654999999941e+00,-2.337256222490000201e+00,2.825459353079999847e-01,-9.499272734570000765e+00,-1.008513756099999915e-02,-1.100838929410000167e-02,5.050826817750000107e-03,1.000000000000000000e+00
1.055420395999999927e+00,-2.306002713829999884e+00,2.478294632470000036e-01,-9.531915944019999642e+00,1.248953049070000145e-04,-4.506500437860000083e-03,2.097110496830000004e-03,1.000000000000000000e+00
1.060299839000000022e+00,-2.280678741350000038e+00,2.453833122040000314e-01,-9.532754732929999975e+00,4.558245185760000096e-03,1.041562296449999965e-03,-5.248948000369999846e-03,1.000000000000000000e+00
1.065360905999999996e+00,-2.304487779220000032e+00,2.456286287339999874e-01,-9.510832239460000892e+00,-4.301563370970000813e-03,1.029376685620000086e-02,-8.352621458470000856e-03,1.000000000000000000e+00
1.070423134000000109e+00,-2.313523026329999954e+00,2.574799561780000134e-01,-9.512360179679999916e+00,1.804417185489999922e-02,-8.886847645039998647e-04,-2.484590280800000068e-03,1.000000000000000000e+00
1.075415871999999995e+00,-2.271969072929999722e+00,2.130030828040000157e-01,-9.557938274030000514e+00,-2.537645632400000253e-03,-1.926044188440000082e-02,-7.861518301070000159e-03,1.000000000000000000e+00
1.080451491000000042e+00,-2.276358978459999793e+00,2.120184191479999869e-01,-9.526284075610000457e+00,1.629619859159999948e-02,5.701213143770001227e-03,-1.203539664859999952e-03,1.000000000000000000e+00
1.085424251000000062e+00,-2.280948498199999896e+00,2.335314367709999950e-01,-9.522312249369999648e+00,1.519574318079999938e-03,-2.367744687940000290e-03,-1.784569700249999868e-03,1.000000000000000000e+00
1.090288163999999949e+00,-2.298071774699999903e+00,2.562280381550000041e-01,-9.523985151019999762e+00,5.670501850549999889e-03,1.888765022159999765e-02,-9.308429434899999702e-03,1.000000000000000000e+00
1.095429887000000102e+00,-2.302221003330000126e+00,2.477899897529999840e-01,-9.522546642649999171e+00,-1.281208265570000018e-02,-2.993907080960000067e-03,2.903823973610000168e-03,1.000000000000000000e+00
1.100319696999999985e+00,-2.285501631459999849e+00,2.109389716140000204e-01,-9.525458730700000487e+00,8.270617574450000661e-03,5.883579142390000724e-03,-4.255631938580000241e-04,1.000000000000000000e+00
1.105405793999999942e+00,-2.294482518040000141e+00,2.120274609710000036e-01,-9.535148934589999570e+00,-4.305187612770000789e-03,1.102162990720000025e-03,3.258856711909999780e-03,1.000000000000000000e+00
1.110326802999999973e+00,-2.284528402519999890e+00,2.335232717300000094e-01,-9.530193942529999518e+00,8.547396282669999243e-04,-9.626524522899998493e-03,-4.048448521639999922e-03,1.000000000000000000e+00
1.115405272000000059e+00,-2.286634727150000046e+00,2.406136866490000137e-01,-9.535054242039999295e+00,-5.679100286220000252e-03,6.315321661529999658e-03,-9.620050899680000420e-03,1.000000000000000000e+00
1.120430073000000082e+00,-2.310203818779999807e+00,2.443881271539999900e-01,-9.506769227799999555e+00,-1.623136340640000106e-04,-5.811077542600000950e-03,2.386289415880000347e-03,1.000000000000000000e+00
1.125387353000000035e+00,-2.304260984729999961e+00,2.478324589220000096e-01,-9.534480826070000248e+00,3.087454242630000185e-03,1.084199920300000196e-02,-5.118172615769999920e-03,1.000000000000000000e+00
1.130442154000000032e+00,-2.294687831350000096e+00,2.300285432160000254e-01,-9.516237313370000450e+00,4.841242916880000684e-03,6.058890372510000212e-03,-5.437482614069999269e-04,1.000000000000000000e+00
1.135425007000000042e+00,-2.277187830499999954e+00,2.213533250580000111e-01,-9.560060088489999330e+00,7.888182997699999532e-03,6.915222853419999982e-03,-9.294987656180000307e-03,1.000000000000000000e+00
1.140383267000000034e+00,-2.275764811949999800e+00,2.227146217400000350e-01,-9.534248186360001043e+00,2.005807496609999727e-02,1.078012958170000007e-02,-1.140199322250000022e-02,1.000000000000000000e+00
1.145407274000000086e+00,-2.325895162780000192e+00,2.323671970310000057e-01,-9.533274372889998460e+00,7.983371615410000260e-03,1.587957143779999969e-02,-6.170168984680000045e-03,1.000000000000000000e+00
1.150278415999999915e+00,-2.353393264429999743e+00,2.346519469669999802e-01,-9.540692540189999349e+00,5.150971934199999325e-03,-1.479825237770000020e-03,1.735993102190000123e-02,1.000000000000000000e+00
1.155268487000000066e+00,-2.294347493480000111e+00,2.189608221640000074e-01,-9.564602992610000243e+00,2.365298569200000121e-03,-5.506157875060000394e-03,1.367158535870000025e-02,1.000000000000000000e+00
1.160337874999999963e+00,-2.259043832649999750e+00,2.697340192040000306e-01,-9.466269459630000327e+00,1.594285666939999901e-02,-1.339555904270000111e-02,-2.581215463579999893e-03,1.000000000000000000e+00
1.165424621999999966e+00,-2.292421639980000148e+00,2.478771200470000213e-01,-9.512970420529999416e+00,5.849651992319999591e-03,1.138776075089999954e-03,4.039190709590000268e-03,1.000000000000000000e+00
1.170262268000000105e+00,-2.295954636420000305e+00,2.289847880510000044e-01,-9.511777411349999767e+00,9.457997046410000080e-03,-1.273288507950000011e-03,-5.994359962640001017e-03,1.000000000000000000e+00
1.175250807000000064e+00,-2.302793834790000105e+00,2.715109840150000120e-01,-9.534378534740000077e+00,1.132349949330000057e-02,1.715677604080000085e-02,1.811264315619999900e-03,1.000000000000000000e+00
1.180447830000000087e+00,-2.315290912790000100e+00,2.288002435300000026e-01,-9.536580428700000667e+00,6.410179659720000207e-03,-4.677379038180000566e-03,-2.670528832820000167e-03,1.000000000000000000e+00
1.185400135999999938e+00,-2.292921552329999724e+00,1.953040339790000079e-01,-9.543370234970000254e+00,-1.845084363589999778e-03,1.012151502070000007e-02,6.939587183299999464e-05,1.000000000000000000e+00
1.190281004000000031e+00,-2.250176781709999574e+00,2.535912781770000013e-01,-9.531499764430000354e+00,-6.145039107649998868e-03,2.104596234860000182e-03,-4.458008334039999937e-03,1.000000000000000000e+00
1.195253555999999939e+00,-2.269327180119999898e+00,2.224979285159999765e-01,-9.550381575039999404e+00,-4.211898427460000066e-03,2.614219207320000234e-03,1.106216339389999971e-03,1.000000000000000000e+00
1.200450797000000014e+00,-2.287259727179999924e+00,2.468230261509999912e-01,-9.500790153389999659e+00,1.589099504050000070e-02,-5.307893734430000482e-03,8.324948139489999179e-04,1.000000000000000000e+00
1.205418716000000057e+00,-2.325685611679999987e+00,2.421228856360000126e-01,-9.507002452040000051e+00,1.777414977550000053e-02,-6.881617009640000199e-04,4.242613911629999901e-03,1.000000000000000000e+00
1.210316037999999983e+00,-2.257740787229999935e+00,2.082770771950000210e-01,-9.553221766900000134e+00,6.244951509870000058e-04,-6.924731656909999429e-03,-7.202340289949999558e-03,1.000000000000000000e+00
1.215402191999999992e+00,-2.315158372450000002e+00,2.131228549920000104e-01,-9.551472292879999770e+00,8.135404437780000345e-03,2.979056444019999913e-03,2.995813265440000549e-04,1.000000000000000000e+00
1.220432989000000079e+00,-2.290694816190000260e+00,2.550202880660000226e-01,-9.528571894289999733e+00,1.223877444860000004e-02,8.921557106079999050e-03,-1.405332423750000129e-02,1.000000000000000000e+00
1.225448053999999898e+00,-2.327980590749999745e+00,2.467725928709999794e-01,-9.505631163680000384e+00,2.099284343420000296e-02,-4.026768729089999976e-04,7.648606784640000177e-03,1.000000000000000000e+00
1.230440862000000024e+00,-2.257138583549999744e+00,2.119162739480000002e-01,-9.546023379830000266e+00,5.020459648219999932e-03,1.212547905740000119e-02,-5.281899124379999845e-03,1.000000000000000000e+00
1.235403191999999928e+00,-2.294203262699999968e+00,2.204229854049999937e-01,-9.529109654430000020e+00,5.629910621789999819e-03,-2.895077690479999806e-03,-4.102668724949999624e-03,1.000000000000000000e+00
1.240409239000000108e+00,-2.337063476400000006e+00,2.335313271730000140e-01,-9.540160040750000903e+00,1.021573552859999980e-03,-1.483673346229999988e-03,1.940616173670000081e-03,1.000000000000000000e+00
1.245440781999999968e+00,-2.302174241579999947e+00,2.668967682180000134e-01,-9.523222934480001456e+00,1.772001944479999896e-02,-1.071514375509999978e-02,2.694127848370000272e-03,1.000000000000000000e+00
1.250418223999999912e+00,-2.321861084960000099e+00,2.921086038259999573e-01,-9.498227609430001550e+00,1.126013416800000083e-02,3.869058564310000076e-03,1.128965988760000094e-02,1.000000000000000000e+00
1.255416654000000021e+00,-2.274136772359999892e+00,2.477545165810000061e-01,-9.539530510680000575e+00,8.395083248619998953e-03,-9.534049313520000062e-04,-6.702343467620000377e-03,1.000000000000000000e+00
1.260268079000000041e+00,-2.319512183740000122e+00,2.431139972989999898e-01,-9.531919451149999389e+00,1.801715232429999813e-02,-5.991513840850000265e-03,-8.907420560719999172e-03,1.000000000000000000e+00
1.265427582999999911e+00,-2.304561282849999948e+00,2.016601067410000170e-01,-9.494619355800001159e+00,9.071277454500000989e-03,3.930896054949999975e-03,1.718192594130000302e-03,1.000000000000000000e+00
1.270419908999999903e+00,-2.257452764059999950e+00,2.240896729530000020e-01,-9.512788049700001025e+00,6.080023478720000644e-03,-3.279947675760000111e-03,-9.686280041929999640e-03,1.000000000000000000e+00
1.275252374999999994e+00,-2.292058213499999830e+00,2.035734478150000026e-01,-9.540518937189998994e+00,8.251710794870000323e-03,1.234116870910000052e-02,4.277493804690000664e-03,1.000000000000000000e+00
1.280415902999999966e+00,-2.294647645469999997e+00,2.578151429489999868e-01,-9.477512153660001104e+00,6.547589320690000089e-03,1.712352223689999828e-02,-4.304027184840000277e-03,1.000000000000000000e+00
1.285415203999999978e+00,-2.289694991500000221e+00,1.408267582570000009e-01,-9.518886366580000313e+00,4.225892014800000825e-03,1.349903643129999990e-02,-7.282183505590000654e-03,1.000000000000000000e+00
1.290375532000000103e+00,-2.238052628680000211e+00,1.444475060370000175e-01,-9.489542783189998332e+00,4.207081161439999925e-03,9.196394123140000029e-03,-7.848249748349999874e-03,1.000000000000000000e+00
1.295253129000000003e+00,-2.300259932390000372e+00,2.024563351520000110e-01,-9.541074232989998904e+00,-7.700312882659999733e-03,-9.101040661329998921e-03,-6.950481329109999993e-04,1.000000000000000000e+00
1.300257908000000073e+00,-2.281594102629999732e+00,2.383804659710000162e-01,-9.508300675150000103e+00,1.374053582549999986e-02,9.450637735429999464e-03,3.384978277610000384e-03,1.000000000000000000e+00
1.305415382999999929e+00,-2.320049505490000108e+00,2.465044069220000134e-01,-9.550012741719999809e+00,2.725451486189999981e-03,-3.027487080539999730e-03,4.506696015600000597e-03,1.000000000000000000e+00
1.310206683000000094e+00,-2.304049533940000227e+00,2.516653698820000007e-01,-9.506866258440000550e+00,-9.489852003750000320e-03,-5.993499420579999869e-03,-6.696181371810001025e-03,1.000000000000000000e+00
1.315221616000000093e+00,-2.187871862840000237e+00,2.787616309970000206e-01,-9.475620640820000773e+00,3.169925417750000043e-03,-7.157388608900000504e-03,-1.221533981150000128e-03,1.000000000000000000e+00
1.320437467000000087e+00,-2.386968201770000242e+00,2.642098672209999832e-01,-9.589061726560000665e+00,1.362231746320000103e-02,-5.736023187640000576e-03,5.437883548439999271e-03,1.000000000000000000e+00
1.325448742999999929e+00,-2.354393235249999883e+00,2.300469921880000101e-01,-9.542838904570000835e+00,6.919877603650000271e-03,3.115311730649999652e-03,5.034027621150000305e-03,1.000000000000000000e+00
1.330327296999999964e+00,-2.237240289379999858e+00,2.858716273990000167e-01,-9.510417228919999744e+00,1.119336299599999959e-02,2.021660096940000248e-02,-3.349484875800000025e-03,1.000000000000000000e+00
1.335405501000000106e+00,-2.286123855010000039e+00,2.902222055570000125e-01,-9.561461771980001245e+00,-3.180679923389999829e-04,-1.278629712760000030e-02,8.271028287709999635e-03,1.000000000000000000e+00
1.340310968000000047e+00,-2.328945344130000095e+00,2.383874802329999931e-01,-9.532761747189999468e+00,1.930599845949999838e-02,1.078105997289999923e-02,5.347694270310000136e-03,1.000000000000000000e+00
1.345419890000000063e+00,-2.239438383950000055e+00,1.788143792100000129e-01,-9.509700020560000411e+00,9.132057428360000964e-03,-9.082232601940000427e-03,-9.692149469630001284e-04,1.000000000000000000e+00
1.350238722999999919e+00,-2.297987457420000101e+00,1.702044996390000009e-01,-9.547454289410001849e+00,2.479483000930000208e-02,7.005338557060000184e-04,1.634354330599999822e-02,1.000000000000000000e+00
1.355150013999999903e+00,-2.284157084989999920e+00,1.825866460240000155e-01,-9.505946220980000305e+00,3.744084388020000199e-03,1.194612123069999955e-02,8.463785052300000847e-03,1.000000000000000000e+00
1.360323305000000094e+00,-2.261576566000000010e+00,1.886114044720000049e-01,-9.487571190860000669e+00,8.442590013150000003e-03,-1.789994188579999970e-03,7.355182897299999750e-04,1.000000000000000000e+00
1.365447437999999902e+00,-2.275739677509999837e+00,2.019558382840000166e-01,-9.458941893220000452e+00,7.218035403640000146e-03,1.644092239439999895e-02,-1.448835013430000047e-03,1.000000000000000000e+00
1.370245484000000014e+00,-2.344724804799999784e+00,1.649604249730000083e-01,-9.487465392400000752e+00,-1.253778394310000113e-02,-7.394761778410000215e-03,1.350260619069999952e-02,1.000000000000000000e+00
1.375399564999999935e+00,-2.232353686379999758e+00,1.923113184360000227e-01,-9.469882389430001268e+00,-4.110126290470000020e-03,-8.942314423620001743e-03,-6.019225344060000552e-03,1.000000000000000000e+00
1.380258621000000074e+00,-2.283930436619999949e+00,2.050631383839999766e-01,-9.513730298989999667e+00,-8.311611600220000112e-05,-6.098626647140000662e-03,-5.912035703659999572e-03,1.000000000000000000e+00
1.385201824999999998e+00,-2.269451683290000243e+00,2.298519810729999779e-01,-9.528722700939999513e+00,-6.491412641480000202e-04,-1.176211982969999938e-02,-4.463306628169999742e-03,1.000000000000000000e+00
1.390237748000000106e+00,-2.281704723399999857e+00,2.063067817689999972e-01,-9.503953001339999318e+00,-6.435993127520000731e-03,-2.025915309790000170e-03,-9.736978448930001112e-03,1.000000000000000000e+00
1.395293681999999924e+00,-2.313400569000000129e+00,2.241542626220000278e-01,-9.506265369930000375e+00,3.143979236479999950e-03,-2.790702972559999922e-03,-2.367137931290000039e-03,1.000000000000000000e+00
1.400249612000000088e+00,-2.312650773540000149e+00,2.382595795369999991e-01,-9.529165184010000900e+00,7.847538217899999516e-03,6.865848787129999985e-03,4.348673392089999956e-04,1.000000000000000000e+00
1.405431450000000027e+00,-2.246670819419999798e+00,2.228733011670000208e-01,-9.499501282629999821e+00,-1.150872278960000071e-02,9.794132784010001549e-03,-4.867380950599999902e-03,1.000000000000000000e+00
1.410394791999999953e+00,-2.273655272450000098e+00,1.882714867270000036e-01,-9.517901447189998976e+00,-6.271902937439999097e-03,7.996023632590000887e-03,-4.042481072249999932e-03,1.000000000000000000e+00
1.415430240999999922e+00,-2.316772821909999891e+00,2.145031121029999932e-01,-9.525404370169999524e+00,-2.001910470429999964e-02,-2.425138140100000037e-03,6.700905505569999766e-04,1.000000000000000000e+00
1.420386445999999969e+00,-2.272821013590000216e+00,2.476605546869999896e-01,-9.537901448169998631e+00,-1.242708507929999803e-02,4.410697612910000412e-03,-1.128087937829999957e-02,1.000000000000000000e+00
1.425440124000000086e+00,-2.330528083279999940e+00,2.428297369970000286e-01,-9.547337385029999623e+00,-3.705752897079999894e-04,1.210130471739999901e-02,4.918678663670000145e-03,1.000000000000000000e+00
1.430392985999999977e+00,-2.251718896589999908e+00,2.549524835270000067e-01,-9.510048980129999663e+00,-1.846022438259999803e-03,1.964133698490000066e-03,-5.491201765840000165e-03,1.000000000000000000e+00
1.435415459999999976e+00,-2.301240321729999927e+00,2.235990398920000011e-01,-9.569907528759999948e+00,-1.150876842440000034e-02,-1.198637206110000214e-02,-3.804754931479999939e-03,1.000000000000000000e+00
1.440410283000000069e+00,-2.283961124020000177e+00,2.607916197430000249e-01,-9.530970187599999477e+00,7.022321224210000164e-03,4.024689551439999805e-04,-8.127679117020000094e-03,1.000000000000000000e+00
1.445298374000000052e+00,-2.311130870499999990e+00,2.202704799909999955e-01,-9.535744562399999680e+00,1.470670197159999922e-02,-6.038802675899999613e-04,6.552555598319999286e-03,1.000000000000000000e+00
1.450403960999999908e+00,-2.288696628109999853e+00,2.476844652859999940e-01,-9.541080662729999773e+00,-3.310018917550000463e-03,6.122971884909999933e-03,-4.628743045029999961e-03,1.000000000000000000e+00
1.455324593000000055e+00,-2.333077475500000109e+00,2.286877961320000208e-01,-9.535110940669998314e+00,-2.210874343289999985e-03,1.026569865639999964e-03,9.110729210079999973e-03,1.000000000000000000e+00
1.460246970999999894e+00,-2.298579724220000120e+00,1.882319949669999937e-01,-9.533817978250000991e+00,-9.376324713229999483e-03,1.821018755440000038e-03,8.590084500610000937e-03,1.000000000000000000e+00
1.465407831000000050e+00,-2.264111783559999758e+00,2.154946438910000095e-01,-9.540305002180000216e+00,3.553704824300000197e-03,-3.465811023489999941e-03,-3.799339523540000083e-03,1.000000000000000000e+00
1.470375916999999921e+00,-2.267374730879999856e+00,2.094593823149999978e-01,-9.548732054260002045e+00,-8.298587985340000195e-03,-5.519013851880000265e-03,-1.243185251949999875e-02,1.000000000000000000e+00
1.475398930999999969e+00,-2.371767563899999764e+00,1.670846140530000135e-01,-9.520523027869998600e+00,-1.160660851749999861e-02,-8.493768982590000531e-04,3.179999766869999987e-03,1.000000000000000000e+00
1.480389533000000091e+00,-2.292939672509999749e+00,1.943575286420000103e-01,-9.512447857959999808e+00,-1.421879697590000026e-02,-1.442775037139999890e-02,7.991523016239999956e-04,1.000000000000000000e+00
1.485384322999999895e+00,-2.292612340250000269e+00,2.011016874069999905e-01,-9.553368481889998876e+00,7.037580478939999516e-03,3.730718046430000091e-03,3.738696919750000239e-03,1.000000000000000000e+00
1.490330112000000096e+00,-2.310524429039999994e+00,1.657266783709999969e-01,-9.525138997230000015e+00,-4.219595342870000217e-03,3.887175116689999877e-04,6.408789195119998956e-03,1.000000000000000000e+00
1.495204744999999891e+00,-2.285195195860000084e+00,2.072927057999999767e-01,-9.528157468270000763e+00,-2.117640338839999956e-03,-1.358626130970000054e-02,1.992970472200000179e-03,1.000000000000000000e+00
1.500206662000000080e+00,-2.309869033870000088e+00,1.741829565489999843e-01,-9.513066282120000494e+00,-1.033831480890000029e-02,-8.436309173700000039e-03,7.553480099889999487e-04,1.000000000000000000e+00
1.505342498000000084e+00,-2.280288719120000085e+00,2.230835463839999921e-01,-9.491232051449999929e+00,-4.268018063159999959e-03,6.624711677430001125e-03,-7.200407795609999571e-03,1.000000000000000000e+00
1.510353942999999921e+00,-2.330643526349999828e+00,1.989705936620000115e-01,-9.533639114550000571e+00,6.757598835970000765e-03,8.155933581289999401e-03,4.159838892520000518e-03,1.000000000000000000e+00
1.515415975000000026e+00,-2.310011949469999770e+00,2.200227157750000162e-01,-9.562143324500000929e+00,-1.611396670339999837e-03,-5.471894517540000155e-03,2.099645696579999915e-02,1.000000000000000000e+00
1.520377996999999981e+00,-2.295472405860000009e+00,2.404633001269999848e-01,-9.546130347330000987e+00,-9.245255962010000272e-03,7.331359200180001014e-03,1.901960559190000316e-02,1.000000000000000000e+00
1.525401600999999996e+00,-2.241805551470000157e+00,2.666946880409999943e-01,-9.526891393859999724e+00,1.034307293589999989e-02,6.527525372800000239e-03,4.563089460130000281e-03,1.000000000000000000e+00
1.530414771000000007e+00,-2.291614561379999859e+00,2.226743262620000108e-01,-9.540029107849999690e+00,5.751257762310000785e-03,-4.235924687239999570e-03,4.791088867930000427e-04,1.000000000000000000e+00
1.535432260999999965e+00,-2.314328935890000327e+00,2.659776806120000003e-01,-9.492090714110000604e+00,3.321770112959999792e-03,-4.869451280680000410e-03,-1.360325259160000220e-03,1.000000000000000000e+00
1.540384100000000034e+00,-2.281163017740000409e+00,2.261449797810000106e-01,-9.546368832260000659e+00,2.044183667750000023e-03,-8.604421745989999709e-04,-4.652991890909999838e-03,1.000000000000000000e+00
1.545250706999999890e+00,-2.283184440559999917e+00,1.823720716910000039e-01,-9.508596443230000972e+00,-5.597108509390000611e-03,-1.224553678179999758e-02,5.589853972199998987e-03,1.000000000000000000e+00
1.550391083999999919e+00,-2.287454372970000094e+00,2.141813328030000019e-01,-9.556838203830000822e+00,-7.355560082939998755e-04,1.331699825820000134e-02,2.342725871130000095e-03,1.000000000000000000e+00
1.555215033000000080e+00,-2.291387182370000275e+00,2.297153673470000157e-01,-9.544150571689998586e+00,-1.046767830850000094e-02,2.440939191729999975e-03,6.735777482389999557e-03,1.000000000000000000e+00
1.560226474999999891e+00,-2.281716121570000144e+00,2.382209462940000078e-01,-9.528359712839998608e+00,-1.934151223400000052e-04,1.367690414189999884e-02,1.910522114489999785e-04,1.000000000000000000e+00
1.565421994999999900e+00,-2.305703584749999813e+00,2.169544142450000046e-01,-9.509286763580000468e+00,1.514726318420000096e-03,7.171969860790000303e-03,8.778490126129998711e-03,1.000000000000000000e+00
1.570401503000000032e+00,-2.247940108699999939e+00,1.954964147459999912e-01,-9.508383092739999043e+00,-1.971973339099999945e-03,-3.575481474400000331e-03,-4.331350326540000205e-03,1.000000000000000000e+00
1.575236107999999913e+00,-2.271522644340000063e+00,1.776925538390000114e-01,-9.503510518269999707e+00,7.682973984629999989e-03,-1.529421750459999951e-02,-4.946735221890000145e-03,1.000000000000000000e+00
1.580656279999999914e+00,-2.330551171890000273e+00,2.087859035000000085e-01,-9.506913604710000243e+00,8.197164162989999808e-03,2.934400457889999991e-03,-3.276511328289999966e-03,1.000000000000000000e+00
1.585430555999999935e+00,-2.276997276359999933e+00,2.214941400340000033e-01,-9.539950197390000497e+00,-1.223603729160000105e-02,1.894690096380000077e-02,-1.604095846409999901e-02,1.000000000000000000e+00
1.590390707000000070e+00,-2.313517473370000133e+00,2.394722432629999842e-01,-9.525669743110000809e+00,-7.989292964340000483e-03,-1.031953282649999970e-02,-1.184827741239999864e-02,1.000000000000000000e+00
1.595389716999999985e+00,-2.334112663770000040e+00,1.679265995679999901e-01,-9.539888238069998749e+00,-6.219726055859999859e-03,-8.799795061350000613e-03,1.016686856750000090e-02,1.000000000000000000e+00
1.600254711000000052e+00,-2.277844686969999977e+00,1.666409619380000151e-01,-9.558439793810000751e+00,-9.909885004160000690e-03,-4.760426469149999992e-03,-5.695045925680000676e-03,1.000000000000000000e+00
1.605423647000000065e+00,-2.349745993970000058e+00,1.987344285519999920e-01,-9.555491465399999385e+00,-1.468834374099999875e-02,6.701587699350000497e-05,2.208403311670000327e-02,1.000000000000000000e+00
1.610220532000000038e+00,-2.298373387999999906e+00,2.120456724810000082e-01,-9.541599718169999633e+00,-1.818408817050000056e-02,-1.023000478739999851e-02,8.547175675630000469e-03,1.000000000000000000e+00
1.615414995000000076e+00,-2.281915005149999676e+00,2.573059147860000118e-01,-9.528087325639999605e+00,2.438568044449999841e-04,-3.421763423830000150e-03,-5.060631781819999696e-03,1.000000000000000000e+00
1.620385340999999979e+00,-2.328006601979999868e+00,2.301853960119999987e-01,-9.502691018580000204e+00,1.192427240310000008e-03,5.821906961499999367e-03,2.204841701310000009e-03,1.000000000000000000e+00
1.625288563000000019e+00,-2.245021444779999875e+00,2.502142942900000278e-01,-9.502065580160000025e+00,-4.208112135530000381e-03,9.154363069680000048e-04,-4.613391589369999525e-03,1.000000000000000000e+00
1.630274307000000089e+00,-2.321126340940000254e+00,2.226708739300000406e-01,-9.538940728089999155e+00,5.221065133809999967e-03,6.010900251569999651e-03,8.182318881149999376e-03,1.000000000000000000e+00
1.635227648999999950e+00,-2.283616548369999943e+00,2.295594826660000143e-01,-9.563164484239999652e+00,5.920251831409999513e-03,-1.225509494539999897e-02,7.365539669989999184e-03,1.000000000000000000e+00
1.640207079000000068e+00,-2.236897175029999740e+00,2.477117734179999919e-01,-9.520816457860000526e+00,1.159934047609999935e-02,-1.258776430039999956e-02,-9.132345207040001508e-03,1.000000000000000000e+00
1.645385327999999925e+00,-2.283767793410000024e+00,2.318109331210000124e-01,-9.567493453360000899e+00,-1.035776222120000098e-03,-5.279018078000000678e-04,2.950756112110000228e-03,1.000000000000000000e+00
1.650254947000000083e+00,-2.301833319190000449e+00,2.454947001560000008e-01,-9.513997425489998605e+00,5.127575248480000132e-03,-1.648912788369999915e-03,4.911795258520000595e-03,1.000000000000000000e+00
1.655235827000000048e+00,-2.277418716640000174e+00,2.608671326650000011e-01,-9.521481643770000503e+00,9.547322988509999997e-03,-2.016986347730000129e-02,-1.798661076459999800e-03,1.000000000000000000e+00
1.660358379999999912e+00,-2.294315637040000411e+00,2.144908554099999864e-01,-9.525513091239998786e+00,-1.127319503579999986e-02,2.640492282809999737e-03,-6.992504931990000012e-03,1.000000000000000000e+00
1.665448964999999948e+00,-2.289007886019999827e+00,1.728009458729999892e-01,-9.514522910669999334e+00,-1.150956284249999954e-02,2.304431516679999580e-03,6.741651333869999770e-03,1.000000000000000000e+00
1.670424850999999933e+00,-2.266131891210000138e+00,2.203551626000000152e-01,-9.526186460459999950e+00,1.526918960739999864e-03,1.204146537930000146e-03,-1.793749630450000012e-03,1.000000000000000000e+00
1.675367151999999971e+00,-2.247058649690000021e+00,2.497019060550000058e-01,-9.558333410819999543e+00,1.366811711339999992e-02,-1.292982418090000106e-02,-3.997043240819999829e-03,1.000000000000000000e+00
1.680412742999999987e+00,-2.338495116629999870e+00,2.656017051719999911e-01,-9.530606614989999059e+00,3.379722591489999709e-03,-9.388676844540000746e-03,1.252905186270000110e-02,1.000000000000000000e+00
1.685459059000000037e+00,-2.264465857700000306e+00,2.537572458610000137e-01,-9.517883911539998465e+00,5.582090467210000344e-03,-6.801544222979999561e-03,-2.295551821590000085e-04,1.000000000000000000e+00
1.690396637000000091e+00,-2.320972757819999899e+00,2.466543185199999710e-01,-9.525375728600000258e+00,-1.819805614650000028e-02,1.528203487400000248e-03,1.722161890939999992e-03,1.000000000000000000e+00
1.695299486999999994e+00,-2.294016361829999795e+00,2.181885043510000122e-01,-9.510070022909999921e+00,1.253098808229999826e-02,6.631286814809999978e-03,-2.960812300440000301e-03,1.000000000000000000e+00
1.700360015000000002e+00,-2.282908546229999835e+00,2.133025772069999937e-01,-9.511010518630000021e+00,-2.344351261850000177e-03,6.225470453500000015e-03,3.731826553120000042e-03,1.000000000000000000e+00
1.705332164000000095e+00,-2.296554502009999776e+00,1.634556646989999973e-01,-9.508701657170000487e+00,1.971908845009999987e-03,-6.781942676749999795e-03,4.163865931330000200e-03,1.000000000000000000e+00
1.710346665000000099e+00,-2.291610177469999954e+00,2.371564954000000003e-01,-9.508458496060001153e+00,2.584343543280000211e-03,1.534937322140000025e-02,9.394708089530001346e-03,1.000000000000000000e+00
1.715267190999999913e+00,-2.277319494049999893e+00,2.001129686299999710e-01,-9.535119708499999902e+00,-1.948376186190000151e-02,-3.821060061449999858e-03,-1.546275452710000079e-03,1.000000000000000000e+00
1.720146815999999967e+00,-2.283603835020000083e+00,2.250037190579999846e-01,-9.534851997469999674e+00,1.780423335730000061e-04,-1.282893237659999981e-03,3.732948796820000428e-03,1.000000000000000000e+00
1.725384679000000032e+00,-2.302118565870000300e+00,2.190764113679999903e-01,-9.542457211780000392e+00,1.425441168250000078e-02,2.984739374369999986e-03,6.192550994459999382e-03,1.000000000000000000e+00
1.730239145999999950e+00,-2.287894079559999572e+00,2.061633181780000157e-01,-9.508290153760000862e+00,-7.232337724419999822e-03,6.892918609080000460e-03,1.049232669170000083e-02,1.000000000000000000e+00
1.735392362000000022e+00,-2.247302979840000159e+00,1.990774881029999943e-01,-9.503395367460001353e+00,4.959686659279999993e-03,-1.658502267670000163e-03,-7.176027633249999066e-03,1.000000000000000000e+00
1.740217987999999938e+00,-2.292448966379999842e+00,2.156579081610000004e-01,-9.516662260789999550e+00,-2.965314313770000144e-03,-9.924946352839999000e-03,-7.808678783479999948e-03,1.000000000000000000e+00
1.745372399999999935e+00,-2.314703176029999643e+00,2.321623586410000162e-01,-9.531277061589999988e+00,1.320207957179999995e-02,-2.474699169400000013e-03,6.070598959920000225e-03,1.000000000000000000e+00
1.750199781000000065e+00,-2.275667342929999837e+00,2.430042533139999961e-01,-9.516941662249999823e+00,-1.902857329700000143e-03,-6.403697654599999935e-03,-1.673817401750000208e-03,1.000000000000000000e+00
1.755350739000000049e+00,-2.280194611100000213e+00,2.085182472740000070e-01,-9.519975915379999876e+00,-2.094721980390000168e-02,1.029722858220000117e-03,-1.227844040839999942e-02,1.000000000000000000e+00
1.760357911000000053e+00,-2.311015427430000102e+00,1.975945195360000184e-01,-9.538273788610000636e+00,-1.596521027390000042e-02,8.435835130510001278e-03,1.255754148589999881e-03,1.000000000000000000e+00
1.765400470000000110e+00,-2.300666321240000034e+00,1.515324593290000021e-01,-9.515402031589999865e+00,1.772680319849999787e-03,-8.474776521329999840e-03,-9.134035557510000389e-03,1.000000000000000000e+00
1.770226942000000081e+00,-2.302036732809999986e+00,2.285236916110000016e-01,-9.546286999199999457e+00,-1.449870970099999962e-02,-6.290709599850000631e-03,-1.030447240920000056e-02,1.000000000000000000e+00
1.775244164999999930e+00,-2.295624381550000148e+00,2.259281952250000169e-01,-9.549031913989999509e+00,-5.861253477630000951e-03,-1.522897556419999972e-02,1.268396060910000067e-02,1.000000000000000000e+00
1.780356609999999895e+00,-2.244124203670000206e+00,2.678106133929999966e-01,-9.527358426850000228e+00,-6.456673145290000096e-03,-1.986094750460000013e-03,6.369305774570000389e-04,1.000000000000000000e+00
1.785206210999999987e+00,-2.297637182679999945e+00,2.536161751559999900e-01,-9.522198852120000723e+00,2.299764659260000472e-03,-6.876400206240000298e-03,1.088516041639999918e-02,1.000000000000000000e+00
1.790135934000000040e+00,-2.317777615040000239e+00,2.552378032750000081e-01,-9.491063709149999639e+00,5.368701647969999734e-03,-2.341884188349999899e-03,8.277698419989999376e-03,1.000000000000000000e+00
1.795079695999999947e+00,-2.248127594100000071e+00,2.309906662469999872e-01,-9.526691487369999933e+00,5.361676681790000440e-03,-6.215627305210000113e-03,-8.740561082959999104e-03,1.000000000000000000e+00
1.800088555999999951e+00,-2.307857401790000207e+00,2.452723078440000037e-01,-9.535645193680000631e+00,-3.238529199730000308e-03,-2.890608739110000439e-04,-7.400945760309999774e-03,1.000000000000000000e+00
1.805166459000000057e+00,-2.281712760570000054e+00,2.656451424549999829e-01,-9.514574933119998690e+00,-1.251966133710000033e-02,3.071275539700000015e-03,-1.492331642660000082e-02,1.000000000000000000e+00
1.810147898000000088e+00,-2.357090949899999899e+00,2.405297529589999761e-01,-9.543294831649999921e+00,-5.563401617110000190e-03,1.387605257329999932e-02,-1.212498173120000111e-04,1.000000000000000000e+00
1.815149614999999939e+00,-2.315802515570000164e+00,2.941727880800000250e-01,-9.522725506349999591e+00,-4.323299508540000106e-03,-6.965787615630000297e-03,2.639970043670000072e-03,1.000000000000000000e+00
1.820114290000000024e+00,-2.302206390290000293e+00,2.163881403980000007e-01,-9.573663666419999885e+00,1.317940419539999830e-03,-7.711619138720001050e-03,2.027244539930000110e-03,1.000000000000000000e+00
1.825199213999999959e+00,-2.307601381200000024e+00,2.177666074109999850e-01,-9.539919802250000913e+00,6.529883947219999700e-03,-7.621500175449999817e-03,1.886724866930000050e-02,1.000000000000000000e+00
1.830388555000000084e+00,-2.277909276639999980e+00,2.108264876829999968e-01,-9.535031445689998719e+00,-3.849596250799999526e-04,1.200870890170000101e-02,-1.444392721170000091e-03,1.000000000000000000e+00
1.835379872999999940e+00,-2.275231289600000206e+00,2.093917239059999991e-01,-9.543574233110001970e+00,-1.151191256940000025e-02,-4.848157055680000181e-03,1.255370443690000115e-03,1.000000000000000000e+00
1.840396168000000054e+00,-2.284693529950000190e+00,2.452837242869999879e-01,-9.519958379720000252e+00,-1.144402008499999929e-02,1.520285196599999861e-02,8.499345742170000967e-03,1.000000000000000000e+00
1.845413154999999916e+00,-2.269670002209999815e+00,2.715346754179999711e-01,-9.521742340530000348e+00,1.827715709809999908e-02,1.056983787570000242e-02,-5.733060184870000277e-03,1.000000000000000000e+00
1.850440153999999948e+00,-2.265037227840000167e+00,2.559524543499999694e-01,-9.514740352809999635e+00,-2.066727029159999909e-03,-6.704237312080001425e-04,3.173698438329999871e-03,1.000000000000000000e+00
1.855262525999999967e+00,-2.303307921790000101e+00,2.404918686340000167e-01,-9.531326161429999999e+00,8.252852596339999708e-03,-8.356833830480000017e-03,1.070181746039999826e-02,1.000000000000000000e+00
1.860193827000000022e+00,-2.251510076140000205e+00,2.248432312660000043e-01,-9.553799274530000218e+00,-3.438739804550000091e-03,5.258160643279999151e-03,-9.560636244709999620e-03,1.000000000000000000e+00
1.865368230000000072e+00,-2.322839866859999880e+00,2.311030588459999924e-01,-9.523608134399999869e+00,-2.391063608230000023e-04,-7.170844823120000114e-03,-6.816645618530000087e-04,1.000000000000000000e+00
1.870408013000000036e+00,-2.339145397240000257e+00,2.203987642790000145e-01,-9.532439675630000053e+00,-1.693069702009999998e-03,1.307578757410000035e-02,5.431022495029999390e-03,1.000000000000000000e+00
1.875352546000000009e+00,-2.290902321459999946e+00,2.083835149780000062e-01,-9.539958380699999907e+00,-2.301627071570000460e-03,-1.102771796290000043e-02,-5.233607254920000403e-03,1.000000000000000000e+00
1.880381977000000093e+00,-2.321652410640000053e+00,2.597969278839999951e-01,-9.511551201379999654e+00,-1.548310974609999862e-04,-1.530383899810000038e-02,-2.806676551699999623e-03,1.000000000000000000e+00
1.885409035999999983e+00,-2.313352638200000033e+00,2.632274137889999976e-01,-9.521539511429999436e+00,1.863943599159999590e-02,3.792255185540000049e-03,2.723474754020000117e-03,1.000000000000000000e+00
1.890373344999999983e+00,-2.301190345109999758e+00,2.298437612339999936e-01,-9.534159339029999458e+00,1.775660552080000074e-03,-2.541049197320000355e-02,-2.509000245479999988e-03,1.000000000000000000e+00
1.895395122999999904e+00,-2.289684031709999790e+00,2.323026986929999926e-01,-9.522425062099999948e+00,-1.327942032370000094e-02,1.876338757570000099e-02,-1.052206009630000071e-02,1.000000000000000000e+00
1.900146552999999905e+00,-2.339402148480000054e+00,2.526469830640000191e-01,-9.516057865149999628e+00,6.133118178700000013e-03,7.828648202120000107e-03,-2.770487219099999725e-03,1.000000000000000000e+00
1.905173146000000095e+00,-2.243405972400000170e+00,2.393242496269999686e-01,-9.523351529289998396e+00,1.045068260279999849e-02,-9.927514940499999191e-03,-1.907142065470000120e-02,1.000000000000000000e+00
1.910302343999999986e+00,-2.339969573099999867e+00,2.419070326619999767e-01,-9.506218023660000682e+00,3.975868225099999861e-03,5.666648969049999790e-03,5.976139567790000016e-03,1.000000000000000000e+00
1.915334426000000034e+00,-2.276271007909999700e+00,2.546886449590000101e-01,-9.538696397939999017e+00,-6.438092328609999748e-03,-7.924964651470000829e-03,1.655230531469999893e-03,1.000000000000000000e+00
1.920320054999999915e+00,-2.293061837579999818e+00,2.700782295320000026e-01,-9.551621345960001008e+00,1.082167681310000108e-02,-3.701810957860000341e-03,5.130611825729999983e-04,1.000000000000000000e+00
1.925294030999999961e+00,-2.281707938270000291e+00,2.476417951880000023e-01,-9.522362518250000463e+00,7.253359537569998954e-03,3.014130052180000185e-04,6.250093691050000178e-03,1.000000000000000000e+00
1.930326549999999974e+00,-2.258750548790000146e+00,2.060632553370000120e-01,-9.527238599860000434e+00,-1.189174596220000241e-02,-4.403216298670000026e-04,-1.348800957199999991e-02,1.000000000000000000e+00
1.935322608000000111e+00,-2.334365907870000090e+00,2.047455055359999887e-01,-9.541577506330000347e+00,-4.080185201020000187e-03,1.556119881569999848e-03,5.905911326409999523e-03,1.000000000000000000e+00
1.940174950000000065e+00,-2.290858774580000201e+00,2.178881696979999838e-01,-9.541224455110000946e+00,-4.939649719740000187e-03,1.316601224239999889e-02,-4.703888669609999212e-03,1.000000000000000000e+00
1.945243926999999928e+00,-2.316011189890000210e+00,2.262744879119999997e-01,-9.530798338169999440e+00,7.320236763919998587e-04,1.515939831730000196e-03,1.863793702799999927e-03,1.000000000000000000e+00
1.950352065999999995e+00,-2.284382564299999974e+00,2.309299490349999706e-01,-9.541638881129999916e+00,2.303894609210000062e-03,3.521174192429999631e-03,-6.451561115680000923e-03,1.000000000000000000e+00
1.955235862000000102e+00,-2.305791409169999806e+00,2.325090349199999962e-01,-9.498570139260001710e+00,5.900248419490000326e-03,1.241393759849999945e-02,-6.216267589479998815e-03,1.000000000000000000e+00
1.960284946000000028e+00,-2.305666467609999604e+00,2.343570191409999892e-01,-9.550538226900000538e+00,-4.245107062159999937e-03,-2.028877381239999750e-03,5.486405454580000132e-03,1.000000000000000000e+00
1.965189295000000058e+00,-2.292561048450000083e+00,2.095957585780000021e-01,-9.521965627889999340e+00,-5.775743047710000730e-04,-2.520272508260000110e-03,1.461531128730000038e-02,1.000000000000000000e+00
1.970182019999999978e+00,-2.227029714880000011e+00,1.800266228100000088e-01,-9.502653024660000725e+00,-1.200878759849999819e-03,1.201999094339999997e-02,-9.883722290400000221e-03,1.000000000000000000e+00
1.975333031999999989e+00,-2.297532114870000086e+00,2.458786762390000047e-01,-9.458605793139998497e+00,-1.554751303049999901e-02,-4.300230648369999555e-03,-5.154137033970000031e-03,1.000000000000000000e+00
1.980336764000000027e+00,-2.322773962020000305e+00,1.975611104569999776e-01,-9.544117838469999171e+00,-4.968764726069999776e-03,-9.515320416539999613e-04,1.192773971709999888e-02,1.000000000000000000e+00
1.985332628000000099e+00,-2.283507973429999893e+00,2.333786025629999983e-01,-9.535554008260000103e+00,-7.183089852330000122e-03,1.083316281440000091e-02,7.553952746089998872e-04,1.000000000000000000e+00
1.990339159999999996e+00,-2.301918659390000066e+00,2.356289935720000117e-01,-9.549919218219999451e+00,1.560752978549999814e-03,-1.867268118080000041e-03,-4.223985597489999621e-04,1.000000000000000000e+00
1.995375385000000001e+00,-2.281775742809999841e+00,2.274569208960000033e-01,-9.519716972180001235e+00,1.209271140399999916e-02,-1.363661373029999855e-03,3.356436965989999764e-03,1.000000000000000000e+00
2.000417484000000190e+00,-2.325941047750000212e+00,2.513097431109999613e-01,-9.531658754389999544e+00,-9.530145907769999860e-04,-3.943157847969999859e-03,6.041290238499999639e-03,1.000000000000000000e+00
2.005373520000000021e+00,-2.317935728209999713e+00,2.954022933429999997e-01,-9.514628709129999251e+00,-5.039195530119999766e-03,1.222011726349999869e-02,1.418391522020000066e-02,1.000000000000000000e+00
2.010323367999999888e+00,-2.288928098780000031e+00,2.191061854520000018e-01,-9.535444702670000439e+00,6.950777955350000495e-03,9.685883298519999685e-03,5.658787675200000269e-03,1.000000000000000000e+00
2.015368003999999935e+00,-2.257886187049999993e+00,2.010214983099999908e-01,-9.556106966950000725e+00,4.254258819860000222e-04,9.128835517910000117e-04,-9.722008369860000998e-03,1.000000000000000000e+00
2.020350210999999785e+00,-2.337884145129999869e+00,1.963775084290000084e-01,-9.547407527660000781e+00,7.958091446199999728e-04,-1.367353368549999951e-03,1.016904134300000012e-02,1.000000000000000000e+00
2.025243709999999808e+00,-2.278186778399999834e+00,2.716825411900000153e-01,-9.506132098940000219e+00,-1.125198043879999978e-02,2.044977061449999856e-02,-1.528732012960000138e-03,1.000000000000000000e+00
2.030141765000000209e+00,-2.310852638080000077e+00,2.229344933020000197e-01,-9.507864621819999584e+00,-2.778392750769999742e-03,1.175462920219999888e-02,-1.855869893920000097e-03,1.000000000000000000e+00
2.035173352000000158e+00,-2.326463025800000306e+00,2.384192088120000164e-01,-9.503351528310000518e+00,-8.027686737479999834e-03,8.559997193520000117e-03,8.349999785420000181e-03,1.000000000000000000e+00
2.040168550999999830e+00,-2.261881978679999960e+00,2.479512995279999910e-01,-9.491037405660000204e+00,-9.054405614729999288e-03,-1.139385160060000200e-02,-1.464924076569999950e-03,1.000000000000000000e+00
2.045129097999999868e+00,-2.281533020089999919e+00,2.095866254240000004e-01,-9.530949144810000107e+00,2.861571498220000231e-03,-6.145508959889999564e-04,-7.733566686509999767e-03,1.000000000000000000e+00
2.050174163999999966e+00,-2.286641449149999783e+00,2.251229067240000103e-01,-9.516015779580000000e+00,-1.623393408949999964e-02,7.302124984559999615e-03,-3.318587318059999791e-03,1.000000000000000000e+00
2.055169733000000054e+00,-2.342003709280000123e+00,2.476361508980000070e-01,-9.541348373749999112e+00,-8.597934618590000189e-03,-1.541678514329999916e-02,1.056398544460000061e-02,1.000000000000000000e+00
2.060342646000000055e+00,-2.253668715479999918e+00,2.524566298570000145e-01,-9.524190902719999130e+00,6.124059204010001006e-03,-1.339412061500000082e-03,-8.329029195009999414e-03,1.000000000000000000e+00
2.065209932000000137e+00,-2.314467905969999961e+00,2.522640298939999859e-01,-9.539027237330000020e+00,3.381810849530000017e-03,-1.718012802300000058e-02,1.290665660050000114e-02,1.000000000000000000e+00
2.070197851000000089e+00,-2.267685258129999770e+00,2.439052390080000132e-01,-9.553701659369998822e+00,-1.806213520470000000e-02,-2.522977627810000026e-02,-3.218003315849999896e-03,1.000000000000000000e+00
2.075200237999999864e+00,-2.303874908020000056e+00,2.248455328210000048e-01,-9.556010520830000132e+00,-2.132560766770000282e-04,-2.450364176179999857e-03,1.644222065809999790e-04,1.000000000000000000e+00
2.080315402000000091e+00,-2.311897178700000222e+00,2.188998674909999886e-01,-9.559299040990000051e+00,1.947002718229999974e-03,-9.056825190780000423e-03,3.313496941699999639e-03,1.000000000000000000e+00
2.085170037000000143e+00,-2.273966091969999770e+00,2.535107054869999987e-01,-9.536372338910000579e+00,-9.156024083500000771e-03,1.839532703159999644e-02,-9.678545175120000302e-04,1.000000000000000000e+00
2.090191522000000024e+00,-2.265980938429999814e+00,2.657403281919999971e-01,-9.514965393739998945e+00,1.060955226419999994e-02,-8.852458558980000423e-04,-3.053830191489999984e-02,1.000000000000000000e+00
2.095173259000000066e+00,-2.333201101879999850e+00,2.715048465349999551e-01,-9.519740937579999951e+00,-6.615473423150000469e-03,2.700462937360000211e-03,-5.668113008140000623e-03,1.000000000000000000e+00
2.100362211000000201e+00,-2.325253211609999759e+00,2.622834109369999722e-01,-9.504063475980000675e+00,8.081664331259999154e-03,-4.261491354550000533e-03,-7.475302554669999676e-03,1.000000000000000000e+00
2.105351134999999818e+00,-2.271703992259999971e+00,2.152916138659999867e-01,-9.558462590159999550e+00,-8.465253049510000974e-04,-5.694852210579999865e-03,-1.813620701430000010e-02,1.000000000000000000e+00
2.110295628999999895e+00,-2.340470216099999945e+00,2.321937949590000272e-01,-9.535510169120000157e+00,-6.617643521169999611e-04,1.717456057669999869e-02,-8.841836825010000256e-04,1.000000000000000000e+00
2.115353672999999990e+00,-2.316222348420000188e+00,2.335608637940000121e-01,-9.517453118900000675e+00,1.238660188390000041e-04,9.328120388089999881e-03,9.902017191050001711e-04,1.000000000000000000e+00
2.120357955999999877e+00,-2.275478250099999933e+00,2.463389689609999933e-01,-9.535473344239999705e+00,-8.768319152299999114e-03,-3.940576221789999882e-03,3.521349048239999675e-03,1.000000000000000000e+00
2.125229255999999900e+00,-2.268139431639999870e+00,2.655763515349999770e-01,-9.524012623550000001e+00,2.297192346300000378e-03,1.022210065279999941e-02,-1.276448275889999900e-02,1.000000000000000000e+00
2.130317097999999909e+00,-2.325923804349999902e+00,2.488071674389999988e-01,-9.537039862900000387e+00,2.338032936679999493e-03,-3.790105227380000455e-03,8.637034334239999857e-04,1.000000000000000000e+00
2.135169537999999978e+00,-2.294364883010000078e+00,2.478722429430000040e-01,-9.506124500160000323e+00,8.422536775470000278e-03,-1.274449471380000032e-02,2.674860879779999870e-04,1.000000000000000000e+00
2.140311953999999961e+00,-2.299054648259999833e+00,2.977776076390000193e-01,-9.518016013480000481e+00,1.532527524979999944e-02,1.445169001820000194e-02,-4.861406981950000018e-03,1.000000000000000000e+00
2.145213614000000213e+00,-2.245666610809999852e+00,2.403886457219999995e-01,-9.534339371769998905e+00,1.890246383849999989e-02,6.735961884260000671e-03,-1.574525609609999863e-02,1.000000000000000000e+00
2.150209176999999805e+00,-2.336585337490000303e+00,2.238156600510000094e-01,-9.540302664089999496e+00,6.225196178999999400e-03,4.959705285729999573e-03,9.550459217280000924e-04,1.000000000000000000e+00
2.155260253999999875e+00,-2.278202706629999685e+00,2.240597710049999913e-01,-9.506132098940000219e+00,5.322488024829999387e-03,-3.329823724930000128e-03,-4.741501063109999393e-03,1.000000000000000000e+00
2.160122980000000137e+00,-2.289961971869999946e+00,1.357690638749999845e-01,-9.527623799780000624e+00,1.756579615180000123e-02,1.027213130150000063e-02,7.004164159300000497e-03,1.000000000000000000e+00
2.165132217000000026e+00,-2.322863101609999870e+00,1.965221045320000026e-01,-9.537393498649999302e+00,9.889408946040002119e-03,-1.615461334589999784e-02,1.099785789849999987e-02,1.000000000000000000e+00
2.170375314000000166e+00,-2.275304208709999720e+00,2.371898496800000089e-01,-9.504760810589999664e+00,-4.560965579000000013e-03,-3.067077603189999769e-03,-9.465896291659999656e-04,1.000000000000000000e+00
2.175322028000000074e+00,-2.321669654039999919e+00,2.287932292680000257e-01,-9.520837500639999007e+00,1.753710955380000103e-02,-5.177959799770000433e-03,8.962166029960000552e-04,1.000000000000000000e+00
2.180318498000000105e+00,-2.307518232959999693e+00,2.311180737519999973e-01,-9.520151271950000549e+00,1.448232959960000198e-02,-1.246598176660000147e-02,4.084545187649999895e-03,1.000000000000000000e+00
2.185208559999999967e+00,-2.280676841650000064e+00,2.465030369489999984e-01,-9.524196747939999597e+00,3.968825563790000406e-03,1.109339296819999987e-02,-1.897772308439999985e-04,1.000000000000000000e+00
2.190324948000000216e+00,-2.279939467290000188e+00,1.988686493910000186e-01,-9.524285010750000779e+00,2.694476861510000393e-03,4.377665463839999598e-03,2.697498770429999741e-03,1.000000000000000000e+00
2.195354796999999802e+00,-2.273212643249999942e+00,1.678488033579999816e-01,-9.538151039019998834e+00,8.535715751350000588e-03,3.911531995980000072e-03,-1.780035672710000025e-03,1.000000000000000000e+00
2.200352104999999892e+00,-2.292261773249999912e+00,1.904995380400000271e-01,-9.526781503739998769e+00,1.182896923270000157e-02,-1.146950293329999926e-03,1.036812365059999914e-02,1.000000000000000000e+00
2.205342712999999844e+00,-2.253045761280000114e+00,1.890832232349999864e-01,-9.557468902949999290e+00,4.324445500970000404e-03,-3.322928678239999811e-04,-3.024537814780000299e-03,1.000000000000000000e+00
2.210236391000000022e+00,-2.316456741699999711e+00,2.275201588580000045e-01,-9.518121811939998622e+00,9.168075397609999969e-03,-6.776264868680000053e-03,1.140581537039999857e-02,1.000000000000000000e+00
2.215367082000000210e+00,-2.263200075540000356e+00,2.297716093130000026e-01,-9.526907760469999431e+00,7.818754762410000392e-03,-1.881822012359999838e-02,6.009464152159998962e-03,1.000000000000000000e+00
2.220377150000000022e+00,-2.246729271610000023e+00,2.129244280770000164e-01,-9.549442248360000107e+00,-2.670177724209999836e-03,-9.608506225050000502e-03,-7.955630309880000126e-03,1.000000000000000000e+00
2.225346377999999792e+00,-2.300278637090000355e+00,1.681605909870000082e-01,-9.500123798440000655e+00,-1.589688472450000037e-03,8.547750301660000591e-03,3.863414051010000388e-03,1.000000000000000000e+00
2.230220232999999830e+00,-2.252278284039999967e+00,1.346656600770000101e-01,-9.519161091860000923e+00,-1.526641752570000003e-02,-7.868202403189999972e-03,-5.433470476419999945e-03,1.000000000000000000e+00
2.235361095000000020e+00,-2.301694056850000170e+00,1.500529978940000064e-01,-9.538788167879999946e+00,-1.519914064560000042e-02,-7.381584029639999718e-03,-2.857399871569999816e-03,1.000000000000000000e+00
2.240320999999999785e+00,-2.277499234529999583e+00,1.847188722789999960e-01,-9.506528989310000455e+00,-1.012573111799999932e-02,-6.329787895080000483e-03,2.964426530530000613e-03,1.000000000000000000e+00
2.245361405999999782e+00,-2.294167899130000077e+00,2.550716711939999826e-01,-9.500127305569998626e+00,-1.090935524549999959e-02,7.290655747060000719e-03,7.915371097620000880e-04,1.000000000000000000e+00
2.250353760999999952e+00,-2.306189176309999755e+00,2.191430103310000044e-01,-9.528478955309999776e+00,9.125425480309999615e-03,-1.286739949139999867e-02,4.412334412340000213e-03,1.000000000000000000e+00
2.255179475999999905e+00,-2.274527817509999661e+00,2.333134101060000132e-01,-9.543849542919998541e+00,-3.357432549820000330e-03,7.542191073299999923e-03,-1.228452008220000218e-02,1.000000000000000000e+00
2.260291608999999813e+00,-2.324141158720000266e+00,2.510863096179999920e-01,-9.547843580989999523e+00,-9.367363527419999680e-04,-1.037682965400000060e-02,1.334903063250000204e-03,1.000000000000000000e+00
2.265209114000000135e+00,-2.289529425670000062e+00,2.535005676859999890e-01,-9.544249355889999009e+00,-2.085472084579999968e-02,6.358150392770000464e-03,-3.278825897719999868e-03,1.000000000000000000e+00
2.270653605000000130e+00,-2.286085276570000158e+00,2.260740151699999756e-01,-9.551265372130000486e+00,-6.105941720310000161e-03,-1.779229147359999864e-03,-8.663387037809999747e-03,1.000000000000000000e+00
2.275611980999999950e+00,-2.321997570820000245e+00,2.381694353020000210e-01,-9.527536706019999357e+00,-1.855856506150000296e-03,1.081446465099999976e-02,5.006311461329999643e-03,1.000000000000000000e+00
2.280217415000000081e+00,-2.283587906800000233e+00,2.964703061669999862e-01,-9.528932544289999029e+00,2.631775103509999877e-03,-1.048128120600000032e-02,-4.700914025310000237e-03,1.000000000000000000e+00
2.285186165999999908e+00,-2.269579693579999891e+00,2.056782198079999957e-01,-9.568052256279999668e+00,-2.677731215949999671e-03,1.705360133200000024e-03,-1.442166790370000111e-02,1.000000000000000000e+00
2.290198665000000133e+00,-2.375285655019999886e+00,1.897985684299999809e-01,-9.494085687320000133e+00,7.530595641579999368e-03,5.644183605909999790e-03,1.081613451239999898e-02,1.000000000000000000e+00
2.295250944000000182e+00,-2.213358040140000149e+00,1.699638775500000032e-01,-9.560231937919999368e+00,-2.825145609679999888e-03,-9.547867812219999403e-03,-1.382147893309999993e-02,1.000000000000000000e+00
2.300439406999999825e+00,-2.358586156899999953e+00,1.677158794270000031e-01,-9.565904722860000930e+00,-7.254703436050000294e-03,1.324761658910000167e-03,9.938336908820000898e-03,1.000000000000000000e+00
2.305446422999999800e+00,-2.249331855319999907e+00,1.653646035930000091e-01,-9.547849426209999990e+00,-2.096571493889999842e-03,2.622164320199999940e-03,-3.699382534249999899e-03,1.000000000000000000e+00
2.310303637000000077e+00,-2.283344745690000011e+00,1.949990962150000007e-01,-9.561092938659999874e+00,1.543391728770000153e-03,1.000775769349999955e-02,-1.599386567250000177e-03,1.000000000000000000e+00
2.315215100000000081e+00,-2.336023319690000211e+00,1.886149481359999935e-01,-9.497376545560001659e+00,-1.575106196110000190e-02,-8.004363626239999543e-03,-1.275582006200000080e-03,1.000000000000000000e+00
2.320356557999999847e+00,-2.304985061220000020e+00,2.502867019400000226e-01,-9.509213698350000854e+00,-1.302510872479999832e-02,-7.310910616069999160e-03,-5.305502563709999821e-03,1.000000000000000000e+00
2.325399086000000004e+00,-2.349785303059999997e+00,2.727620617879999987e-01,-9.531490996609999655e+00,-1.752349082380000008e-03,-2.681131474670000146e-03,3.898876952010000251e-03,1.000000000000000000e+00
2.330445828000000219e+00,-2.270410737579999783e+00,2.593338952149999987e-01,-9.548501168119999605e+00,-1.820936799049999990e-03,1.384748890999999878e-02,5.619716830549999079e-04,1.000000000000000000e+00
2.335268764999999913e+00,-2.289698937020000269e+00,2.686378762639999862e-01,-9.563549684169998955e+00,-1.179752219470000044e-02,-2.692411653699999970e-03,1.870631426570000186e-02,1.000000000000000000e+00
2.340385198999999972e+00,-2.241298040340000242e+00,2.141046508370000045e-01,-9.558434533110000686e+00,-4.754174035039999448e-03,-1.103675737979999995e-02,-7.791362702850000883e-03,1.000000000000000000e+00
2.345280090999999789e+00,-2.324661821589999899e+00,2.252491269199999868e-01,-9.501684471880000871e+00,1.852372894059999995e-03,9.979223832489999418e-03,1.570902764800000129e-02,1.000000000000000000e+00
2.350399830999999828e+00,-2.260287987489999928e+00,1.937352137589999912e-01,-9.567222235199999147e+00,1.639421470460000058e-02,-1.539515703920000048e-02,9.083987213670000060e-03,1.000000000000000000e+00
2.355415477999999840e+00,-2.245931691490000048e+00,2.319050228790000001e-01,-9.557763501980000242e+00,-1.027124002580000021e-02,-5.651800893249999368e-03,-8.193724788729999167e-03,1.000000000000000000e+00
2.360246027000000080e+00,-2.298688591420000371e+00,2.737966289999999581e-01,-9.536020456730000205e+00,2.977390773589999682e-03,-9.917581453920000512e-03,-8.568137884140000771e-03,1.000000000000000000e+00
2.365202753999999796e+00,-2.276608569299999996e+00,2.616759465630000281e-01,-9.557712064049999512e+00,2.009140141309999697e-02,-1.386778708550000065e-02,-1.484023686500000015e-02,1.000000000000000000e+00
2.370407505000000192e+00,-2.264361958929999918e+00,2.669561154560000094e-01,-9.491374090269999897e+00,2.843734342600000124e-03,-4.493393935259999694e-04,-1.989745162430000061e-02,1.000000000000000000e+00
2.375373270999999953e+00,-2.327761833429999871e+00,2.238958491470000034e-01,-9.524092703049999997e+00,6.641186773779999587e-03,-1.877251081170000155e-02,8.685686625539998460e-04,1.000000000000000000e+00
2.380260151999999962e+00,-2.296059265829999863e+00,2.331861669970000106e-01,-9.557074350669999774e+00,-9.245956316590000362e-03,-9.006205014879999776e-03,-3.040286479519999779e-03,1.000000000000000000e+00
2.385258288999999809e+00,-2.276115963480000115e+00,2.772512447000000102e-01,-9.544710543660000823e+00,2.801035530869999766e-03,-1.348748058079999798e-02,-9.416655637320000063e-03,1.000000000000000000e+00
2.390265304999999785e+00,-2.300287258790000067e+00,2.750146264880000135e-01,-9.525783724869999247e+00,5.267680156979999591e-03,-1.814110204579999844e-02,-4.105262923990000111e-04,1.000000000000000000e+00
2.395215095000000183e+00,-2.287364794990000227e+00,2.611090699280000371e-01,-9.491683886869999753e+00,-1.616535242650000244e-03,5.235484801229999333e-03,-8.430155925449999560e-03,1.000000000000000000e+00
2.400409697999999814e+00,-2.291911644640000301e+00,1.895187833739999939e-01,-9.505127890339998942e+00,-4.240945447239999680e-03,-1.550611667339999930e-02,5.119252018630000454e-04,1.000000000000000000e+00
2.405381450999999782e+00,-2.243571830490000085e+00,1.704189278409999897e-01,-9.502171378619999942e+00,-6.678848527369999483e-03,-7.195476908239998963e-03,-1.925499644129999993e-03,1.000000000000000000e+00
2.410301424000000026e+00,-2.302487106920000137e+00,2.017215911370000003e-01,-9.475471587739999535e+00,-2.012225240469999940e-02,-6.770253181460000186e-03,1.377171184869999988e-02,1.000000000000000000e+00
2.415417460000000016e+00,-2.229793480510000148e+00,2.337486049190000137e-01,-9.484172196070000282e+00,-3.943328280000000033e-03,-9.969734586780000518e-03,-5.514673888679999698e-03,1.000000000000000000e+00
2.420359989000000045e+00,-2.260164068849999985e+00,2.527483976120000198e-01,-9.485317274450000724e+00,-2.094124630089999953e-02,-6.214504130180000495e-03,-6.111319176849999528e-03,1.000000000000000000e+00
2.425313365000000054e+00,-2.292586329030000147e+00,2.670965468400000042e-01,-9.491536002839998432e+00,-2.205391228199999817e-02,-1.462065707889999983e-02,-8.367357775569999462e-03,1.000000000000000000e+00
2.430348299999999906e+00,-2.348279282410000057e+00,3.206147500050000043e-01,-9.499773085310000198e+00,-4.439869895579999851e-03,4.648442845789999694e-03,9.048976004120001457e-03,1.000000000000000000e+00
2.435359937999999946e+00,-2.307281209330000138e+00,2.932157613499999926e-01,-9.515493801530000795e+00,-2.040370739999999850e-02,-8.160831406709999347e-03,-8.106427267189998676e-03,1.000000000000000000e+00
2.440226098000000121e+00,-2.300102988270000370e+00,1.801183014149999873e-01,-9.508760693879999337e+00,9.262507664969999756e-04,-7.498129270970000856e-03,-7.272036746140000431e-03,1.000000000000000000e+00
2.445194072000000052e+00,-2.332245700850000159e+00,2.009148413309999881e-01,-9.578208324120000228e+00,6.640414707360000300e-03,-6.197603419419999912e-03,1.185447815810000000e-02,1.000000000000000000e+00
2.450340509000000111e+00,-2.280536702530000071e+00,2.384079384989999939e-01,-9.512452534139999472e+00,-1.324599608779999937e-02,-5.974437110129999715e-03,-2.303039655089999822e-03,1.000000000000000000e+00
2.455220009000000037e+00,-2.272371077859999922e+00,2.381338890649999929e-01,-9.526793194179999702e+00,-1.302351430059999968e-02,-9.252335876229998701e-03,7.053522858769999343e-04,1.000000000000000000e+00
2.460247891999999936e+00,-2.317308243959999903e+00,2.500976091079999963e-01,-9.534152909289998590e+00,-2.030297368759999624e-02,-2.139208279550000244e-02,7.805668748919999782e-03,1.000000000000000000e+00
2.465165830000000113e+00,-2.287405126999999982e+00,2.480513258370000140e-01,-9.502634904480000699e+00,1.931565580890000052e-03,-5.432923324410000691e-03,-8.857125416399999965e-03,1.000000000000000000e+00
2.470172693999999947e+00,-2.317358658969999929e+00,2.159681248879999904e-01,-9.495476264889999740e+00,-2.478464040909999881e-03,-1.240190025420000001e-02,-6.231155246500000473e-03,1.000000000000000000e+00
2.475371376000000012e+00,-2.323272413059999764e+00,2.477750479120000016e-01,-9.532592235850000151e+00,-2.486894838509999539e-02,-7.181633729489999424e-03,-2.210780512539999888e-03,1.000000000000000000e+00
2.480303016000000138e+00,-2.292525392619999991e+00,2.641831801439999960e-01,-9.547940611619999629e+00,-7.628544233739999701e-03,-1.337549090390000028e-02,2.107751322910000110e-03,1.000000000000000000e+00
2.485331421999999790e+00,-2.304509406529999804e+00,3.024803602360000010e-01,-9.529712881020000026e+00,-2.162304706869999996e-02,-4.391632974150000272e-04,1.895538298410000050e-03,1.000000000000000000e+00
2.490306421000000103e+00,-2.328874032459999910e+00,2.944391291330000215e-01,-9.514116083430000259e+00,-1.020322379190000004e-04,3.745865542440000168e-03,-7.289205677810000825e-03,1.000000000000000000e+00
2.495328049999999909e+00,-2.355761600990000204e+00,2.741097318040000008e-01,-9.519254615369998618e+00,-8.980194106700001636e-03,9.391560219230000658e-03,6.211161613460000445e-03,1.000000000000000000e+00
2.500356930000000144e+00,-2.318484740390000187e+00,1.239063199880000021e-01,-9.555253564990000115e+00,-6.547010969369999010e-03,1.094079110770000175e-02,2.468994120139999908e-03,1.000000000000000000e+00
2.505302005999999970e+00,-2.319501223960000136e+00,1.561706405240000095e-01,-9.545435350810000941e+00,-6.448096595700000128e-03,-1.469983998690000022e-02,-9.625493548809998037e-03,1.000000000000000000e+00
2.510192357999999846e+00,-2.316569700550000110e+00,2.203278727340000076e-01,-9.550907644740000535e+00,-1.695435866709999947e-02,2.847218420359999731e-03,-1.903454773129999861e-02,1.000000000000000000e+00
2.515157489999999996e+00,-2.359718814190000291e+00,2.237859225000000118e-01,-9.560686695950000313e+00,-9.084961377079999942e-03,-2.679635770619999760e-03,-2.769785933199999783e-03,1.000000000000000000e+00
2.520178528999999834e+00,-2.281499556210000001e+00,2.000752487019999970e-01,-9.534292610019999614e+00,-1.063843350860000161e-02,-3.448625560849999990e-03,-5.192155949770000008e-03,1.000000000000000000e+00
2.525191124000000009e+00,-2.358831509959999906e+00,1.207922430880000036e-01,-9.525030276160000753e+00,1.024805847559999948e-02,2.178179565820000043e-04,-1.579747162760000018e-02,1.000000000000000000e+00
2.530363061000000080e+00,-2.340440405479999875e+00,1.718593907059999815e-01,-9.505942129330000157e+00,2.148092491550000240e-03,-5.437264218929999809e-03,-5.612776149060000330e-04,1.000000000000000000e+00
2.535399393000000057e+00,-2.343658636879999868e+00,2.095684504459999764e-01,-9.542330955049999730e+00,-1.901919208470000122e-02,-8.077049627900000431e-03,2.206866256890000280e-02,1.000000000000000000e+00
2.540327213999999945e+00,-2.292107605600000042e+00,2.314357248669999811e-01,-9.507807923199999678e+00,-4.649589769540000278e-03,-9.151378646490000365e-03,-3.931201063099999671e-03,1.000000000000000000e+00
2.545194337999999945e+00,-2.313636277450000112e+00,3.072711016440000109e-01,-9.523925529790000510e+00,-1.934664882720000048e-02,9.152068756520000473e-03,2.997551346199999866e-03,1.000000000000000000e+00
2.550363791000000102e+00,-2.300099919529999593e+00,3.215389521779999926e-01,-9.528527470619998496e+00,4.065851680929999552e-03,3.948462195690000467e-03,-1.744001870970000130e-03,1.000000000000000000e+00
2.555190950000000072e+00,-2.290044535590000319e+00,2.809616069929999904e-01,-9.539300209049999424e+00,-1.557643339039999943e-02,-6.409123074260000136e-03,-5.861228331920000610e-03,1.000000000000000000e+00
2.560113513000000118e+00,-2.294476088300000161e+00,2.200905568470000184e-01,-9.564970072360001296e+00,-7.337980438019999635e-03,-8.558931294830000999e-04,-1.008641161020000163e-02,1.000000000000000000e+00
2.565184874999999920e+00,-2.332717702279999639e+00,2.357597803450000029e-01,-9.535653961499999554e+00,-7.192816119640000477e-03,6.577697582540000150e-03,1.206808164719999979e-02,1.000000000000000000e+00
2.570152794999999823e+00,-2.289086650340000251e+00,2.016544259189999855e-01,-9.509051201260000141e+00,-3.327111713590000242e-03,2.022316213700000101e-03,-1.083845272660000081e-02,1.000000000000000000e+00
2.575541701000000128e+00,-2.347735530930000092e+00,2.266885303400000273e-01,-9.502121694260001306e+00,5.660230293869999985e-03,-5.953626241529999183e-03,-3.017095848920000288e-03,1.000000000000000000e+00
2.580113950999999961e+00,-2.273179179380000026e+00,2.256183072920000254e-01,-9.470006892589999836e+00,-2.110437955710000018e-03,1.481857895850000051e-02,-1.059904694560000020e-02,1.000000000000000000e+00
2.585051539000000176e+00,-2.353646362410000137e+00,2.121592706569999931e-01,-9.526250173339999350e+00,-1.075290236620000082e-02,1.039215270429999852e-02,6.793576292689998929e-03,1.000000000000000000e+00
2.590123128000000108e+00,-2.312002684899999938e+00,2.206109822579999935e-01,-9.514212529550000852e+00,-3.300210833549999806e-02,-4.312840290369999822e-03,-1.010415144260000045e-05,1.000000000000000000e+00
2.595123007999999842e+00,-2.292359242269999875e+00,3.251746783319999778e-01,-9.515784308909999822e+00,-2.247552946209999819e-02,6.058788858350001166e-03,-2.550967503340000227e-03,1.000000000000000000e+00
2.600105548999999794e+00,-2.372134205250000072e+00,3.000317797740000292e-01,-9.558083235449998938e+00,-1.045645307750000044e-02,1.298845931889999923e-02,6.645109504459999553e-03,1.000000000000000000e+00
2.605030716999999996e+00,-2.277968751740000464e+00,3.313828853219999981e-01,-9.491555876579999662e+00,-1.790665835140000176e-02,1.119655836370000122e-02,-1.046739239250000023e-02,1.000000000000000000e+00
2.609959347999999846e+00,-2.389708148129999987e+00,2.861639614090000228e-01,-9.509210775739997956e+00,6.189036066640000349e-04,-2.264164946970000092e-02,1.008566655220000108e-02,1.000000000000000000e+00
2.615062055000000107e+00,-2.269397615009999924e+00,2.444935054909999905e-01,-9.496958027879999875e+00,-1.371793681759999857e-03,4.290596582000000096e-03,-1.028895843770000033e-02,1.000000000000000000e+00
2.620163744000000072e+00,-2.347133765640000203e+00,2.145414896180000142e-01,-9.527356673279999910e+00,2.679991070179999890e-03,1.002213172609999967e-02,1.971548656000000031e-03,1.000000000000000000e+00
2.625189097999999888e+00,-2.300432950870000326e+00,2.297923415739999975e-01,-9.542450782039999524e+00,-3.056379035120000004e-02,-3.976908046750000057e-03,2.115314593539999784e-03,1.000000000000000000e+00
2.630086177999999997e+00,-2.315050382029999909e+00,2.123655703510000103e-01,-9.493481876209999726e+00,-1.512810774150000030e-02,-3.711457829919999297e-04,1.085826940829999997e-02,1.000000000000000000e+00
2.635322674999999837e+00,-2.308606320459999584e+00,2.099387450629999763e-01,-9.509429386919999061e+00,-1.801458746189999946e-02,-8.008900098500000911e-03,3.462383290750000332e-03,1.000000000000000000e+00
2.640166450999999803e+00,-2.337165037070000118e+00,2.241550480730000183e-01,-9.519994035560001677e+00,-9.616586379709999438e-03,-1.492643728850000066e-02,5.849867127839999785e-03,1.000000000000000000e+00
2.645226120999999875e+00,-2.273607926179999961e+00,1.787124532050000103e-01,-9.533779399800000220e+00,-1.752924546600000133e-02,2.713284455239999612e-03,-6.871839985249999019e-03,1.000000000000000000e+00
2.650188186999999918e+00,-2.359597818159999694e+00,1.754962676379999975e-01,-9.496533080469999888e+00,-3.440308943390000401e-02,4.214640706780000377e-03,2.000690624119999886e-02,1.000000000000000000e+00
2.655174296000000211e+00,-2.250478979529999979e+00,2.216192094520000044e-01,-9.522285361359999811e+00,-1.873838156459999710e-02,1.163571979849999972e-02,-2.307892311360000039e-03,1.000000000000000000e+00
2.660146327000000088e+00,-2.258509287379999897e+00,2.060071229690000061e-01,-9.517737781060001012e+00,-2.196154929700000133e-02,-3.182466374710000122e-03,6.192037835720000209e-03,1.000000000000000000e+00
2.665155452000000036e+00,-2.222945075920000235e+00,2.646954953139999955e-01,-9.473844863320000087e+00,-2.139330841599999811e-02,8.600971195849999853e-04,-6.556698121129999821e-03,1.000000000000000000e+00
2.670161926000000019e+00,-2.494559392440000245e+00,3.219920297080000049e-01,-9.544023730439999298e+00,-1.186865847560000103e-02,4.451458808029999832e-03,4.254721105099999387e-03,1.000000000000000000e+00
2.675294183000000103e+00,-2.212305754610000008e+00,2.381865325670000089e-01,-9.497422138260001034e+00,-5.443829111749999734e-03,-4.437346011399999866e-03,5.351820960640000027e-03,1.000000000000000000e+00
2.680187502999999971e+00,-2.383933656379999988e+00,2.570929296220000326e-01,-9.574277998930000422e+00,-1.495767105369999982e-02,7.617669180039999925e-03,1.713834330439999859e-02,1.000000000000000000e+00
2.685189219999999821e+00,-2.299839076630000090e+00,2.295063094400000281e-01,-9.455344160990000191e+00,-1.866379939020000253e-02,-1.104336790739999900e-02,-4.250526428219999521e-03,1.000000000000000000e+00
2.690159604999999843e+00,-2.297911177309999609e+00,2.533515694029999654e-01,-9.556626022379999696e+00,-1.977221295239999996e-02,2.667438238860000087e-04,1.003265101460000010e-02,1.000000000000000000e+00
2.695183828999999864e+00,-2.286918074129999923e+00,2.515288474879999736e-01,-9.506693239960000597e+00,-2.359246648850000030e-02,-9.898252785209999197e-03,1.075867330660000131e-03,1.000000000000000000e+00
2.700135937000000208e+00,-2.324788370579999874e+00,2.560914792280000185e-01,-9.528269696469999772e+00,-2.477089315649999915e-02,-2.374055562539999741e-03,1.265462487939999874e-02,1.000000000000000000e+00
2.705184474999999811e+00,-2.296053859010000142e+00,2.336951759650000293e-01,-9.504275657419999135e+00,-2.021781727670000223e-02,-1.598331844430000027e-03,1.004212535920000031e-02,1.000000000000000000e+00
2.710131904999999897e+00,-2.304217291720000116e+00,2.637504512819999758e-01,-9.484234155389998477e+00,-2.429283969100000037e-02,-5.366277880970000101e-03,-8.874027058479999966e-03,1.000000000000000000e+00
2.715351604999999946e+00,-2.297906208879999745e+00,2.762637314999999982e-01,-9.525439441479999658e+00,-1.975881308319999904e-02,-9.157035499809999812e-03,-4.609795287250000669e-04,1.000000000000000000e+00
2.720218311000000000e+00,-2.350052721830000024e+00,2.813903903309999954e-01,-9.502612108119999235e+00,-1.128359418360000074e-02,-1.088896766299999978e-02,1.021306775510000091e-02,1.000000000000000000e+00
2.725341409999999964e+00,-2.352947712619999798e+00,3.037924840150000305e-01,-9.543273788860000550e+00,-1.764471270140000048e-02,-7.475011050699999042e-03,5.276927258819999770e-04,1.000000000000000000e+00
2.730347071000000181e+00,-2.324490848940000021e+00,3.098538846789999912e-01,-9.506792024159999244e+00,-2.227644622329999838e-02,4.207375459370000549e-03,5.105751566590000130e-03,1.000000000000000000e+00
2.735234005000000135e+00,-2.302996663879999684e+00,2.737979259080000061e-01,-9.548368481649999850e+00,-3.299736976619999790e-02,-3.457965562119999763e-03,1.998811494559999910e-04,1.000000000000000000e+00
2.740342881000000119e+00,-2.300115555490000130e+00,2.652384613500000099e-01,-9.567911971030000018e+00,-3.112776204940000124e-02,6.799777969720000384e-03,2.876592101530000417e-03,1.000000000000000000e+00
2.745368091000000010e+00,-2.195133816659999848e+00,2.206978385570000090e-01,-9.442239180230000528e+00,-8.802213706079999728e-03,1.015908457339999987e-02,1.284473855049999939e-02,1.000000000000000000e+00
2.750351241999999807e+00,-2.437984833909999871e+00,3.586535348900000142e-01,-9.567527355630000230e+00,-2.110197395090000066e-02,-2.553543541580000163e-03,4.840434528889999734e-03,1.000000000000000000e+00
2.755383806000000213e+00,-2.279664742000000022e+00,2.232517608240000284e-01,-9.468127070199999551e+00,-2.320322394369999860e-02,-1.234740484510000113e-04,9.697796776889998360e-03,1.000000000000000000e+00
2.760285985999999969e+00,-2.302076480300000227e+00,3.119190370480000030e-01,-9.537163781539998553e+00,-3.698263689880000593e-02,-3.928883466870000327e-03,1.868552528319999961e-02,1.000000000000000000e+00
2.765230853999999905e+00,-2.298805641930000032e+00,2.494877701140000015e-01,-9.491962119289999222e+00,-3.015668876469999871e-02,2.772408537569999876e-03,-5.559394136070000374e-03,1.000000000000000000e+00
2.770158622999999931e+00,-2.294419535799999910e+00,2.299453584450000254e-01,-9.525798922439999927e+00,-3.004304878409999949e-02,6.067989394069999917e-03,-1.137523213400000021e-03,1.000000000000000000e+00
2.775297917000000059e+00,-2.308744267619999846e+00,2.493180395699999830e-01,-9.493253328150000669e+00,-1.983585394920000036e-02,-7.376930676399998804e-03,2.254276303570000237e-03,1.000000000000000000e+00
2.780312927000000212e+00,-2.309776387149999888e+00,2.050664628520000032e-01,-9.523751926789998379e+00,-3.008410148320000282e-02,1.155126094820000011e-02,2.713321009649999858e-03,1.000000000000000000e+00
2.785174951000000121e+00,-2.358536764799999741e+00,2.587510903590000133e-01,-9.520695461819999039e+00,-2.262252569199999647e-02,-5.016355775299999667e-03,9.570068679749998627e-03,1.000000000000000000e+00
2.790114936999999795e+00,-2.327144286059999789e+00,3.012992058939999995e-01,-9.544224221449999490e+00,-1.721997559070000128e-02,7.146324962380000249e-03,1.049820147450000046e-02,1.000000000000000000e+00
2.795138553000000137e+00,-2.333198763790000019e+00,3.138039740119999976e-01,-9.485069437170000839e+00,-2.131807385009999896e-03,2.189637627449999863e-03,6.684397812929999700e-04,1.000000000000000000e+00
2.800326033000000159e+00,-2.348037290349999751e+00,2.336929657420000195e-01,-9.524445754269999398e+00,-2.322096005080000192e-02,1.244248915460000049e-02,8.670010603959998896e-03,1.000000000000000000e+00
2.805325171999999867e+00,-2.311542373909999615e+00,2.456990088229999980e-01,-9.503626253600000240e+00,-2.160548418759999922e-02,7.558282464739999457e-03,7.953083142640000186e-03,1.000000000000000000e+00
2.810269480000000097e+00,-2.282468108990000299e+00,2.801724659090000236e-01,-9.495116783929999471e+00,-2.241347916420000086e-02,-5.044759251179999765e-03,6.129635497929999781e-03,1.000000000000000000e+00
2.815336525000000201e+00,-2.379030979029999937e+00,3.943650458710000195e-01,-9.541580428939999692e+00,-1.534673199060000021e-02,1.079461351039999809e-02,-3.540911944580000040e-03,1.000000000000000000e+00
2.820184788999999803e+00,-2.330610646989999868e+00,3.562980578050000124e-01,-9.503456742250000033e+00,-2.826682664450000035e-02,1.115967240180000021e-02,9.424616582690000660e-03,1.000000000000000000e+00
2.825245423999999783e+00,-2.319999382740000282e+00,3.953296165860000211e-01,-9.543299507819998695e+00,-3.811490489169999923e-03,-4.384499043229999476e-03,-4.460003692659999922e-04,1.000000000000000000e+00
2.830286051999999941e+00,-2.331426201159999767e+00,3.144098674829999829e-01,-9.539658520970000666e+00,-1.632351800800000211e-02,1.310463808479999867e-02,4.609565250579999822e-03,1.000000000000000000e+00
2.835344507999999930e+00,-2.294162638430000012e+00,3.537988979330000117e-01,-9.509925646010000122e+00,-3.131531178949999682e-03,1.356842927629999971e-03,8.113558404149999806e-03,1.000000000000000000e+00
2.840304173999999904e+00,-2.300759844739999949e+00,3.575367692870000114e-01,-9.508662494199999315e+00,-8.321765810249999104e-03,-7.843913510440000264e-03,-7.558017037810000130e-03,1.000000000000000000e+00
2.845277338999999905e+00,-2.354243597650000019e+00,3.278425093019999847e-01,-9.495872570739999574e+00,-3.444383619349999752e-03,-6.605189293619999867e-03,1.357499789450000022e-02,1.000000000000000000e+00
2.850305178999999800e+00,-2.283113567280000034e+00,3.312524638759999918e-01,-9.512702124980000562e+00,-5.280334968119999341e-03,-3.391199512409999537e-03,2.747813705350000187e-04,1.000000000000000000e+00
2.855338187000000083e+00,-2.280678010699999980e+00,3.087208620609999676e-01,-9.505338318219999749e+00,-4.038976971059999449e-03,-2.738491166380000396e-04,-1.505174394700000036e-02,1.000000000000000000e+00
2.860288199999999836e+00,-2.341286500919999902e+00,2.467462711199999992e-01,-9.518087325150000666e+00,-1.963450806219999879e-03,-4.048215691000000248e-03,1.825021812689999953e-03,1.000000000000000000e+00
2.865267054999999896e+00,-2.290111024949999852e+00,2.154648698069999979e-01,-9.547313419640000021e+00,5.453159101310001144e-03,-1.753674820069999959e-02,6.952749565239999159e-03,1.000000000000000000e+00
2.870332914000000013e+00,-2.295507477170000143e+00,2.430508689339999917e-01,-9.522371286080000274e+00,-5.819988902659999595e-03,8.973089978100000363e-03,1.326463092120000117e-02,1.000000000000000000e+00
2.875327025999999897e+00,-2.251854797929999652e+00,2.680976136410000432e-01,-9.516460016210000816e+00,-2.878514816979999696e-03,1.088785473260000082e-03,-4.907442256810000056e-03,1.000000000000000000e+00
2.880345295000000139e+00,-2.290375374979999989e+00,2.741637087469999678e-01,-9.502227492719999447e+00,-4.752648063000000124e-03,5.637017078699999018e-03,-2.759291091930000158e-03,1.000000000000000000e+00
2.885176861999999787e+00,-2.296926842450000006e+00,3.155590009859999823e-01,-9.529944351689998427e+00,6.867269519720001041e-03,1.501109637320000023e-02,2.422834979369999607e-03,1.000000000000000000e+00
2.890334189999999914e+00,-2.308633062329999763e+00,2.572385303709999738e-01,-9.538725624030000461e+00,-8.663383312520001392e-03,-3.095974680040000258e-04,7.588830776509999931e-03,1.000000000000000000e+00
2.895357425999999901e+00,-2.315475037180000140e+00,2.621003642540000178e-01,-9.530168808089998222e+00,-9.141139686110001661e-03,6.921442691240000007e-04,1.202563475820000137e-02,1.000000000000000000e+00
2.900343272000000194e+00,-2.324809121109999932e+00,3.133809262939999951e-01,-9.525057164169998813e+00,-5.937776062640000470e-03,6.827799603340000203e-03,8.839723654089999896e-03,1.000000000000000000e+00
2.905360356000000088e+00,-2.280981962080000258e+00,3.324831016490000235e-01,-9.507940609669999432e+00,3.218738827849999557e-03,3.368079662320000445e-03,-5.530227906999999818e-03,1.000000000000000000e+00
2.910306083000000044e+00,-2.320372599970000227e+00,3.287545095800000206e-01,-9.531418515889999554e+00,-8.432759903370000074e-03,-9.051623754200001024e-03,-5.980593152340000183e-03,1.000000000000000000e+00
2.915326943999999809e+00,-2.335742310790000165e+00,2.491010358190000051e-01,-9.541687980969999927e+00,-1.556662004440000080e-02,1.128272991629999771e-02,-1.756518147890000214e-02,1.000000000000000000e+00
2.920339824000000029e+00,-2.365895164729999944e+00,2.456612340960000196e-01,-9.518398875319999064e+00,6.103496067229999267e-03,2.552045509219999682e-03,-3.401549998670000234e-03,1.000000000000000000e+00
2.925371741000000192e+00,-2.338470712849999966e+00,2.230677277600000008e-01,-9.509276826709999852e+00,-3.758922684940000161e-03,8.269406389450000656e-04,6.977230310439999292e-03,1.000000000000000000e+00
2.930310550999999819e+00,-2.307687890440000444e+00,2.657177875660000077e-01,-9.530935116289999343e+00,-3.510070033369999589e-03,-9.317146614189999098e-04,-4.590859171000000270e-04,1.000000000000000000e+00
