t,ax,ay,az,wx,wy,wz,zv
5.025805999999999850e-03,-2.702750015189999910e+00,5.467076342729999539e-01,-9.417052132000000242e+00,1.555133890360000000e-02,-4.621983505789999808e-03,-2.114816103130000031e-03,1.000000000000000000e+00
1.004125800000000082e-02,-2.722196181679999771e+00,5.618286675699999400e-01,-9.449844394530000358e+00,1.125513296570000016e-02,3.050012746830000135e-03,9.915113449099999948e-03,1.000000000000000000e+00
1.502608899999999942e-02,-2.669374692079999889e+00,5.657633036050000452e-01,-9.402508058340000474e+00,6.415539421140000961e-03,6.847240030770000360e-03,1.212839502839999951e-03,1.000000000000000000e+00
2.011668200000000031e-02,-2.710915201470000202e+00,5.416804172279999774e-01,-9.439128354730000225e+00,-1.138969510789999973e-02,-4.271289333700000086e-03,1.039116829629999940e-02,1.000000000000000000e+00
2.519323299999999891e-02,-2.684654971060000062e+00,5.070276580520000076e-01,-9.455703057430000058e+00,-2.055716002360000183e-03,-2.114810049529999847e-03,8.311830461029999853e-03,1.000000000000000000e+00
3.026025200000000137e-02,-2.691383987050000037e+00,5.025616185540000558e-01,-9.424479067130000942e+00,1.384399086239999910e-02,-3.244168357920000027e-03,6.620229687540000671e-03,1.000000000000000000e+00
3.522612900000000186e-02,-2.648096341729999637e+00,5.108671996829999840e-01,-9.416890219439999044e+00,1.890583336350000129e-02,-4.467956721779999842e-03,-4.862477537239999481e-03,1.000000000000000000e+00
4.021821899999999950e-02,-2.691593538149999798e+00,5.565022483829999977e-01,-9.377107075099999633e+00,2.258468884969999917e-04,-2.509403275330000013e-03,-7.156864739950000338e-03,1.000000000000000000e+00
4.517431999999999698e-02,-2.709637728880000207e+00,5.359607974719999834e-01,-9.412840651779999845e+00,1.146489102389999966e-02,-8.942478336389999422e-03,1.359162852170000060e-03,1.000000000000000000e+00
5.022282200000000030e-02,-2.679845524950000168e+00,5.371764568719999966e-01,-9.409306632439999873e+00,-3.588811960069999973e-03,-4.869651049380000103e-03,-4.689351655540000344e-03,1.000000000000000000e+00
5.524319700000000083e-02,-2.663084652020000220e+00,5.261906602160000279e-01,-9.440342406689998356e+00,-2.284544752909999869e-03,-4.009965341540000375e-04,-1.758656278249999885e-02,1.000000000000000000e+00
6.020215599999999972e-02,-2.719893165440000260e+00,5.027690872919999832e-01,-9.399500108699999856e+00,7.914775051180000104e-03,-6.154145114119999663e-03,-3.485871013249999817e-03,1.000000000000000000e+00
6.508572599999999653e-02,-2.682031929079999877e+00,5.325751005569999696e-01,-9.385797162039999364e+00,1.394142676139999842e-02,8.992728777229999290e-03,-1.712186494840000012e-03,1.000000000000000000e+00
7.021675600000000517e-02,-2.672764626779999819e+00,5.361028728239999319e-01,-9.385016240789999742e+00,8.959523402149999552e-03,-3.047197591510000022e-03,2.075475640590000118e-03,1.000000000000000000e+00
7.523379900000000398e-02,-2.687757613250000066e+00,5.254943485149999871e-01,-9.389781263239997955e+00,1.039363816379999979e-02,4.713823087509999912e-03,-6.107282824810001017e-03,1.000000000000000000e+00
8.024886300000000361e-02,-2.723763869389999925e+00,5.179664372290000429e-01,-9.430596673230001059e+00,-2.016225364059999990e-03,4.411445930600000655e-03,9.439013898370001224e-03,1.000000000000000000e+00
8.525310099999999780e-02,-2.676314428209999985e+00,5.193036041159999616e-01,-9.414994030419999049e+00,6.812025094399999517e-04,-3.448799019680000039e-03,-1.005139667540000002e-03,1.000000000000000000e+00
9.009213600000000322e-02,-2.738826706229999797e+00,5.110334961600000447e-01,-9.418968194750000578e+00,4.635977093130000566e-03,1.116754719990000096e-03,7.539205718790000822e-03,1.000000000000000000e+00
9.525423600000000601e-02,-2.690583484319999830e+00,4.739173425460000422e-01,-9.429484328070000032e+00,1.656682812609999939e-03,4.828230477869999843e-03,1.312868297100000005e-02,1.000000000000000000e+00
1.000695890000000005e-01,-2.681900119390000281e+00,5.037921832620000373e-01,-9.419715798250001271e+00,1.206326391549999988e-02,2.383542479949999661e-03,6.619062740360000079e-03,1.000000000000000000e+00
1.052070340000000048e-01,-2.680952609409999798e+00,5.203691144559999815e-01,-9.429317154810000545e+00,3.209934104229999856e-03,3.599650925029999893e-03,-1.471441821200000126e-03,1.000000000000000000e+00
1.102401850000000044e-01,-2.709948110010000022e+00,5.122858708420000573e-01,-9.406240230610000808e+00,6.202181335539999618e-03,3.914237022399999922e-04,-9.131302358580000757e-04,1.000000000000000000e+00
1.152401869999999939e-01,-2.701525441840000319e+00,5.216570353749999667e-01,-9.417432071229999480e+00,1.959824468939999880e-03,3.179078921679999903e-04,2.122882287950000196e-03,1.000000000000000000e+00
1.200929570000000002e-01,-2.729687121959999629e+00,5.430083048309999327e-01,-9.423596439080000664e+00,-1.530326902870000026e-02,-6.081009283659999202e-03,2.029697969559999746e-02,1.000000000000000000e+00
1.252771079999999981e-01,-2.673684664229999619e+00,5.370240062569999751e-01,-9.429409509270000100e+00,-6.664559710770000603e-03,1.039920467879999928e-02,8.028440177439999728e-03,1.000000000000000000e+00
1.301021490000000003e-01,-2.667410114009999944e+00,5.335901958829999403e-01,-9.404961881230001097e+00,-1.414973055939999953e-03,1.166484877470000230e-02,3.548020962629999837e-03,1.000000000000000000e+00
1.350056779999999901e-01,-2.680422448049999851e+00,5.192898678520000422e-01,-9.415098659839999939e+00,1.671493239700000064e-02,-9.120924398299999625e-03,-2.972190734000000091e-03,1.000000000000000000e+00
1.400417200000000084e-01,-2.666485400380000037e+00,5.335867252849999520e-01,-9.399416522060001000e+00,1.592116081160000135e-03,8.460541721429999966e-04,-5.970052443439999561e-04,1.000000000000000000e+00
1.450832689999999869e-01,-2.701105170599999994e+00,5.157735668270000406e-01,-9.409107310469998708e+00,7.487787399439999395e-03,-1.517150923609999862e-02,3.408296499400000415e-03,1.000000000000000000e+00
1.500680919999999863e-01,-2.696093187649999834e+00,5.109234599149999889e-01,-9.424263963069998695e+00,-4.073762800539999611e-03,1.040088245650000118e-03,-6.938092410560001231e-04,1.000000000000000000e+00
1.550766349999999905e-01,-2.714664032609999555e+00,4.956470168600000670e-01,-9.403796929109999425e+00,-8.887038566169999654e-03,-1.797016244379999982e-03,3.355663735420000120e-03,1.000000000000000000e+00
1.600471290000000102e-01,-2.691277604070000162e+00,5.492002548059999878e-01,-9.397260220810000675e+00,-1.095153624190000220e-03,-7.772680371999999942e-03,-4.083905369040000577e-04,1.000000000000000000e+00
1.650774210000000020e-01,-2.719721900519999735e+00,5.203542456809999717e-01,-9.435001630189999489e+00,6.095985416320000121e-03,2.295604208479999891e-03,6.379682105029999689e-03,1.000000000000000000e+00
1.702088439999999980e-01,-2.717232421790000352e+00,5.214530372350000276e-01,-9.456871516689998813e+00,2.434798981989999903e-03,-5.004844162609999730e-03,-2.155126538130000026e-03,1.000000000000000000e+00
1.752337439999999968e-01,-2.726556422720000317e+00,5.277594439030000029e-01,-9.411834689610000027e+00,-5.431536585089999716e-03,4.680913873020000129e-03,-1.549923326820000025e-03,1.000000000000000000e+00
1.802446560000000031e-01,-2.761095528920000319e+00,5.351922607850000402e-01,-9.384000926269999709e+00,-1.662992313499999861e-02,5.128849297760000245e-03,8.835345506670000751e-03,1.000000000000000000e+00
1.852534299999999967e-01,-2.679015211599999891e+00,5.549919899499999865e-01,-9.410741049160000316e+00,9.030644781889999792e-03,7.380966097119999632e-03,4.339400213210000204e-03,1.000000000000000000e+00
1.900731049999999922e-01,-2.704857801129999739e+00,5.672014466489999629e-01,-9.381680958889999644e+00,-2.009218093009999991e-03,1.724905567239999864e-03,4.009308759119999989e-03,1.000000000000000000e+00
1.952497770000000132e-01,-2.677351370040000234e+00,4.990475825509999575e-01,-9.420698379550000112e+00,-1.068464573470000178e-02,-1.060214638710000115e-02,-7.910409942270000064e-03,1.000000000000000000e+00
2.001794189999999973e-01,-2.759783861799999904e+00,5.420564474660000132e-01,-9.409523490059999773e+00,2.583993133159999660e-03,-6.119023077189999528e-03,9.147429838780000641e-03,1.000000000000000000e+00
2.052666190000000113e-01,-2.701853943140000158e+00,5.123867374000000696e-01,-9.396558210020000246e+00,-1.873029768470000148e-02,-5.309455096720000315e-03,3.153661265969999808e-03,1.000000000000000000e+00
2.102149030000000085e-01,-2.717924495709999722e+00,5.077247004060000402e-01,-9.392454281839999197e+00,-1.069265045229999753e-02,2.047112444420000170e-03,-3.220105543729999843e-03,1.000000000000000000e+00
2.152350010000000091e-01,-2.701076821290000041e+00,5.135141339950000106e-01,-9.394810489570000200e+00,-1.192209403959999976e-02,-4.871148616080000007e-03,1.382365822789999961e-03,1.000000000000000000e+00
2.201939330000000083e-01,-2.721517551769999876e+00,4.871189520870000123e-01,-9.428677687860000489e+00,-1.832285895940000131e-02,3.619756316770000436e-03,6.990713533009999814e-03,1.000000000000000000e+00
2.252509990000000073e-01,-2.685903509810000145e+00,5.554528489269999758e-01,-9.360433003680000752e+00,-1.888765580950000147e-02,1.338503090660000125e-03,2.420136705040000155e-03,1.000000000000000000e+00
2.302436160000000120e-01,-2.715579978409999651e+00,5.526718764389999539e-01,-9.415848601429999576e+00,-8.169713430110000021e-03,6.740658543999999627e-03,1.898596063260000110e-03,1.000000000000000000e+00
2.351468969999999936e-01,-2.702971841250000118e+00,5.611804693270000532e-01,-9.392230994470001093e+00,1.418711733999999903e-03,7.661135867239999772e-03,-1.897241687400000234e-03,1.000000000000000000e+00
2.400898029999999905e-01,-2.744513811950000104e+00,5.611839033929999498e-01,-9.393318789710001226e+00,-9.655423462389999337e-03,7.292798254639999917e-04,1.365633681420000065e-02,1.000000000000000000e+00
2.451084159999999956e-01,-2.697203486980000342e+00,5.575403227260000705e-01,-9.405010981069999332e+00,-1.058396697040000015e-02,-7.182913832370000154e-03,1.380800269540000081e-03,1.000000000000000000e+00
2.500584180000000045e-01,-2.730070276060000189e+00,5.253671054070000457e-01,-9.411920614330000490e+00,-1.674780040050000054e-03,-4.919979255649999540e-04,5.588113795970000436e-03,1.000000000000000000e+00
2.552288220000000218e-01,-2.698343889190000233e+00,5.572788953109999444e-01,-9.424829195739999221e+00,-1.178431604060000033e-02,-4.481810610739999506e-03,6.674906704569999114e-03,1.000000000000000000e+00
2.601404729999999832e-01,-2.694097337659999702e+00,6.016019480969999611e-01,-9.393768871569999845e+00,1.663926243779999953e-02,1.582454424350000137e-04,-7.056384347380000163e-04,1.000000000000000000e+00
2.650651019999999969e-01,-2.686289294259999849e+00,5.777103465080000166e-01,-9.398846613219999924e+00,3.138510044660000262e-03,-8.122441358860000085e-03,-3.730567870659999997e-03,1.000000000000000000e+00
2.702254179999999950e-01,-2.735676133240000141e+00,4.893623470999999836e-01,-9.445325455800000825e+00,4.619858227670000164e-03,-1.717578992250000033e-02,7.872622460130001068e-03,1.000000000000000000e+00
2.750964590000000154e-01,-2.733927243750000180e+00,5.578819392380000020e-01,-9.368982220830000429e+00,-1.183670293539999981e-02,-2.294163452460000127e-03,1.010467112060000131e-02,1.000000000000000000e+00
2.802322910000000222e-01,-2.704547127739999723e+00,5.637642022100000094e-01,-9.369516473839999193e+00,-7.784447632729999365e-03,-1.081817690280000022e-02,5.945735145359999814e-03,1.000000000000000000e+00
2.852284829999999771e-01,-2.718857392649999927e+00,5.205594493959999625e-01,-9.416725968779999789e+00,-5.227816291150000116e-05,-1.389172673229999849e-02,5.610406864429999876e-03,1.000000000000000000e+00
2.900844929999999988e-01,-2.690095700799999712e+00,5.573007052839999975e-01,-9.421319726320000143e+00,-8.657865691930000053e-05,-1.448782510119999865e-03,3.716738894580000167e-03,1.000000000000000000e+00
2.952627489999999910e-01,-2.707271292009999719e+00,5.386305646710000117e-01,-9.377214627129999869e+00,8.657561615110000511e-03,-8.912699297069998430e-03,1.354001462460000145e-02,1.000000000000000000e+00
3.000618809999999748e-01,-2.704135039810000141e+00,5.086250467790000007e-01,-9.408034128280000630e+00,1.379662193360000136e-02,-8.821153081950000585e-03,2.208546921610000241e-02,1.000000000000000000e+00
3.052897849999999802e-01,-2.663800399079999881e+00,5.167702131810000266e-01,-9.428411145880000177e+00,4.852767102419999583e-03,-1.051296014340000022e-02,1.071256399149999976e-02,1.000000000000000000e+00
3.102350480000000132e-01,-2.692462722200000158e+00,5.562970811990000097e-01,-9.408754843769999709e+00,-7.657944690439999307e-03,-1.368108089080000145e-03,-9.459116263320000622e-04,1.000000000000000000e+00
3.151181739999999731e-01,-2.728938349420000353e+00,5.967885564660000419e-01,-9.404189143289999109e+00,-8.263018913569999610e-03,-4.287718795239999978e-03,4.503035917880000155e-03,1.000000000000000000e+00
3.200738519999999920e-01,-2.605969264610000113e+00,5.443534358289999764e-01,-9.377846495289999140e+00,2.183504868300000217e-03,-6.162349134679999917e-03,-6.166199222209999345e-03,1.000000000000000000e+00
3.252566949999999846e-01,-2.712593071559999736e+00,5.561904424870000030e-01,-9.410679674360000746e+00,4.428525920960000098e-03,1.916499575599999849e-03,5.247030872850000360e-03,1.000000000000000000e+00
3.302450210000000275e-01,-2.736018078550000343e+00,5.091237900810000605e-01,-9.369696506580000417e+00,2.944399602709999852e-03,-1.782375201579999846e-02,6.313282530750000295e-03,1.000000000000000000e+00
3.352401389999999926e-01,-2.655137784669999945e+00,5.050685598740000115e-01,-9.401233800620000025e+00,-2.056171651929999868e-03,2.845794195310000392e-03,-3.434930462390000088e-03,1.000000000000000000e+00
3.402572730000000267e-01,-2.690748611760000131e+00,5.229265803870000173e-01,-9.410145421350000206e+00,-2.124756574629999700e-02,1.022246293720000150e-02,-8.313639089470000257e-03,1.000000000000000000e+00
3.450844900000000215e-01,-2.642923030740000012e+00,4.776284720229999614e-01,-9.391649395189999083e+00,-1.764759980140000184e-02,-1.108992379160000062e-02,-7.093083113430000662e-04,1.000000000000000000e+00
3.502227500000000271e-01,-2.771871774480000106e+00,5.719827261090000281e-01,-9.400479182859999838e+00,-6.263443734499999499e-03,9.504647459830000214e-04,6.623284425589999989e-03,1.000000000000000000e+00
3.552486189999999877e-01,-2.674249896900000145e+00,4.908977034409999773e-01,-9.402585799749999751e+00,-1.012607850129999994e-02,-5.075632128859999988e-03,-9.645754471419999698e-03,1.000000000000000000e+00
3.602595470000000133e-01,-2.708348565849999723e+00,5.455462258109999851e-01,-9.399002680569999768e+00,1.039052847770000065e-02,8.578356355429999974e-04,5.346479360009999578e-03,1.000000000000000000e+00
3.650981500000000102e-01,-2.744411812879999690e+00,5.577821321249999409e-01,-9.393142848620000152e+00,-2.559070102870000113e-02,-8.647564798590001364e-03,-2.647832734510000268e-03,1.000000000000000000e+00
3.702669089999999774e-01,-2.742137145950000132e+00,5.268566133120000661e-01,-9.382903194160000737e+00,-9.539735503490000268e-03,5.612499080600000592e-03,7.680605631320000038e-04,1.000000000000000000e+00
3.752110309999999727e-01,-2.709118088920000389e+00,5.334501663579999109e-01,-9.428313530730001446e+00,-1.619223132730000098e-02,3.369466168810000047e-03,8.690785616639998962e-03,1.000000000000000000e+00
3.802555519999999967e-01,-2.661412042629999863e+00,5.148110419379999803e-01,-9.385085798900000498e+00,-6.566179916260000277e-03,-6.551359780130000185e-03,-1.024212967599999989e-02,1.000000000000000000e+00
3.852831560000000155e-01,-2.855811163659999874e+00,5.884646359630000267e-01,-9.440889519180000633e+00,-3.832599613819999938e-03,-2.820061752570000250e-03,1.434513367710000056e-02,1.000000000000000000e+00
3.902373519999999818e-01,-2.676661049690000294e+00,5.899333933410000341e-01,-9.362997301210000956e+00,-1.349893305450000115e-02,-8.857923559840000932e-03,3.836665302520000324e-03,1.000000000000000000e+00
3.951102819999999793e-01,-2.684247559300000141e+00,5.323216372519999906e-01,-9.426727138320000421e+00,-9.631152264769999791e-03,-7.914111018180000623e-03,-7.638548035170000805e-03,1.000000000000000000e+00
4.000927060000000202e-01,-2.760111486320000473e+00,5.756985317620000320e-01,-9.375980701419999619e+00,-1.007611770179999908e-02,7.557482458649999839e-03,2.913374919440000089e-03,1.000000000000000000e+00
4.052875599999999912e-01,-2.660390882890000253e+00,5.218494526739999584e-01,-9.391452995839999929e+00,-8.943426422770000411e-03,2.395451301710000130e-03,-1.039111986759999953e-02,1.000000000000000000e+00
4.101955119999999844e-01,-2.711348624449999800e+00,5.475292528540000037e-01,-9.443259170919999335e+00,-2.055994048709999800e-02,-1.686482317749999835e-02,7.916793227200000227e-03,1.000000000000000000e+00
4.152311539999999912e-01,-2.731654330380000051e+00,5.241639036290000053e-01,-9.414247011449999647e+00,-2.191283740100000155e-02,5.027991719540000383e-03,1.202245987949999984e-02,1.000000000000000000e+00
4.202267789999999947e-01,-2.709882643550000303e+00,4.898081546390000152e-01,-9.394018462410000936e+00,-1.689081639049999986e-02,5.913002416490000142e-03,1.026396080850000038e-02,1.000000000000000000e+00
4.252516639999999737e-01,-2.740012408880000194e+00,6.788609462029999708e-01,-9.405856199720000532e+00,-1.800352521239999976e-02,-2.021208172660000045e-03,1.930756494399999898e-02,1.000000000000000000e+00
4.300826700000000002e-01,-2.711311215049999834e+00,5.779085724939999613e-01,-9.393995666060000360e+00,-2.668462879959999923e-02,-9.143344126640000000e-03,6.802411284300000603e-03,1.000000000000000000e+00
4.352169579999999871e-01,-2.738638197919999850e+00,4.802260142360000317e-01,-9.406717200470000151e+00,-3.719978500159999875e-03,-1.474261935800000138e-02,1.350933872159999945e-02,1.000000000000000000e+00
4.401985760000000081e-01,-2.718113296280000313e+00,5.824594041989999971e-01,-9.413431018889999891e+00,-2.913848496970000354e-02,-1.125093363229999997e-02,9.973559528590001527e-03,1.000000000000000000e+00
4.451037170000000098e-01,-2.740587578420000003e+00,5.494593076010000354e-01,-9.390832818110000701e+00,-1.694878749550000202e-02,4.319812171159999499e-03,2.403114456679999837e-03,1.000000000000000000e+00
4.500344809999999862e-01,-2.678723827440000260e+00,5.834514839759999960e-01,-9.410483859520001104e+00,-1.538618560880000014e-02,1.279749721289999941e-02,1.051746308800000085e-02,1.000000000000000000e+00
4.550216990000000017e-01,-2.743833136210000134e+00,5.944144842780000326e-01,-9.419737425560001043e+00,-1.232419162989999845e-02,-1.764077134429999777e-02,3.713357727969999415e-03,1.000000000000000000e+00
4.600291140000000167e-01,-2.681060161430000033e+00,4.932406863710000477e-01,-9.392845911500000256e+00,-2.211442450059999780e-03,-4.634991753850000416e-03,8.030733093619998875e-03,1.000000000000000000e+00
4.650558679999999834e-01,-2.768207114490000009e+00,5.613385824979999494e-01,-9.395486196880000307e+00,-2.599368616939999946e-02,-2.080747485159999827e-02,1.097842119629999919e-02,1.000000000000000000e+00
4.702521250000000208e-01,-2.684323839409999746e+00,5.525398840899999886e-01,-9.426882036619998573e+00,-1.777684874829999970e-02,-3.356157802050000003e-03,-2.920827828349999351e-04,1.000000000000000000e+00
4.752277679999999949e-01,-2.748548766559999468e+00,5.262249643449999903e-01,-9.448996253269999812e+00,-1.395008247350000043e-02,2.593633253129999845e-04,1.483618654310000194e-02,1.000000000000000000e+00
4.802614080000000008e-01,-2.695683437809999639e+00,5.491245226890000275e-01,-9.415665646080000784e+00,-1.490565668790000062e-02,-7.755092345180000790e-03,1.415320206429999906e-03,1.000000000000000000e+00
4.851074679999999861e-01,-2.697225406549999871e+00,5.533943820279999537e-01,-9.451724801450000157e+00,-4.302342887970000279e-03,-7.267535664140000254e-03,1.377756148579999985e-02,1.000000000000000000e+00
4.900628220000000090e-01,-2.693679696769999854e+00,5.574495757030000220e-01,-9.402358420739998834e+00,-1.721515506509999766e-02,-1.400107238439999950e-02,1.589607447389999872e-02,1.000000000000000000e+00
4.952279900000000068e-01,-2.694635682319999948e+00,5.892043484139999343e-01,-9.457690431860001468e+00,-1.967425458129999985e-02,-1.017181016499999965e-02,1.601846423000000130e-03,1.000000000000000000e+00
5.000638969999999794e-01,-2.730749782749999799e+00,5.076156505409999964e-01,-9.394399570689998313e+00,1.234566210770000070e-03,-1.468735001980000024e-02,1.490046828989999989e-02,1.000000000000000000e+00
5.050840739999999940e-01,-2.754223597319999772e+00,5.958651580100000622e-01,-9.399929147759999992e+00,-2.475139312450000059e-02,-1.887438120319999803e-03,6.208361592139999925e-04,1.000000000000000000e+00
5.102420490000000308e-01,-2.684300458529999656e+00,5.705089637619999987e-01,-9.398176166609999882e+00,-5.815186537800000680e-03,2.783857984469999703e-03,6.608440075069999843e-03,1.000000000000000000e+00
5.152189839999999910e-01,-2.720462489760000047e+00,5.604730151769999891e-01,-9.476730647889999304e+00,-2.542034490029999741e-04,1.002241764220000199e-02,8.269554004069999686e-03,1.000000000000000000e+00
5.202456869999999567e-01,-2.788959395140000019e+00,5.829030563129999898e-01,-9.371054935460000124e+00,-1.804432459179999837e-02,-2.066906355320000110e-02,2.994411624970000352e-02,1.000000000000000000e+00
5.250839910000000277e-01,-2.634084767510000091e+00,5.835328786490000530e-01,-9.406521385630000509e+00,-1.770138740540000075e-02,-1.129645481709999968e-02,8.595360442999999337e-03,1.000000000000000000e+00
5.301179419999999531e-01,-2.704279708980000141e+00,5.693483590169999831e-01,-9.405748647699999410e+00,-2.424593782050000340e-03,-6.042232736949999967e-03,1.132905483250000109e-02,1.000000000000000000e+00
5.351299680000000114e-01,-2.675048646059999591e+00,5.741491103629999815e-01,-9.389853743949998943e+00,-2.310825698080000087e-02,-1.197029277679999802e-02,1.264335215090000089e-02,1.000000000000000000e+00
5.400722510000000032e-01,-2.670832489669999976e+00,5.837747976460000432e-01,-9.383509343360000088e+00,-3.211573883890000286e-02,-3.390564350409999619e-03,3.963362891230000178e-03,1.000000000000000000e+00
5.450665900000000175e-01,-2.716314722429999495e+00,5.731157852599999547e-01,-9.388657812159999949e+00,-1.494602765889999942e-02,-9.482514113189999955e-03,5.567842628810000527e-03,1.000000000000000000e+00
5.502308529999999642e-01,-2.664470553420000165e+00,5.494785968230000428e-01,-9.344998118660001296e+00,-5.962394177909999433e-03,-1.182879321280000048e-02,1.293941028420000049e-02,1.000000000000000000e+00
5.551083980000000029e-01,-2.771187883870000146e+00,5.694688435920000069e-01,-9.421547689849999685e+00,-1.430806424470000039e-02,-1.478775218129999881e-02,1.316457055510000113e-02,1.000000000000000000e+00
5.601273930000000290e-01,-2.716348624700000158e+00,5.921137330550000355e-01,-9.396839949580000351e+00,-3.407046943899999514e-02,-1.291994005439999968e-02,9.442547336220000545e-03,1.000000000000000000e+00
5.650893879999999703e-01,-2.700937412809999660e+00,5.713555706540000001e-01,-9.444251104570000166e+00,-4.839703440670000377e-03,-6.041566841300000969e-03,1.592555269599999976e-02,1.000000000000000000e+00
5.702452550000000064e-01,-2.697979732049999857e+00,5.893762709150000001e-01,-9.431866839289998694e+00,-2.611839398740000220e-02,6.689667701720000519e-03,1.069356128570000258e-02,1.000000000000000000e+00
5.752248140000000287e-01,-2.683004573499999879e+00,5.594922239790000029e-01,-9.437246778769999622e+00,2.907547168430000000e-04,3.834206378090000440e-03,1.221539266409999921e-02,1.000000000000000000e+00
5.802656090000000155e-01,-2.688058934279999868e+00,6.143987762300000544e-01,-9.421672193010001806e+00,-1.801025494929999957e-02,-1.228849589820000046e-02,8.247885853050000368e-03,0.000000000000000000e+00
5.852653319999999715e-01,-2.656372002640000396e+00,6.428904189600000985e-01,-9.414482573769999973e+00,-9.580931626259999584e-03,7.768291980029999946e-03,4.838837776329999764e-03,0.000000000000000000e+00
5.902132049999999630e-01,-2.749674263450000211e+00,6.083410105609999841e-01,-9.450330132219999513e+00,-4.459974821659999818e-03,8.033111691470000079e-03,1.267436146739999922e-02,0.000000000000000000e+00
5.952622159999999552e-01,-2.761475468150000001e+00,6.228615572140000500e-01,-9.425146591129999862e+00,-1.942047849299999990e-02,-7.443424314259999668e-03,2.241351082919999793e-02,1.000000000000000000e+00
6.000874040000000464e-01,-2.699036547630000005e+00,6.481212322849999596e-01,-9.387516825429999656e+00,1.468453905549999992e-03,-1.425576861950000017e-02,6.676602642979999336e-03,1.000000000000000000e+00
6.052968370000000320e-01,-2.722640126059999943e+00,6.193108059299999857e-01,-9.421645305010001081e+00,-7.675392087549999867e-03,-1.949388533829999768e-03,-1.582483993839999860e-03,0.000000000000000000e+00
6.101925750000000148e-01,-2.760417191270000181e+00,6.517556432650000175e-01,-9.384809904560000859e+00,6.575756240640001291e-03,-7.429732009770000437e-03,7.908705621959999377e-03,0.000000000000000000e+00
6.152493209999999602e-01,-2.725683147009999807e+00,6.431760309680000232e-01,-9.411196976230000288e+00,-1.888208650050000187e-02,-9.801029227670000205e-03,3.243556711820000382e-03,0.000000000000000000e+00
6.202620989999999557e-01,-2.724183263850000092e+00,6.096266299250000520e-01,-9.436234971370000224e+00,5.068211816250000300e-03,-8.789652027190000480e-03,1.771613024180000023e-03,1.000000000000000000e+00
6.252782180000000523e-01,-2.745987976159999899e+00,5.680915273569999702e-01,-9.431883205910001067e+00,-6.816193927080000346e-03,-9.030389599499999767e-03,3.151045180860000041e-03,1.000000000000000000e+00
6.302503499999999592e-01,-2.739837929100000125e+00,6.109959820489999638e-01,-9.415931019009999403e+00,6.139753386379999574e-03,-2.143098041420000294e-02,9.092323482040001043e-03,1.000000000000000000e+00
6.352667159999999535e-01,-2.748831675149999931e+00,5.838012472620000004e-01,-9.402251453230000777e+00,-5.364138633009999518e-03,-1.587267778810000016e-02,1.331474818289999848e-02,1.000000000000000000e+00
6.402129469999999767e-01,-2.695088394529999931e+00,6.028954585060000149e-01,-9.387413949580000860e+00,5.168450996280000119e-03,-1.799845136700000065e-03,-5.377824418250000838e-04,1.000000000000000000e+00
6.451849400000000401e-01,-2.763402636819999980e+00,5.918363408860000119e-01,-9.432380049510001641e+00,-5.285594146699999600e-03,4.634256474670000146e-03,1.540711522100000029e-02,1.000000000000000000e+00
6.502652289999999446e-01,-2.716245456579999829e+00,6.003850831199999405e-01,-9.405113856919999904e+00,-8.387562120330000620e-04,-5.404356867069999917e-03,9.246576577430000790e-03,0.000000000000000000e+00
6.552623899999999724e-01,-2.701374050670000138e+00,6.101654129760000211e-01,-9.371962697949999921e+00,-4.240984562780000279e-03,-4.000279586759999777e-03,-1.319491886529999911e-03,0.000000000000000000e+00
6.602477509999999938e-01,-2.792655034790000101e+00,6.375447470830000185e-01,-9.383123558910000384e+00,3.565904684360000042e-03,-1.214162912219999971e-04,1.778529398140000009e-02,0.000000000000000000e+00
6.651589829999999814e-01,-2.729426132940000471e+00,6.373899949129999687e-01,-9.396558210020000246e+00,9.192537516360000521e-03,1.377368532120000141e-02,1.012351550159999898e-02,1.000000000000000000e+00
6.702592040000000528e-01,-2.696488616709999953e+00,6.226643541409999649e-01,-9.440018581569999512e+00,6.421081256119999699e-03,-7.032160647209999976e-03,-3.536901669579999800e-03,1.000000000000000000e+00
6.752242790000000383e-01,-2.737900531290000217e+00,5.906791702070000039e-01,-9.432126367010001289e+00,8.786659687760000476e-03,5.950797349209999317e-03,-4.874936304989999254e-03,1.000000000000000000e+00
6.802669319999999908e-01,-2.705867562689999950e+00,6.085519133649999191e-01,-9.421981405089999484e+00,-1.142958924170000071e-02,6.588818505410000068e-03,-1.445337757470000102e-02,1.000000000000000000e+00
6.851598789999999717e-01,-2.782097692679999845e+00,6.109100207989999198e-01,-9.433300671489998734e+00,9.161203168330000687e-03,3.052672604099999822e-03,3.857389092450000043e-03,1.000000000000000000e+00
6.901102609999999471e-01,-2.737199689549999704e+00,6.227432645970000236e-01,-9.427160269039999818e+00,1.051465794439999935e-02,5.509932525460000535e-03,1.556973904370000106e-02,0.000000000000000000e+00
6.952526660000000192e-01,-2.683769420389999993e+00,6.539404399579999971e-01,-9.403017761430000121e+00,3.430296201259999873e-04,7.307653315369999972e-03,-8.821547031399999683e-03,0.000000000000000000e+00
7.002568689999999485e-01,-2.733414033529999898e+00,6.503861815429999860e-01,-9.389514136729999905e+00,2.550318837170000193e-03,1.595743931829999782e-02,6.731211673470000219e-03,1.000000000000000000e+00
7.050664030000000082e-01,-2.696364698070000010e+00,6.552087063279999901e-01,-9.383481870829999849e+00,2.429563179609999998e-02,-3.610419807959999814e-03,1.609753351659999956e-03,1.000000000000000000e+00
7.102518310000000001e-01,-2.678828456859999818e+00,5.992758067040000469e-01,-9.386666346089999280e+00,6.510909181089999387e-03,7.925530895589999805e-03,-1.230600662529999882e-02,0.000000000000000000e+00
7.152722860000000349e-01,-2.736147257879999906e+00,5.300552632230000061e-01,-9.416940488319999858e+00,9.757700376209998278e-03,-8.174629881980000415e-03,-1.271526562049999894e-03,0.000000000000000000e+00
7.200828129999999883e-01,-2.731551746790000124e+00,6.063428955459999603e-01,-9.405073524909999705e+00,3.289105743170000345e-02,1.668073050679999905e-02,-1.080841175280000069e-03,0.000000000000000000e+00
7.252782229999999997e-01,-2.708171163459999420e+00,6.371020448170000572e-01,-9.413234619540000736e+00,8.787846192719999880e-03,5.000572651619999281e-03,8.470909669999999265e-04,0.000000000000000000e+00
7.300937650000000056e-01,-2.702484934520000159e+00,5.704091566489999376e-01,-9.426793773810000943e+00,2.025655657049999989e-02,5.112247541550000475e-03,-4.961969796570000167e-03,0.000000000000000000e+00
7.352066409999999941e-01,-2.740600145640000207e+00,5.826312536339999237e-01,-9.403209484610000501e+00,1.151123456660000169e-02,3.594822948800000060e-03,-8.895441889760000512e-03,1.000000000000000000e+00
7.402206650000000554e-01,-2.726784678520000060e+00,5.621344090509999836e-01,-9.412973338249999600e+00,9.120373055340001006e-03,1.498727500439999902e-02,7.398954126979999553e-03,0.000000000000000000e+00
7.450914990000000460e-01,-2.707904329219999795e+00,6.039620282919999639e-01,-9.398386594499999802e+00,3.348954021929999390e-03,-3.559182630849999987e-03,4.058376885949999818e-03,0.000000000000000000e+00
7.501130689999999657e-01,-2.684154912579999941e+00,6.183540166619999612e-01,-9.387550727699998987e+00,1.700166240329999828e-02,-8.329607546329999626e-03,-1.491745188829999950e-02,0.000000000000000000e+00
7.550898560000000037e-01,-2.720522110990000186e+00,6.238832284120000571e-01,-9.435344160010000536e+00,8.831475861370001457e-03,1.087063364679999831e-02,-1.476116664709999950e-02,0.000000000000000000e+00
7.602527820000000158e-01,-2.748684083370000142e+00,6.194218650889999900e-01,-9.404085682919999911e+00,2.581761591140000270e-02,1.942566782239999942e-02,-3.895972389730000159e-03,0.000000000000000000e+00
7.652927360000000290e-01,-2.658120307609999955e+00,5.798777171429999600e-01,-9.418300670749999881e+00,2.148897387090000291e-02,1.250881608579999978e-02,-1.515110023320000165e-02,0.000000000000000000e+00
7.702300970000000024e-01,-2.741505862309999930e+00,5.442008390839999654e-01,-9.429152904160000404e+00,1.716303825379999690e-02,1.195385865870000029e-02,1.767545007170000194e-03,0.000000000000000000e+00
7.750940760000000207e-01,-2.713386560020000449e+00,5.614002860899999225e-01,-9.372730175190000068e+00,6.254031322899999881e-04,1.142480038110000110e-02,-3.971415106209999837e-03,0.000000000000000000e+00
7.802591439999999601e-01,-2.680167596510000028e+00,5.742429991909999698e-01,-9.393596437610000294e+00,3.242892213169999704e-03,1.736226864159999897e-02,-1.802815124390000356e-02,0.000000000000000000e+00
7.849758350000000107e-01,-2.724011706669999811e+00,5.694319091149999679e-01,-9.401770391710000396e+00,1.337032299489999965e-02,1.132216490810000059e-02,-1.222295686599999924e-02,1.000000000000000000e+00
7.900278450000000063e-01,-2.722177769240000433e+00,5.310565492200000071e-01,-9.431751688480000340e+00,2.171306498350000086e-02,-1.048183348029999885e-02,2.165671903640000102e-04,1.000000000000000000e+00
7.952389739999999874e-01,-2.685113236219999866e+00,5.334799039090000194e-01,-9.432544300160000006e+00,2.359285950659999534e-02,-6.129492074250000519e-03,-1.354234851899999842e-02,1.000000000000000000e+00
8.002541960000000287e-01,-2.722405148259999574e+00,5.025464209850000197e-01,-9.421251337250000191e+00,7.299466524269999923e-03,3.797451732679999435e-03,6.725487764919999348e-03,1.000000000000000000e+00
8.050904209999999450e-01,-2.679578106180000141e+00,5.243276793559999982e-01,-9.394057625380000331e+00,1.404455280859999737e-03,1.508294790979999855e-02,-1.414456032220000152e-02,1.000000000000000000e+00
8.100986860000000123e-01,-2.755591086280000379e+00,5.899412843869999978e-01,-9.370738124589999885e+00,1.427554618570000232e-02,1.633113436400000090e-02,4.925196059049999874e-03,1.000000000000000000e+00
8.152677120000000333e-01,-2.696371420070000191e+00,5.872841574739999793e-01,-9.402924822450000164e+00,-4.721271398010000149e-04,1.741342619060000027e-02,-6.267467048020000826e-03,1.000000000000000000e+00
8.202558970000000116e-01,-2.699985226659999960e+00,5.682804740579999736e-01,-9.391443643489999715e+00,2.806817181409999515e-03,-6.353468634189999914e-04,-5.389067344370000387e-03,1.000000000000000000e+00
8.252841969999999971e-01,-2.714964476860000087e+00,5.898518890699999684e-01,-9.382561248849999203e+00,8.833361789579999984e-03,5.773598328229999181e-03,-8.883288130160000434e-03,1.000000000000000000e+00
8.302695140000000418e-01,-2.734456528319999968e+00,5.477297803949999766e-01,-9.431704926729999272e+00,-1.175333978609999870e-03,1.479813829060000127e-02,6.906288210299999647e-03,1.000000000000000000e+00
8.351611629999999842e-01,-2.734060807000000093e+00,5.489535500359999931e-01,-9.433681779760000552e+00,2.615244593469999781e-03,1.275291666389999877e-02,1.518196053800000174e-02,1.000000000000000000e+00
8.402197310000000252e-01,-2.646516379059999924e+00,5.311184354750000391e-01,-9.415680259120000173e+00,1.251323521139999922e-02,2.298747003079999740e-02,5.459110252560000213e-05,1.000000000000000000e+00
8.450880290000000183e-01,-2.675490252349999931e+00,5.435594359080000437e-01,-9.364801720279999131e+00,-1.026576268490000162e-03,1.904058037329999691e-03,-1.538139209150000096e-02,1.000000000000000000e+00
8.501100839999999881e-01,-2.714902517540000115e+00,5.657573122560000112e-01,-9.408125313699999381e+00,-6.301568821069999764e-03,1.748159900309999987e-02,-6.940279621629999798e-03,1.000000000000000000e+00
8.552644700000000544e-01,-2.710964301309999769e+00,5.540511289030000119e-01,-9.389897583089998889e+00,6.845326628540000097e-03,3.218261990700000048e-04,-4.849278368060000281e-03,1.000000000000000000e+00
8.602379369999999525e-01,-2.702008841440000086e+00,5.195543640070000579e-01,-9.387456035159999601e+00,-1.170869916680000082e-03,5.534769967199999058e-03,-3.944225143640000056e-03,1.000000000000000000e+00
8.653030400000000233e-01,-2.692971840759999846e+00,5.311447754929999876e-01,-9.412136887429999987e+00,-3.760546911510000319e-03,7.679647766049999859e-03,5.224803928290000510e-03,1.000000000000000000e+00
8.701123219999999936e-01,-2.684805485440000083e+00,5.158626698820000245e-01,-9.397285939779999708e+00,-2.937392331659999852e-03,9.943107143039998323e-04,2.804491668940000283e-03,1.000000000000000000e+00
8.750846639999999566e-01,-2.693054842870000076e+00,5.096764920609999638e-01,-9.426921199580000632e+00,2.253139857199999707e-03,-1.468272879719999821e-03,2.057194709780000002e-03,1.000000000000000000e+00
8.802518689999999646e-01,-2.707164616769999643e+00,5.179569752800000648e-01,-9.430668569419999869e+00,-4.972719121719999975e-03,3.191163996229999869e-03,1.039767824109999982e-02,1.000000000000000000e+00
8.850498239999999850e-01,-2.652447522670000168e+00,5.597855809020000351e-01,-9.406043246730000362e+00,-6.556205335069999586e-04,4.770730622109999736e-03,-6.951177027079999925e-03,1.000000000000000000e+00
8.901002940000000141e-01,-2.718223186399999936e+00,5.455598890099999654e-01,-9.410041960980001008e+00,-7.534238975499999748e-03,1.071542594579999973e-02,-2.477439818900000010e-03,1.000000000000000000e+00
8.952510420000000524e-01,-2.658239842340000436e+00,5.372150718500000588e-01,-9.384496600830001256e+00,-5.697599146520000366e-03,-2.333149313930000070e-04,5.542971659450000518e-03,1.000000000000000000e+00
9.002212539999999708e-01,-2.677384103270000093e+00,5.539147161069999381e-01,-9.398736138589999456e+00,-1.109996344890000139e-02,-1.334624923769999957e-02,-9.591936832289999632e-04,1.000000000000000000e+00
9.053014929999999572e-01,-2.678191620259999794e+00,5.786883246949999782e-01,-9.413834338999999218e+00,-5.436432082210000682e-03,1.408567652110000179e-02,3.503811545669999975e-03,1.000000000000000000e+00
9.102536140000000442e-01,-2.726185835839999960e+00,5.631517694000000018e-01,-9.434349303760001249e+00,-7.762012071910000081e-03,3.680696012449999593e-03,1.763991266490000029e-02,1.000000000000000000e+00
9.151017790000000041e-01,-2.681846051109999518e+00,5.489432113050000117e-01,-9.425959661080000274e+00,1.279614516529999860e-03,4.115677438680000189e-04,1.028296723960000006e-02,1.000000000000000000e+00
9.202508390000000427e-01,-2.721763343220000131e+00,5.514421519809999950e-01,-9.419490172799999783e+00,-3.968553617600000319e-03,1.140182651579999852e-02,1.415843702850000038e-02,1.000000000000000000e+00
9.252869240000000106e-01,-2.708238968000000302e+00,5.360258620650000250e-01,-9.411231463020000021e+00,-8.153056842270000378e-04,1.941821537910000048e-02,1.468530111010000160e-02,1.000000000000000000e+00
9.302584019999999843e-01,-2.675014451530000059e+00,5.595712440319999814e-01,-9.437759988979999903e+00,1.320608542300000070e-03,5.654956214130000235e-03,2.551535144449999879e-04,1.000000000000000000e+00
9.351595200000000219e-01,-2.673682033880000031e+00,5.586501836639999885e-01,-9.402281263849999959e+00,-2.941422164440000205e-03,1.365173421799999870e-02,-9.320432320239999471e-03,1.000000000000000000e+00
9.402421420000000030e-01,-2.686684431060000211e+00,5.833688471940000619e-01,-9.431170673720000508e+00,8.718427270650000623e-04,-8.617658168080000484e-04,-1.088506728410000048e-02,1.000000000000000000e+00
9.450613979999999970e-01,-2.724269188560000110e+00,5.643090131429999712e-01,-9.430145422329999860e+00,-5.973402410750000037e-03,2.133428351950000107e-03,1.204912923280000020e-02,1.000000000000000000e+00
9.502685079999999562e-01,-2.664864813439999924e+00,5.584384040770000723e-01,-9.412346730790000393e+00,-1.162871625269999883e-02,-8.875582367179999863e-03,7.112337741999999463e-03,1.000000000000000000e+00
9.552710800000000502e-01,-2.714903686590000476e+00,5.991592676520000049e-01,-9.397122273649999968e+00,7.133683655410000615e-03,-1.116536371410000068e-02,6.692846771329999563e-03,1.000000000000000000e+00
9.602495970000000103e-01,-2.700981251959999607e+00,5.848076112929999626e-01,-9.405764429790000491e+00,8.595830760899999742e-03,-4.454876761880000036e-03,-3.458650317039999901e-04,1.000000000000000000e+00
9.652781950000000055e-01,-2.678510184689999907e+00,6.009774960560000379e-01,-9.448548509500000137e+00,-9.514065459370000741e-03,-1.271702907979999943e-02,-2.906955778600000141e-03,1.000000000000000000e+00
9.702626380000000106e-01,-2.714749665070000262e+00,5.826272350460000027e-01,-9.371922950460000123e+00,2.945011481640000001e-03,1.104203425349999969e-02,1.052725128829999808e-02,1.000000000000000000e+00
9.752098059999999569e-01,-2.723319048230000039e+00,5.862433797170000238e-01,-9.391641211889998786e+00,-7.266666274520000232e-03,-1.114994380620000156e-02,-2.781096380199999350e-03,1.000000000000000000e+00
9.800717359999999712e-01,-2.690539352920000127e+00,4.750923411420000519e-01,-9.416108129150000394e+00,-2.983178943400000005e-03,-3.812149865550000082e-03,1.261215284470000066e-02,1.000000000000000000e+00
9.850919080000000161e-01,-2.687625511299999825e+00,6.035958253279999353e-01,-9.435591997299999534e+00,1.210940536109999903e-02,1.203677337620000058e-02,-3.561641555280000305e-03,1.000000000000000000e+00
9.900959390000000360e-01,-2.682041281430000090e+00,5.977544788880000404e-01,-9.408020684280000268e+00,9.570840746159998969e-03,9.037099778649998472e-03,-3.681215224789999817e-03,1.000000000000000000e+00
9.952564799999999989e-01,-2.707129253190000195e+00,5.654827696299999928e-01,-9.426823584430000125e+00,4.662555642430000341e-03,8.808464743200000030e-03,8.088674396280000692e-03,1.000000000000000000e+00
1.000235675000000102e+00,-2.664455940369999887e+00,5.475022187169999999e-01,-9.444474976449999559e+00,-5.639630253430000587e-04,1.387376710770000035e-02,-3.901887685059999764e-03,1.000000000000000000e+00
1.005085833999999956e+00,-2.719370602870000209e+00,5.633368801760000322e-01,-9.412778107939999472e+00,-3.180164378139999862e-03,1.943548209969999871e-02,-1.748954644430000078e-03,1.000000000000000000e+00
1.010251433999999948e+00,-2.742229792670000332e+00,5.775076635429999827e-01,-9.422570018640000100e+00,-5.445493385199999536e-03,1.024638768289999960e-02,1.460163481529999988e-02,1.000000000000000000e+00
1.015227018000000037e+00,-2.714697058100000060e+00,5.511434978279999841e-01,-9.448401209989999217e+00,-1.170169096440000066e-03,8.684653788810000469e-03,1.300062425429999828e-02,1.000000000000000000e+00
1.020267916000000108e+00,-2.616832603930000278e+00,5.879820766100000151e-01,-9.424396649540000226e+00,1.610762253399999899e-02,1.365463016549999789e-03,-3.999232780190000412e-03,1.000000000000000000e+00
1.025298872000000028e+00,-2.721196356990000176e+00,5.201986897929999909e-01,-9.452795645549999293e+00,1.102881319820000171e-02,1.338977366690000115e-02,-4.987127147609999797e-03,1.000000000000000000e+00
1.030239968000000061e+00,-2.719788536019999814e+00,5.548351919530000176e-01,-9.425200367140000424e+00,1.207662187520000194e-02,1.590235391630000087e-03,7.050559390340000419e-03,1.000000000000000000e+00
1.035156890000000107e+00,-2.687953135819999950e+00,5.396402166370000142e-01,-9.396315048920000024e+00,1.011827029289999978e-02,4.864005371930000057e-03,3.324514254929999838e-04,1.000000000000000000e+00
1.040225769000000078e+00,-2.690652165639999982e+00,5.703018603499999672e-01,-9.419704107810000338e+00,7.985585369170000031e-03,1.613017544149999982e-02,3.752330318089999988e-03,1.000000000000000000e+00
1.045033652999999951e+00,-2.705264336099999944e+00,5.643198998639999964e-01,-9.436643552180001393e+00,9.334040805699999818e-05,7.879221811890000163e-03,-1.314134104180000135e-03,1.000000000000000000e+00
1.050268860999999943e+00,-2.700916077770000090e+00,5.667809927470000009e-01,-9.422662373099999655e+00,1.994691789149999946e-03,1.540938392280000006e-02,-3.066006815059999988e-03,1.000000000000000000e+00
1.055265804999999890e+00,-2.671209506289999869e+00,6.011217268320000473e-01,-9.421831767489999621e+00,-9.623306803409999860e-03,1.313198357819999988e-02,2.890313975509999859e-03,1.000000000000000000e+00
1.060102644999999955e+00,-2.652959563850000091e+00,5.739144613569999720e-01,-9.402676400639998988e+00,3.016822505739999959e-03,1.537337526679999865e-02,1.786384265869999863e-03,1.000000000000000000e+00
1.065103391999999927e+00,-2.640125216720000001e+00,5.822200790179999919e-01,-9.404002680810000570e+00,1.297757122670000103e-02,1.163014955819999946e-02,-4.574606195090000736e-03,1.000000000000000000e+00
1.070257008000000010e+00,-2.695695128249999684e+00,5.309814746900000104e-01,-9.424418276849999998e+00,8.309674449270000943e-03,3.980824723840000086e-03,5.354485940189999613e-03,1.000000000000000000e+00
1.075109467999999957e+00,-2.699641235519999682e+00,5.978140635890000221e-01,-9.398652551950000600e+00,2.812010701749999893e-03,2.889906289060000140e-03,1.727322861549999977e-02,1.000000000000000000e+00
1.080245171000000060e+00,-2.656933435920000086e+00,5.847627127050000206e-01,-9.399430550589999100e+00,-7.071619620549998882e-04,1.511617563659999920e-02,1.817748416219999979e-03,1.000000000000000000e+00
1.085100203999999957e+00,-2.679844063640000051e+00,5.383327873000000041e-01,-9.400546987400000276e+00,3.469594521449999715e-04,9.324667975309999454e-03,2.539328765119999894e-03,1.000000000000000000e+00
1.090093793999999949e+00,-2.752241483590000204e+00,4.206432868670000325e-01,-9.411508526400000463e+00,1.173958927389999810e-02,-4.661811515689999463e-03,1.722870767120000118e-02,1.000000000000000000e+00
1.095259557999999966e+00,-2.605267838350000087e+00,4.181429944839999968e-01,-9.396814230610001317e+00,-1.690557785329999813e-02,1.082227192819999913e-02,-7.636891212310000128e-03,1.000000000000000000e+00
1.100225940999999930e+00,-2.735913741390000098e+00,4.548923240800000212e-01,-9.429204342089999358e+00,-6.289609242229999772e-03,-8.793033659459999207e-03,1.179488003249999986e-02,1.000000000000000000e+00
1.105052485000000084e+00,-2.690046308709999945e+00,5.403342998489999438e-01,-9.444664361550000109e+00,-7.625344675029998957e-03,4.417731426660000127e-03,1.706343144179999979e-02,0.000000000000000000e+00
1.110174803000000043e+00,-2.712203487720000084e+00,5.865286994639999918e-01,-9.356051427589999747e+00,-1.263788621870000177e-02,1.725276745860000044e-02,1.190780661999999964e-03,0.000000000000000000e+00
1.115130363000000013e+00,-2.735136619539999980e+00,4.727720815009999744e-01,-9.434608246960001665e+00,-3.685301635409999992e-03,5.131628364319999573e-03,8.164396509529998902e-03,0.000000000000000000e+00
1.120258838000000035e+00,-2.680657718109999976e+00,4.132850330589999954e-01,-9.424288512989999589e+00,1.954700797799999862e-03,-5.211291834709999744e-03,2.136923372749999911e-03,0.000000000000000000e+00
1.125273321000000104e+00,-2.744321796509999523e+00,4.197645678040000106e-01,-9.365677334069999915e+00,-5.915593355890000002e-03,9.310279972849999641e-03,2.504920028150000103e-02,0.000000000000000000e+00
1.130251273999999917e+00,-2.686843128750000087e+00,3.706053270329999760e-01,-9.416244907270000297e+00,-8.357665501530000055e-03,-4.375439602880000327e-04,1.207575574519999945e-02,1.000000000000000000e+00
1.135125211999999939e+00,-2.693032923299999659e+00,4.284089159000000202e-01,-9.455943295930000048e+00,-1.957873813809999849e-02,3.633668879049999946e-03,2.159080840649999986e-02,1.000000000000000000e+00
1.140089590000000097e+00,-2.702771350239999926e+00,6.247095962330000418e-01,-9.464752625330000058e+00,-2.768425457179999813e-02,1.475182594730000069e-03,1.937190443279999952e-02,1.000000000000000000e+00
1.145038414999999921e+00,-2.725786899649999651e+00,5.973762201610000044e-01,-9.462157348139998092e+00,-2.758868969980000224e-02,2.157413633539999927e-03,2.866876311600000116e-02,1.000000000000000000e+00
1.150254399000000038e+00,-2.720317820590000046e+00,5.803717842700000240e-01,-9.510411968219999679e+00,-8.153246715659999422e-03,-2.791352570059999622e-03,2.581838145849999974e-02,1.000000000000000000e+00
1.155108092000000086e+00,-2.692736570699999721e+00,5.409194427929999716e-01,-9.523929036919998481e+00,-2.065466530620000199e-02,-2.805642085150000017e-03,2.076114341620000081e-02,1.000000000000000000e+00
1.160234089000000024e+00,-2.686546191629999747e+00,5.372999371209999930e-01,-9.525408461819999673e+00,-2.380464924500000096e-03,1.254520472139999954e-02,1.800682209429999708e-02,1.000000000000000000e+00
1.165305904000000004e+00,-2.721752237310000044e+00,5.586971646109999412e-01,-9.535680849510001167e+00,-1.121367514130000055e-02,6.562519818539999834e-03,2.238325402140000503e-02,1.000000000000000000e+00
1.170256237999999893e+00,-2.698733765290000530e+00,5.976897430890000251e-01,-9.562433247360001332e+00,1.518241409209999948e-02,-2.188281156119999821e-02,1.896622776990000009e-02,1.000000000000000000e+00
1.175102244999999934e+00,-2.724777138090000328e+00,5.536464936249999580e-01,-9.582449614950000694e+00,1.493839640170000101e-02,-5.120422691109999432e-03,8.913327008490000772e-03,1.000000000000000000e+00
1.180240946999999929e+00,-2.817435840299999494e+00,5.102602467650000362e-01,-9.551780335920000198e+00,-1.879687421020000138e-02,-5.228937603529999756e-03,-4.844245500859999803e-03,1.000000000000000000e+00
1.185104288000000006e+00,-2.852754406439999890e+00,5.783871132590000519e-01,-9.656859836029999755e+00,1.894693262879999784e-02,-2.717118524009999939e-02,-7.502295542510000435e-03,1.000000000000000000e+00
1.190061738999999896e+00,-2.825043684950000245e+00,5.023093973590000427e-01,-9.645957918260000596e+00,2.242424897849999710e-02,-1.389421615750000179e-02,-1.757922582329999803e-02,1.000000000000000000e+00
1.195246397000000016e+00,-3.129986708980000198e+00,5.052186358690000656e-01,-9.841549463949998966e+00,3.010424040259999587e-02,-2.121819742020000094e-02,-1.945150457319999929e-02,0.000000000000000000e+00
1.200088457000000108e+00,-3.212085730990000165e+00,1.610087099389999887e-01,-9.648543843099998796e+00,5.195251479740000539e-02,-4.830924421550000097e-02,-1.496829837560000216e-02,0.000000000000000000e+00
1.205253235000000034e+00,-3.345936859820000109e+00,1.106426529450000099e-02,-9.575520692470000483e+00,6.088242679830000587e-02,-2.245386876170000004e-02,-1.108832471069999895e-02,0.000000000000000000e+00
1.210254426999999966e+00,-3.332898514549999636e+00,-1.249974670929999976e-01,-9.464335276699999966e+00,7.260080426930000386e-02,-5.208726041020001092e-03,1.995919644829999978e-02,0.000000000000000000e+00
1.215076556999999946e+00,-3.319880043019999949e+00,-2.839528246979999837e-01,-9.700960843560000768e+00,9.090197086329999954e-02,1.616845093669999969e-02,2.993002347649999922e-02,0.000000000000000000e+00
1.220263453999999914e+00,-3.516290796130000285e+00,-5.428410219729999930e-01,-9.867826060969999702e+00,9.282699227330000469e-02,5.737209320069999730e-02,4.499173164369999617e-02,1.000000000000000000e+00
1.225263430999999903e+00,-3.903261822759999777e+00,-1.036840929210000040e+00,-9.800232534170000065e+00,7.048020511869999838e-02,7.058503478769999340e-02,5.574249103670000233e-02,1.000000000000000000e+00
1.230252702999999892e+00,-3.936017844940000288e+00,-1.455909294909999874e+00,-9.593879940499999037e+00,7.808696478609999936e-02,1.205634623770000108e-01,5.326565727590000521e-02,1.000000000000000000e+00
1.235151541000000019e+00,-3.646018707550000126e+00,-1.529357392959999951e+00,-9.823321733340000250e+00,3.232749924059999391e-02,1.587686389680000032e-01,8.568080514669999814e-02,1.000000000000000000e+00
1.240092825000000065e+00,-3.843714239770000152e+00,-1.367039317459999959e+00,-1.026747887450000007e+01,-2.281035296620000097e-02,2.159654796119999942e-01,1.007149592039999902e-01,1.000000000000000000e+00
1.245032128000000071e+00,-4.057061222369999776e+00,-1.617139867439999934e+00,-1.079793132040000003e+01,-1.190772503610000033e-01,2.350715994829999933e-01,1.234543845060000061e-01,0.000000000000000000e+00
1.250267522999999992e+00,-3.635701019409999901e+00,-1.924828098519999919e+00,-1.111780157210000120e+01,-2.263094186780000017e-01,2.429490089419999999e-01,1.601281613109999946e-01,0.000000000000000000e+00
1.255123793999999959e+00,-3.794895848329999932e+00,-2.086045080909999960e+00,-1.100319670329999866e+01,-4.074828624729999738e-01,2.428481131789999858e-01,1.716732829809999861e-01,0.000000000000000000e+00
1.260218733999999952e+00,-3.997643695500000316e+00,-2.501671562529999893e+00,-1.084017471730000004e+01,-5.976415276529999376e-01,2.460994571449999779e-01,2.210397273300000187e-01,0.000000000000000000e+00
1.265285685999999910e+00,-3.993634459859999986e+00,-2.061404268390000016e+00,-1.113073704160000155e+01,-8.094124794010000290e-01,2.728502154349999875e-01,2.243068367240000083e-01,0.000000000000000000e+00
1.270255268999999965e+00,-4.995825004519999446e+00,-3.854633254800000075e-01,-1.271880468990000068e+01,-9.254593849179999498e-01,3.228388130659999855e-01,1.347694396970000041e-01,0.000000000000000000e+00
1.275247180000000036e+00,-6.581167027289999361e+00,4.341408471479999975e-01,-1.359867964519999894e+01,-1.002151489260000083e+00,4.330959320069999730e-01,-7.222033292060001108e-02,0.000000000000000000e+00
1.280247031000000035e+00,-7.417714882070000293e+00,-6.937562444529999928e-01,-1.233468028489999924e+01,-1.030863642689999971e+00,5.542197227480000210e-01,-2.838794291019999805e-01,0.000000000000000000e+00
1.285104261000000081e+00,-7.382628955639998658e+00,-1.691224802089999812e+00,-1.126803071209999985e+01,-1.001405000689999936e+00,7.685526013369999854e-01,-4.513694345950000075e-01,0.000000000000000000e+00
1.290266509999999922e+00,-6.367929934809999359e+00,-2.698814429310000040e+00,-1.012040147659999967e+01,-1.009434103970000107e+00,1.002419710160000088e+00,-5.491763353349999877e-01,0.000000000000000000e+00
1.295247639999999922e+00,-4.082026736800000499e+00,-3.856960382569999624e+00,-9.510607783050000208e+00,-1.061166167260000126e+00,1.209194660189999881e+00,-6.058902740479999993e-01,0.000000000000000000e+00
1.300236970999999908e+00,-2.631756032299999770e+00,-4.248753422530000101e+00,-9.771977330549999508e+00,-1.155580759050000017e+00,1.319188952450000007e+00,-6.420542001719999892e-01,0.000000000000000000e+00
1.305253541999999989e+00,-1.488384600449999873e+00,-4.105875229900000534e+00,-9.992072033850000423e+00,-1.318864107130000018e+00,1.071856498720000106e+00,-7.083588242530000079e-01,0.000000000000000000e+00
1.310219242999999922e+00,-8.204889013069999182e-02,-3.580102174049999864e+00,-1.022239353209999990e+01,-1.391687631610000198e+00,6.475840210909999950e-01,-7.654739618299999382e-01,0.000000000000000000e+00
1.315254731000000010e+00,-3.202492411610000089e-01,-1.921850982410000075e+00,-1.012512441350000003e+01,-1.359182715420000021e+00,1.048954650760000051e-01,-9.385417699810000292e-01,0.000000000000000000e+00
1.320242353999999896e+00,-6.744708214849999273e-01,-1.941848353030000141e+00,-9.119258687469999458e+00,-1.265416741370000153e+00,-3.086420595650000154e-01,-1.072958230970000093e+00,0.000000000000000000e+00
1.325045073999999934e+00,-6.456099801169999930e-01,-1.973016083109999874e+00,-8.734908072470000562e+00,-1.114010572429999790e+00,-6.171191930770000278e-01,-1.217250466350000115e+00,0.000000000000000000e+00
1.330145691000000019e+00,-1.093088155479999823e+00,-1.798192600159999710e+00,-8.512993168010000389e+00,-9.648190736769999276e-01,-8.127553462980000587e-01,-1.360348582269999884e+00,0.000000000000000000e+00
1.335215553000000055e+00,-1.741004147519999989e+00,-2.048728180559999945e+00,-8.971813040800000749e+00,-8.171784877779999512e-01,-8.269264698029999971e-01,-1.461531162260000016e+00,0.000000000000000000e+00
1.340041975000000107e+00,-1.855292790000000025e+00,-2.453476563680000222e+00,-9.475738129719999847e+00,-7.180213928219999486e-01,-7.302408814430000339e-01,-1.569964408869999994e+00,0.000000000000000000e+00
1.345004152000000008e+00,-1.842810178920000208e+00,-2.825186016040000414e+00,-9.915050753490000091e+00,-6.722241044040000446e-01,-6.511406302450000183e-01,-1.632897496220000022e+00,0.000000000000000000e+00
1.350266940000000027e+00,-1.720794157050000051e+00,-3.262163474850000355e+00,-9.796147895209999845e+00,-6.549348235130000306e-01,-5.664710998540000153e-01,-1.716386318210000095e+00,0.000000000000000000e+00
1.355274944999999898e+00,-1.406502436060000027e+00,-3.482525596909999965e+00,-9.686733580769999463e+00,-6.693607568739999847e-01,-5.271735191349999905e-01,-1.779793262479999916e+00,0.000000000000000000e+00
1.360179467000000031e+00,-8.105446678600000121e-01,-3.396746717340000110e+00,-9.468956506760001446e+00,-7.109896540639999429e-01,-5.252527594570000069e-01,-1.896135449409999785e+00,0.000000000000000000e+00
1.365282271000000103e+00,-3.595182254279999934e-01,-3.168124424190000177e+00,-9.249088013430000643e+00,-7.427254319189999787e-01,-5.280085206029999645e-01,-2.004382848740000167e+00,0.000000000000000000e+00
1.370234473000000008e+00,6.128823437850000611e-02,-2.887879495840000033e+00,-8.975795388430000799e+00,-7.832840681079999978e-01,-5.281229019169999539e-01,-2.091396093370000209e+00,0.000000000000000000e+00
1.375101351999999943e+00,2.933634809910000141e-01,-2.590665604759999852e+00,-8.747005922019999602e+00,-7.875015139579999435e-01,-5.432210564609999404e-01,-2.161173820500000176e+00,0.000000000000000000e+00
1.380242331999999905e+00,5.038504893209999613e-01,-2.259796842970000164e+00,-8.492377080960000768e+00,-7.561042308809999835e-01,-5.209380388259999828e-01,-2.221300601959999899e+00,0.000000000000000000e+00
1.385256875000000054e+00,7.065919798240000160e-01,-1.948294022040000240e+00,-8.143081412729999968e+00,-7.174990177150000203e-01,-5.227615237239999768e-01,-2.272692918779999793e+00,0.000000000000000000e+00
1.390101693000000083e+00,9.276323664749999143e-01,-1.675031207660000021e+00,-7.946566322460000720e+00,-6.284255981449999862e-01,-5.476379990580000356e-01,-2.318539857859999831e+00,0.000000000000000000e+00
1.395088859999999986e+00,1.149151257360000011e+00,-1.124946644300000020e+00,-7.796703677769999175e+00,-5.387861132619999882e-01,-5.843890309329999866e-01,-2.370652437209999963e+00,0.000000000000000000e+00
1.400224177999999986e+00,1.453203689220000205e+00,-1.036758347230000016e-01,-7.715770776930000352e+00,-4.503287971019999669e-01,-6.394272446630000495e-01,-2.410124778750000196e+00,0.000000000000000000e+00
1.405254865999999936e+00,1.598702001209999946e+00,4.357232575020000276e-01,-7.872410952930000150e+00,-3.466028273110000057e-01,-6.572525501250000568e-01,-2.459375381470000121e+00,0.000000000000000000e+00
1.410267621000000027e+00,1.319403267670000046e+00,3.324833573770000217e-01,-8.234540968290000151e+00,-2.276652306320000041e-01,-6.746435761450000346e-01,-2.507563114169999885e+00,0.000000000000000000e+00
1.415249937000000013e+00,9.115879712559999959e-01,1.419715991770000019e-01,-8.696395094199999676e+00,-1.286444664000000182e-01,-6.594185233120000156e-01,-2.549520969390000058e+00,0.000000000000000000e+00
1.420241501000000017e+00,3.967418945369999839e-01,1.691989210590000015e-01,-9.154730398339999908e+00,-7.765621691939998683e-02,-6.295750737190000113e-01,-2.537494421009999890e+00,0.000000000000000000e+00
1.425108335000000004e+00,2.253471987330000204e-01,6.819199501809999897e-02,-9.521329668069999030e+00,-5.090112239120000298e-02,-5.665072202680000446e-01,-2.564876079559999855e+00,0.000000000000000000e+00
1.430253961000000018e+00,-2.403108129789999770e-01,-1.244004327810000060e-01,-9.931868617300001034e+00,-5.117918923499999856e-02,-5.116127133369999802e-01,-2.537364244459999973e+00,0.000000000000000000e+00
1.435215416999999993e+00,-7.430118582699999363e-01,-2.992247011749999963e-01,-1.025491282289999972e+01,-7.208733260630000028e-02,-3.817505836489999971e-01,-2.487849712370000077e+00,0.000000000000000000e+00
1.440223282000000049e+00,-1.010473439029999865e+00,-3.948615972160000598e-01,-1.042508000449999983e+01,-9.256041049960000988e-02,-2.523920238019999873e-01,-2.444792747500000196e+00,0.000000000000000000e+00
1.445039538999999928e+00,-9.552596474609998944e-01,-2.871049868519999770e-01,-1.044508701970000075e+01,-1.470350772139999984e-01,-9.550268948079999876e-02,-2.387415170670000197e+00,0.000000000000000000e+00
1.450233636000000104e+00,-7.259223379120000041e-01,-1.550960335619999964e-01,-1.032912606010000012e+01,-1.848711669449999984e-01,4.980478808280000558e-02,-2.303253412250000132e+00,0.000000000000000000e+00
1.455110947000000099e+00,-3.274568344520000229e-01,-7.597041046730000635e-02,-1.021585857740000058e+01,-2.149018645290000085e-01,1.655863076449999860e-01,-2.204062223429999801e+00,0.000000000000000000e+00
1.460259497000000017e+00,6.532943606069999132e-02,-1.142293865740000025e-01,-1.008226025429999950e+01,-2.337798625230000094e-01,2.240437269209999971e-01,-2.114390850069999939e+00,0.000000000000000000e+00
1.465289091000000044e+00,1.850528352079999772e-01,-1.964637665070000094e-02,-9.935570978950000409e+00,-2.101494669909999835e-01,2.857454419139999757e-01,-1.994988203050000131e+00,0.000000000000000000e+00
1.470227458999999959e+00,2.552142397359999926e-01,-3.091133502440000097e-02,-9.832639012260001365e+00,-2.165948003530000221e-01,2.664003372190000274e-01,-1.876426696780000070e+00,0.000000000000000000e+00
1.475073553999999953e+00,2.051473278020000124e-01,-5.215594750180000544e-02,-9.837921921099999523e+00,-1.985962688919999941e-01,2.757363915439999813e-01,-1.764408111570000104e+00,0.000000000000000000e+00
1.480249162000000007e+00,-7.037979651910000745e-02,-1.512501352569999846e-01,-9.844386733200000350e+00,-1.811222136019999818e-01,2.918051183219999567e-01,-1.638653516770000262e+00,0.000000000000000000e+00
1.485184953999999946e+00,-2.867537987939999811e-01,-3.700004930080000309e-01,-9.923432797380000281e+00,-1.670715361829999968e-01,2.910704016690000007e-01,-1.517409324650000002e+00,0.000000000000000000e+00
1.490090627000000056e+00,-3.355363152070000021e-01,-5.040044377740000581e-01,-9.894938524310001426e+00,-1.555988341569999878e-01,3.509131968020000047e-01,-1.395317316060000090e+00,0.000000000000000000e+00
1.495083900000000021e+00,-2.204088107490000115e-01,-5.049782877750000898e-01,-9.848715702310000708e+00,-1.448703408239999935e-01,3.966678380969999584e-01,-1.306671619420000097e+00,0.000000000000000000e+00
1.500147265999999924e+00,-1.619256421200000184e-01,-5.204864206929999959e-01,-9.814412450700000790e+00,-1.353496611120000026e-01,4.177759587759999893e-01,-1.200358033179999895e+00,0.000000000000000000e+00
1.505282412999999986e+00,9.030854062499999585e-03,-5.961843069619999769e-01,-9.860936885980001065e+00,-9.551963210110001046e-02,4.281188547609999784e-01,-1.130729675290000014e+00,0.000000000000000000e+00
1.510231201999999939e+00,1.917607353489999833e-01,-6.694876993099999618e-01,-9.865014510689999128e+00,-6.131518259640000162e-02,4.311923384670000026e-01,-1.053751945499999954e+00,0.000000000000000000e+00
1.515247306000000016e+00,3.912761399449999900e-01,-7.694874850020000379e-01,-9.966540117699999257e+00,-3.325597196820000157e-02,4.146098494530000012e-01,-1.022452116010000189e+00,0.000000000000000000e+00
1.520081628000000018e+00,3.611227014819999859e-01,-8.049151375409999698e-01,-1.006924061369999990e+01,-1.566375419500000074e-02,4.014100730419999929e-01,-9.700416922570000988e-01,0.000000000000000000e+00
1.525105179000000089e+00,1.788213569400000091e-01,-9.477844892739999416e-01,-1.030011740780000018e+01,2.687682770190000237e-02,3.999445736410000007e-01,-9.211233258250000056e-01,0.000000000000000000e+00
1.530248220999999909e+00,-1.574073153130000138e-02,-9.728828363039999649e-01,-1.053835683960000047e+01,5.384070426230000428e-02,3.915586769580000071e-01,-8.806514739990000118e-01,0.000000000000000000e+00
1.535093516999999963e+00,-2.943987240569999608e-01,-9.116066028910000396e-01,-1.085196101670000068e+01,9.633767604829999998e-02,3.996663093569999825e-01,-8.337526321410000385e-01,0.000000000000000000e+00
1.540063659000000085e+00,-6.928122416009999673e-01,-7.774580985550000323e-01,-1.120042841739999950e+01,1.611554324630000146e-01,4.455826878549999925e-01,-8.068505525589999561e-01,0.000000000000000000e+00
1.545036848000000074e+00,-1.092883645889999977e+00,-5.103602000089999535e-01,-1.143915066430000138e+01,2.525384724140000148e-01,4.702173173430000408e-01,-7.946912050250000137e-01,0.000000000000000000e+00
1.550086598000000038e+00,-1.425097830929999976e+00,-4.586704178469999671e-01,-1.152116609970000027e+01,3.360654711720000298e-01,5.737835764880000466e-01,-7.906987667079999893e-01,0.000000000000000000e+00
1.555231703000000021e+00,-1.613174763199999973e+00,-3.753993563770000041e-01,-1.157848665430000068e+01,4.272659122940000165e-01,6.902233958239999412e-01,-7.617768645290000640e-01,0.000000000000000000e+00
1.560025790999999940e+00,-1.432829155839999924e+00,-4.349851890179999847e-01,-1.152211770130000090e+01,5.391895771029999729e-01,7.990294098850000415e-01,-7.378837466240000253e-01,0.000000000000000000e+00
1.565030571000000092e+00,-1.172344501420000018e+00,-5.849298129000000124e-01,-1.140577563349999934e+01,6.190459132190000435e-01,8.934921622279999864e-01,-6.918321847920000378e-01,0.000000000000000000e+00
1.570163565999999955e+00,-7.822117228229999997e-01,-6.398986897980000199e-01,-1.128587616539999949e+01,6.651053428650000043e-01,9.510077238079999162e-01,-6.600269079209999390e-01,0.000000000000000000e+00
1.575012961000000100e+00,-4.915433809340000182e-01,-6.177156456930000816e-01,-1.106507302150000172e+01,6.910586357119999912e-01,9.576860666280000434e-01,-6.143442988399999694e-01,0.000000000000000000e+00
1.580169069999999953e+00,-1.322587541989999893e-01,-5.936016700580000194e-01,-1.102612749710000095e+01,6.918067336079999352e-01,9.717453122139999566e-01,-5.807915329930000148e-01,0.000000000000000000e+00
1.585009093000000036e+00,-7.609373545280000151e-02,-4.995538515730000295e-01,-1.097154250490000038e+01,6.698476672169999535e-01,9.725463986399999206e-01,-5.205466151240000228e-01,0.000000000000000000e+00
1.590035252000000066e+00,-4.113381459080000385e-02,-4.019455275949999629e-01,-1.108655770809999908e+01,6.729992628099999985e-01,9.508829712870000561e-01,-4.615689218039999986e-01,0.000000000000000000e+00
1.595013535000000093e+00,6.577001943500000725e-02,-1.736403193059999905e-01,-1.107971061869999829e+01,6.415690779689999790e-01,9.585433006290000613e-01,-4.388908147810000049e-01,0.000000000000000000e+00
1.600151740000000045e+00,-1.738470939249999736e-01,7.803689627669999074e-02,-1.104931080420000100e+01,6.323671340940000274e-01,9.387916922570000988e-01,-3.572101593020000077e-01,0.000000000000000000e+00
1.605010210000000104e+00,-1.536015024219999914e-01,2.048981753470000000e-01,-1.109786002339999911e+01,6.428530216219999760e-01,9.495105743410000576e-01,-2.873544991020000050e-01,0.000000000000000000e+00
1.610194048000000100e+00,-8.236743629430000324e-02,5.909516670059999921e-01,-1.098948849599999988e+01,6.316732764239999520e-01,9.813477396969999544e-01,-2.155385315419999781e-01,0.000000000000000000e+00
1.615036091999999979e+00,-8.096600853120000663e-02,9.172936355509999640e-01,-1.095273843569999883e+01,6.582363247870000045e-01,9.396621584890000323e-01,-1.611202508210000106e-01,0.000000000000000000e+00
1.620180997000000067e+00,-1.088029958779999917e-02,9.984928591830000144e-01,-1.087398580150000171e+01,6.839541792869999748e-01,9.499341249470000248e-01,-9.024603664880000153e-02,0.000000000000000000e+00
1.625015781999999964e+00,1.539220213470000043e-01,9.940621832590000873e-01,-1.078566103690000055e+01,6.972945332529999485e-01,9.348718523980000805e-01,-4.124715179200000303e-02,0.000000000000000000e+00
1.630020406999999949e+00,3.682722444430000519e-01,9.112614427150000918e-01,-1.076390630119999869e+01,7.100128531460000447e-01,9.346047639849999200e-01,2.902603708209999800e-02,0.000000000000000000e+00
1.635141815999999970e+00,5.514409829379999239e-01,8.206979592139999058e-01,-1.084826800739999975e+01,6.860141754149999826e-01,8.825699090960000825e-01,9.399735927580001038e-02,0.000000000000000000e+00
1.640188474999999979e+00,5.580073922489999783e-01,6.592848697259999780e-01,-1.108659161039999930e+01,6.594476699829999733e-01,8.754866719249999596e-01,1.501621901989999841e-01,0.000000000000000000e+00
1.645056582999999906e+00,1.497132171459999994e-01,7.156617867910001207e-01,-1.145473051079999927e+01,6.510784626009999965e-01,8.312686085699999561e-01,2.316382974390000238e-01,0.000000000000000000e+00
1.650045596000000003e+00,-5.068895282230000410e-01,9.521104627150001054e-01,-1.189186403690000127e+01,6.645725369449999587e-01,8.403807282449999860e-01,3.146952986719999679e-01,0.000000000000000000e+00
1.655015979999999942e+00,-1.205346972639999903e+00,1.333922206879999850e+00,-1.221315584589999936e+01,6.969251632690000031e-01,8.859690427779999267e-01,3.590371608730000275e-01,0.000000000000000000e+00
1.660009649000000032e+00,-1.852657473059999838e+00,1.777683042229999844e+00,-1.219619418969999991e+01,7.675659060480000129e-01,1.008658289910000061e+00,4.043026268480000018e-01,0.000000000000000000e+00
1.665025965999999968e+00,-2.085811710550000253e+00,1.931051649209999832e+00,-1.191764495940000046e+01,8.724551200869999912e-01,1.185586690900000129e+00,4.172309041019999776e-01,0.000000000000000000e+00
1.670156922999999960e+00,-1.384381789659999917e+00,1.588734880079999856e+00,-1.188812192780000032e+01,9.471817016600000416e-01,1.383594393729999927e+00,4.165275990959999564e-01,0.000000000000000000e+00
1.675011797000000024e+00,-7.812761224740000232e-01,8.300667491279999366e-01,-1.175903494459999976e+01,1.039974689479999936e+00,1.565473198889999917e+00,4.121555984020000007e-01,0.000000000000000000e+00
1.680169409999999974e+00,-1.976534649150000211e-01,9.619072139830001089e-02,-1.164490587660000109e+01,1.070005774500000006e+00,1.689244985580000025e+00,4.208557009699999685e-01,0.000000000000000000e+00
1.685082289999999983e+00,6.359896265950000238e-01,-4.258231006580000533e-01,-1.116089837109999827e+01,1.059692978860000023e+00,1.742752790449999978e+00,4.107069671149999879e-01,0.000000000000000000e+00
1.690031550000000049e+00,1.133370700710000012e+00,-7.344218707100000909e-01,-1.087967670660000152e+01,1.026168465610000080e+00,1.736627340320000101e+00,3.993431925770000168e-01,0.000000000000000000e+00
1.695053498000000047e+00,1.309096100920000172e+00,-9.396839657309999927e-01,-1.062129348150000041e+01,9.811999201769999734e-01,1.702485919000000125e+00,3.732875287529999753e-01,0.000000000000000000e+00
1.700182995000000030e+00,1.279203359229999837e+00,-1.056551664920000189e+00,-1.054019808349999998e+01,9.158980250360000408e-01,1.654428839679999985e+00,3.342798054219999759e-01,0.000000000000000000e+00
1.705064010000000074e+00,1.061966967970000120e+00,-8.887898639920001065e-01,-1.047618241520000026e+01,8.895917534829999029e-01,1.651816725729999824e+00,3.083187937740000106e-01,0.000000000000000000e+00
1.710068133999999906e+00,6.391676721100000291e-01,-6.082117946909999517e-01,-1.039299676699999964e+01,8.864709138869999450e-01,1.639319539069999943e+00,2.803658843040000015e-01,0.000000000000000000e+00
1.715225396999999985e+00,1.242696734080000059e-01,-3.239911311029999852e-01,-1.031707088070000111e+01,9.018155336380000442e-01,1.659867405889999814e+00,2.788009047510000005e-01,0.000000000000000000e+00
1.720223661999999987e+00,-1.573973693069999902e-01,1.013913039819999973e-01,-1.033429790980000007e+01,9.721173048019999818e-01,1.669590950010000130e+00,2.940008938309999764e-01,0.000000000000000000e+00
1.725043936000000055e+00,-2.236349149230000000e-01,8.481316903890000480e-01,-1.040909449990000013e+01,1.071636199950000146e+00,1.702051997179999887e+00,2.858780622479999978e-01,0.000000000000000000e+00
1.730062282000000007e+00,-2.230006538729999988e-01,1.487620922599999895e+00,-1.035194813280000048e+01,1.160776615140000079e+00,1.700608134270000127e+00,2.412901669739999921e-01,0.000000000000000000e+00
1.735181427000000109e+00,-4.018496294719999806e-01,1.658153138089999867e+00,-1.051369118490000076e+01,1.278476595879999955e+00,1.691338062290000055e+00,1.958030760289999894e-01,0.000000000000000000e+00
1.740217955000000094e+00,-6.768673612330000644e-01,1.283856153469999928e+00,-1.058516418349999988e+01,1.329072833060000125e+00,1.682242870329999862e+00,1.483965665099999942e-01,0.000000000000000000e+00
1.745195387999999959e+00,-9.766311559870000103e-01,7.178146539759999722e-01,-1.057570778830000080e+01,1.309208750720000092e+00,1.633595585820000196e+00,7.516226917510000771e-02,0.000000000000000000e+00
1.750109115999999965e+00,-1.379807759750000029e+00,1.334903235540000066e-01,-1.073454810469999998e+01,1.223960638050000105e+00,1.609561681750000028e+00,5.357796698810000230e-02,0.000000000000000000e+00
1.755260398999999971e+00,-1.703110616320000048e+00,-3.994465869189999796e-01,-1.076583873049999873e+01,1.067459702489999884e+00,1.593542098999999990e+00,-3.821750171479999965e-03,0.000000000000000000e+00
1.760111787999999899e+00,-2.320644694909999917e+00,-5.880092934109999447e-01,-1.078133674390000074e+01,9.070831537250000354e-01,1.578436613080000051e+00,-1.611707732079999816e-02,0.000000000000000000e+00
1.765275872999999995e+00,-2.907563854990000252e+00,-4.756588524509999805e-01,-1.066736666589999949e+01,7.337522506710000281e-01,1.567839384080000009e+00,-6.008340045810000793e-03,0.000000000000000000e+00
1.770098590999999999e+00,-3.313445333799999837e+00,-6.609465741270000028e-02,-1.053202062230000102e+01,6.033605337140000024e-01,1.556656003000000066e+00,-1.783413998780000037e-02,0.000000000000000000e+00
1.775115200999999976e+00,-3.742575293979999884e+00,5.269761480379999696e-01,-1.020580947710000075e+01,5.273697972300001036e-01,1.577374815939999841e+00,-1.986074075100000003e-02,0.000000000000000000e+00
1.780244676999999998e+00,-4.035485058119999913e+00,9.890743118440000758e-01,-9.855215585730000782e+00,5.006721019740000278e-01,1.565549731249999965e+00,-3.277222067120000304e-02,0.000000000000000000e+00
1.785083589999999942e+00,-4.076984943250000271e+00,1.263375675500000073e+00,-9.504683069180000388e+00,5.300278663640000110e-01,1.575454711910000194e+00,-3.417053073640000105e-02,0.000000000000000000e+00
1.790054583999999949e+00,-3.671420275309999592e+00,1.560560925000000099e+00,-8.957130435449998984e+00,5.542008280749999294e-01,1.553797960280000057e+00,-5.021926015619999906e-02,0.000000000000000000e+00
1.795245902000000005e+00,-3.473822065969999429e+00,1.631270830259999860e+00,-8.517567051799998623e+00,6.150910258289999932e-01,1.510206460949999885e+00,-3.986697644000000013e-02,0.000000000000000000e+00
1.800179474999999973e+00,-3.282264013590000307e+00,1.523396877120000159e+00,-8.109265067850000008e+00,6.683417558669999536e-01,1.397560238840000135e+00,-1.625622808929999899e-02,0.000000000000000000e+00
1.805103962000000006e+00,-3.092416564520000133e+00,1.343191555010000204e+00,-7.833739569229999589e+00,7.086036205290000556e-01,1.289471149439999964e+00,-4.855877719819999376e-03,0.000000000000000000e+00
1.810271130999999922e+00,-2.983637917630000302e+00,1.116718256590000014e+00,-7.687499206689999198e+00,7.402957677840000805e-01,1.154070734979999902e+00,2.800111845140000263e-02,0.000000000000000000e+00
1.815110661999999930e+00,-3.020680531080000009e+00,9.513128095309999477e-01,-7.583157373200000606e+00,7.230417728419999968e-01,1.012066841130000006e+00,4.710035771130000049e-02,0.000000000000000000e+00
1.820096885999999969e+00,-3.200459298349999759e+00,9.459351350810000225e-01,-7.583242713400000667e+00,6.903826594349999901e-01,8.841345310210000363e-01,7.487440109250000086e-02,0.000000000000000000e+00
1.825162905000000002e+00,-3.387645126999999867e+00,7.275882252969999575e-01,-7.619102546810001542e+00,6.400108933450000537e-01,7.823386788370000344e-01,7.954400777819999047e-02,0.000000000000000000e+00
1.830249264999999959e+00,-3.567720246860000000e+00,5.176443291350000253e-01,-7.609860671210000760e+00,5.892634987829999949e-01,7.079660892489999524e-01,1.025933623310000126e-01,0.000000000000000000e+00
1.835214574000000098e+00,-3.638120940030000305e+00,4.181222804899999979e-01,-7.580577878110001500e+00,5.210714340209999795e-01,6.557813882830000329e-01,1.411604732279999885e-01,0.000000000000000000e+00
1.840109522000000108e+00,-3.633063072119999681e+00,4.227706177520000330e-01,-7.602615522389999825e+00,4.527761936190000114e-01,5.963416695590000316e-01,1.648682206869999944e-01,0.000000000000000000e+00
1.845091738999999897e+00,-3.734370652480000441e+00,3.737158968020000138e-01,-7.689161586939999182e+00,3.708152174950000157e-01,5.286109447479999668e-01,1.736885905270000308e-01,0.000000000000000000e+00
1.850253818999999966e+00,-4.016141182970000223e+00,2.928262323099999898e-01,-7.776702507749999604e+00,3.192891776560000117e-01,4.472918510439999884e-01,2.186586260800000292e-01,0.000000000000000000e+00
1.855263628000000109e+00,-4.185932809219999662e+00,1.849483153869999896e-01,-7.813334494580000289e+00,2.837846577170000106e-01,4.053570032119999667e-01,2.532447576519999966e-01,0.000000000000000000e+00
1.860258624999999943e+00,-4.332528268809999972e+00,-5.955365882100000473e-03,-7.775180412750000158e+00,2.271845936780000075e-01,3.611589968199999667e-01,3.243246972559999941e-01,0.000000000000000000e+00
1.865284323000000022e+00,-4.130086711100000585e+00,-8.363470715060000726e-02,-7.609029481089999436e+00,1.913758814329999947e-01,3.468387424949999631e-01,3.796964287760000167e-01,0.000000000000000000e+00
1.870084674999999974e+00,-3.944930342450000182e+00,-2.051860158449999860e-01,-7.550880074460001090e+00,1.412934064870000062e-01,2.823496758940000073e-01,4.446051716800000775e-01,0.000000000000000000e+00
1.875066831000000045e+00,-3.786715756740000050e+00,-2.825804951650000008e-01,-7.499708690150000301e+00,9.347184002399999692e-02,2.467008978130000030e-01,5.034177899360000596e-01,0.000000000000000000e+00
1.880259394000000084e+00,-3.717041916530000378e+00,-2.717404636560000197e-01,-7.450837399470000122e+00,5.855309218169999635e-02,1.629739850759999997e-01,5.678419470790000423e-01,0.000000000000000000e+00
1.885072870999999983e+00,-3.632840953800000161e+00,-2.052437191150000007e-01,-7.455484933019999261e+00,4.976455867290000695e-02,9.255652129650000781e-02,5.997067093850000363e-01,0.000000000000000000e+00
1.890058833999999965e+00,-3.634121056740000189e+00,-2.510378582340000095e-02,-7.408069101849999782e+00,3.814453259109999717e-02,1.022773422299999915e-02,6.148886680599999766e-01,0.000000000000000000e+00
1.895069134000000100e+00,-3.723033850430000236e+00,6.513685436440000420e-02,-7.476738733450000396e+00,5.724180489780000131e-02,-5.174830928439999589e-02,6.131985783579999572e-01,0.000000000000000000e+00
1.900209664999999992e+00,-3.952684609840000363e+00,-1.075241715809999816e-03,-7.527872123829999929e+00,3.890518844130000375e-02,-8.915332704780001838e-02,6.090188026430000123e-01,0.000000000000000000e+00
1.905094588999999949e+00,-4.206833558430000508e+00,-1.574657949009999891e-01,-7.570037779389998889e+00,4.219034314159999383e-02,-1.361552029850000012e-01,5.945450663569999961e-01,0.000000000000000000e+00
1.910105938999999919e+00,-4.320824679270000246e+00,-3.062903287120000151e-01,-7.647014051569999360e+00,7.690289523449999817e-03,-1.409807354209999808e-01,5.635007619859999650e-01,0.000000000000000000e+00
1.915226665000000050e+00,-4.354843560990000029e+00,-3.173414639550000138e-01,-7.684118916599999238e+00,-4.042989760639999902e-02,-1.573730409149999843e-01,5.533215403560000079e-01,0.000000000000000000e+00
1.920262963000000100e+00,-4.449967776530000307e+00,-1.982537506300000030e-01,-7.700550995960000478e+00,-1.118816211819999989e-01,-1.768773347139999952e-01,5.512022972110000030e-01,0.000000000000000000e+00
1.925097995000000006e+00,-4.467931010990000118e+00,-1.094392205550000080e-01,-7.629350384580000366e+00,-1.746495366099999891e-01,-1.836477369069999810e-01,5.328136682509999611e-01,0.000000000000000000e+00
1.930109102000000076e+00,-4.595575978650000337e+00,-6.113723593469999606e-02,-7.430128373439999656e+00,-2.432971894740000030e-01,-2.276975810530000310e-01,5.530478358270000117e-01,0.000000000000000000e+00
1.935218579999999911e+00,-4.411779792439999959e+00,8.863827845839999942e-02,-7.115109653340000229e+00,-3.027155995370000019e-01,-2.438537031410000222e-01,5.429370999339999670e-01,0.000000000000000000e+00
1.940100441000000009e+00,-4.366835612080000040e+00,3.963322542899999634e-01,-6.823333861669999223e+00,-3.417186737060000090e-01,-2.723445892330000340e-01,5.846350789069999498e-01,0.000000000000000000e+00
1.945065926999999917e+00,-4.272065032280000452e+00,7.135802312760000099e-01,-6.690821580229999732e+00,-3.375810682769999627e-01,-3.437187969680000066e-01,6.204028725619999962e-01,0.000000000000000000e+00
1.950063950000000101e+00,9.111281717239999578e-01,-3.764120770829999962e+00,-9.919733942869999765e+00,-8.428798913959999473e-01,-1.552997380499999969e-01,2.118700444700000185e-01,0.000000000000000000e+00
1.955079696999999950e+00,-2.763495283540000180e+00,-2.890281588540000168e+00,-6.230884101590000057e+00,-1.138708710670000013e+00,-1.082563161850000011e+00,3.680010735989999726e-01,0.000000000000000000e+00
1.960191658000000059e+00,-5.693304580349999533e+00,-5.156546896870000118e+00,-6.038242053370000306e+00,-1.946432113650000018e+00,-1.268087983130000040e+00,1.130776926879999977e-01,0.000000000000000000e+00
1.965184386000000005e+00,-4.595770332169999861e+00,-3.461668394580000196e+00,-4.732350593699999663e+00,-2.810435771939999938e+00,-1.343654513359999969e+00,-8.702816069129999665e-02,0.000000000000000000e+00
1.970141900000000001e+00,-5.304231028480000276e+00,-2.064542420290000013e+00,-6.287952142730000027e+00,-3.438667535780000062e+00,-1.711922764779999939e+00,-6.579985469580000579e-02,0.000000000000000000e+00
1.975073003999999965e+00,-7.182194646100000135e+00,1.600178649639999895e+00,-5.437015697120000546e+00,-3.914408683780000064e+00,-1.712912559510000099e+00,-2.372844666239999900e-01,0.000000000000000000e+00
1.980202647999999899e+00,-4.597343572840000725e+00,3.869592485130000092e+00,-5.946982404289999913e+00,-3.886213779449999794e+00,-1.635532498359999920e+00,-3.175897896290000300e-01,0.000000000000000000e+00
1.985052937000000073e+00,1.728976111799999937e-01,7.243932432610000305e+00,-5.697170023600000022e+00,-3.416491746899999793e+00,-1.422687172890000129e+00,-4.810148179529999957e-01,0.000000000000000000e+00
1.990087476000000022e+00,1.615991720320000047e+00,9.331756359770000842e+00,-8.859367980360000061e+00,-2.557446479799999839e+00,-1.318848967549999918e+00,-7.615169286730000264e-01,0.000000000000000000e+00
1.995232096999999927e+00,2.473721187070000216e+00,7.370880650180000160e+00,-1.158900103400000070e+01,-1.687647342680000051e+00,-1.317262530329999848e+00,-8.612965941429999717e-01,0.000000000000000000e+00
2.000176317000000203e+00,5.482590868850000021e+00,4.416817786600000240e+00,-1.346375328839999952e+01,-8.664740920069999852e-01,-1.562419414520000327e+00,-9.881250262260000694e-01,0.000000000000000000e+00
2.005065783000000046e+00,6.090166886390000478e+00,2.889260136540000357e+00,-1.318162795309999957e+01,-4.484854042530000418e-01,-1.981892704959999918e+00,-1.028764724729999802e+00,0.000000000000000000e+00
2.010223266000000120e+00,3.473946861399999975e+00,2.132809754699999782e+00,-1.293426179650000130e+01,-4.607191681860000054e-01,-2.544791460039999897e+00,-9.469122886660000793e-01,0.000000000000000000e+00
2.015207590999999798e+00,-1.262346478580000042e+00,3.469611754800000281e+00,-1.276840604839999926e+01,-8.109659552569999930e-01,-3.134871006010000016e+00,-7.432166337970000924e-01,0.000000000000000000e+00
2.020215553999999969e+00,-5.183640070980000125e+00,4.771916295889999660e+00,-1.295949560650000087e+01,-1.185005664830000027e+00,-3.592918157580000216e+00,-5.943663120269999656e-01,0.000000000000000000e+00
2.025198583999999968e+00,-8.905250026090000048e+00,6.183075471709999604e+00,-1.295943247820000011e+01,-1.339769482610000173e+00,-3.698241949080000701e+00,-4.702951014039999933e-01,0.000000000000000000e+00
2.030073064000000205e+00,-1.040174238350000024e+01,8.614879425030000704e+00,-1.328436468950000027e+01,-1.223422288889999932e+00,-3.448549747469999982e+00,-4.153156578540000421e-01,0.000000000000000000e+00
2.035180002999999793e+00,-1.018389575139999970e+01,9.930933382270000109e+00,-1.263807403359999881e+01,-7.325817346570000499e-01,-2.756808996200000195e+00,-2.893899083140000217e-01,0.000000000000000000e+00
2.040076362000000199e+00,-9.214107885469999815e+00,7.470383226939999233e+00,-1.248941375049999891e+01,-1.312872916460000039e-01,-1.789293527599999933e+00,-5.891921371219999842e-02,0.000000000000000000e+00
2.045059714999999834e+00,-5.791214919480000667e+00,4.261047379180000760e+00,-1.205683832599999938e+01,3.618427813050000275e-01,-1.165618300440000032e+00,1.597747206690000032e-01,0.000000000000000000e+00
2.050043038000000095e+00,-3.423057216640000178e+00,1.787752016300000024e+00,-1.089647586579999938e+01,5.334529280659999761e-01,-7.659333348270001007e-01,3.196129202840000127e-01,0.000000000000000000e+00
2.055231970999999991e+00,-1.419822667010000039e+00,-9.047749302399998861e-01,-1.078356611039999891e+01,4.073163867000000327e-01,-8.201504349709999309e-01,3.888015747070000527e-01,0.000000000000000000e+00
2.060209159999999873e+00,-5.217281278500000008e-01,-2.155754869220000369e+00,-1.086224509480000044e+01,1.322583854200000131e-01,-1.233314633370000024e+00,3.698673248290000326e-01,0.000000000000000000e+00
2.065188819999999925e+00,-7.320671242769999365e-01,-2.396824994400000186e+00,-9.907121129530001014e+00,-1.055429205300000006e-01,-1.609989404679999847e+00,2.323113232849999821e-01,0.000000000000000000e+00
2.070048073999999794e+00,-2.057009978960000041e+00,-2.750424497300000048e+00,-9.960198055199999345e+00,-2.503241896630000185e-01,-1.837321639059999789e+00,8.002105355260000219e-02,0.000000000000000000e+00
2.075221634000000037e+00,-2.361841943820000012e+00,-2.748411696169999807e+00,-9.680649292420000052e+00,-2.983412146570000312e-01,-1.928790450099999942e+00,-2.580991759900000057e-02,0.000000000000000000e+00
2.080232313000000222e+00,-3.870322260709999629e+00,-2.947439646050000306e+00,-1.030964979079999999e+01,-3.160435259340000358e-01,-1.860211491579999876e+00,-8.367214351889999679e-02,0.000000000000000000e+00
2.085048958999999869e+00,-4.440744021110000439e+00,-3.004324731829999706e+00,-1.115527877759999953e+01,-4.061898589130000237e-01,-1.679897069929999986e+00,-7.896722108129999862e-02,0.000000000000000000e+00
2.090167083999999953e+00,-5.157181687649999624e+00,-3.087806440370000072e+00,-1.198157178039999948e+01,-5.472546815869999692e-01,-1.520609259610000041e+00,-2.073089592159999689e-02,0.000000000000000000e+00
2.095227616999999931e+00,-6.189295369140000780e+00,-2.877571744569999979e+00,-1.226258652410000138e+01,-7.112183570860000081e-01,-1.363181710239999900e+00,8.891580998900000532e-02,0.000000000000000000e+00
2.100070007999999877e+00,-6.476285680110000165e+00,-1.372185740439999968e+00,-1.137026125250000064e+01,-8.445062041280000376e-01,-1.187161326410000051e+00,1.540068089959999997e-01,0.000000000000000000e+00
2.105197178000000058e+00,-5.838706738489999992e+00,1.569819386409999906e-01,-1.051311484630000059e+01,-8.724496364589999775e-01,-1.004067897799999942e+00,1.681364625690000003e-01,0.000000000000000000e+00
2.110193596999999865e+00,-5.059697464970000169e+00,6.708647598170000004e-01,-1.048980995860000043e+01,-7.767434716220000812e-01,-8.117324709890000323e-01,1.438242048030000109e-01,0.000000000000000000e+00
2.115034141000000201e+00,-4.750294246670000220e+00,9.556080955719999936e-01,-1.004774657479999966e+01,-6.730529665950000240e-01,-6.326859593389999592e-01,9.962379932399999249e-02,0.000000000000000000e+00
2.120172004000000054e+00,-3.822997907219999547e+00,1.470963510050000034e+00,-9.997920759870000396e+00,-5.735663175580000273e-01,-5.416100621220000244e-01,1.049914434549999998e-01,0.000000000000000000e+00
2.125039526000000123e+00,-2.990991495259999411e+00,1.707769401920000041e+00,-1.003256771040000039e+01,-5.332415699960000310e-01,-5.173118710520000496e-01,1.361728459599999830e-01,0.000000000000000000e+00
2.129983844999999931e+00,-3.299771320970000144e+00,1.753145836209999864e+00,-1.013069958330000020e+01,-4.955001473430000192e-01,-5.377926230430000176e-01,1.787414997819999907e-01,0.000000000000000000e+00
2.135139911000000001e+00,-3.510206800040000186e+00,1.201463482270000105e+00,-9.944481430630000673e+00,-4.681282341480000331e-01,-5.267806053160000168e-01,1.875351816420000040e-01,0.000000000000000000e+00
2.140170482999999901e+00,-3.762306414890000283e+00,1.512506649799999936e+00,-1.026547747159999879e+01,-3.965812921519999978e-01,-5.107627511019999789e-01,1.826886832710000186e-01,0.000000000000000000e+00
2.145108028000000111e+00,-4.095751895299999390e+00,2.481983403980000169e+00,-1.043191423440000065e+01,-3.168149590489999778e-01,-4.776419401169999523e-01,1.318201869729999920e-01,0.000000000000000000e+00
2.150205711999999991e+00,-3.831429635480000595e+00,2.657976807490000315e+00,-9.924883580710000430e+00,-2.474187165500000007e-01,-4.115222394470000045e-01,6.914494186639999485e-02,0.000000000000000000e+00
2.155190112000000102e+00,-3.559377365919999647e+00,2.569543029490000130e+00,-9.683260936219999948e+00,-1.469546258449999920e-01,-3.264801204200000195e-01,5.468053743239999903e-02,0.000000000000000000e+00
2.160216092000000199e+00,-3.237757932390000093e+00,2.084563756320000127e+00,-9.773694655859999969e+00,-8.180727064610000820e-02,-2.350186705589999980e-01,5.778581649069999132e-02,0.000000000000000000e+00
2.165190359999999981e+00,-2.943110969190000148e+00,1.402185741899999893e+00,-9.737466573660000790e+00,-5.049633979800000061e-02,-1.548988521099999849e-01,7.205011695619999157e-02,1.000000000000000000e+00
2.170191360000000014e+00,-2.754776555030000296e+00,6.678633129790000345e-01,-9.558479541300000548e+00,-4.223958775399999643e-02,-1.584983915089999973e-01,1.028768271209999918e-01,1.000000000000000000e+00
2.175228404999999920e+00,-2.604438401790000412e+00,3.851353356350000201e-01,-9.503676522480001054e+00,-3.469872847199999971e-02,-1.770947128530000192e-01,7.310546934599999880e-02,1.000000000000000000e+00
2.180189218999999845e+00,-2.701565481590000317e+00,4.622076155300000044e-01,-9.562871054249999503e+00,-5.073268339039999769e-02,-2.137345373629999934e-01,5.444424226879999995e-02,1.000000000000000000e+00
2.185182991000000019e+00,-2.848062741489999716e+00,6.015227088479999651e-01,-9.588303601669998955e+00,-5.318639427419999399e-02,-2.239054739480000056e-01,5.793169885869999675e-02,1.000000000000000000e+00
2.190095252999999964e+00,-2.881071569389999976e+00,8.683202727410000987e-01,-9.579556231589998916e+00,-4.997866973280000458e-02,-2.168861329560000106e-01,3.772318363189999801e-02,1.000000000000000000e+00
2.195232997000000186e+00,-2.956385461310000018e+00,1.045944053930000006e+00,-9.542083702290000247e+00,-4.555920138959999866e-02,-1.914358437060000029e-01,4.577976837750000194e-02,1.000000000000000000e+00
2.200063865000000174e+00,-2.949019608710000018e+00,1.075442900939999946e+00,-9.570834580479999687e+00,-2.101536281409999846e-02,-1.587618738409999897e-01,4.837141931059999594e-02,1.000000000000000000e+00
2.205204992000000086e+00,-2.883210919499999747e+00,8.019186591379999784e-01,-9.553012508060001906e+00,-1.380085665729999939e-02,-1.260171234609999968e-01,3.220514208079999774e-02,1.000000000000000000e+00
2.210195587999999933e+00,-2.867087175440000468e+00,5.666505713009999390e-01,-9.510572711739998297e+00,4.672415554520000305e-03,-1.057788133620000126e-01,2.542747370900000012e-02,1.000000000000000000e+00
2.215191766999999867e+00,-2.888130840249999665e+00,4.649859576690000273e-01,-9.437130458909999575e+00,9.196525206789998852e-04,-1.180139780040000003e-01,3.049300424749999683e-02,1.000000000000000000e+00
2.220211720000000000e+00,-2.767184201179999636e+00,5.558240933929999850e-01,-9.483566631389999557e+00,-3.305025398730000036e-03,-1.278150081629999824e-01,2.339058741930000185e-02,1.000000000000000000e+00
2.225065627000000212e+00,-2.702262816200000195e+00,7.547337141150001205e-01,-9.418210069860000644e+00,6.576246581970000837e-03,-1.319880485530000036e-01,2.517887949940000175e-02,1.000000000000000000e+00
2.230173902000000208e+00,-2.752651817959999914e+00,7.601551546420000083e-01,-9.495795413850000699e+00,-1.779051031920000090e-03,-1.589270830149999980e-01,3.189797326919999870e-02,1.000000000000000000e+00
2.235154849999999804e+00,-2.827827178190000179e+00,6.116950702290000486e-01,-9.500910564899999855e+00,2.897079102690000227e-02,-1.454564183950000089e-01,3.907513618469999478e-02,1.000000000000000000e+00
2.240194446999999922e+00,-2.870150946920000390e+00,5.158738123309999368e-01,-9.448356786319999756e+00,2.071330510079999812e-02,-1.165416538719999950e-01,5.794806405899999985e-02,1.000000000000000000e+00
2.245053352999999863e+00,-2.739896381280000348e+00,3.945348494800000050e-01,-9.432052132729999983e+00,1.282629906200000213e-03,-1.094607263799999980e-01,3.260694444179999818e-02,1.000000000000000000e+00
2.250025900999999884e+00,-2.805080216600000398e+00,2.684421162300000274e-01,-9.425712992839999416e+00,1.022949069739999967e-02,-1.074001789090000131e-01,4.984318837519999268e-02,1.000000000000000000e+00
2.254985689000000182e+00,-2.667025206339999954e+00,2.316618435059999981e-01,-9.387986781030001282e+00,-1.650524139399999965e-02,-1.001654043789999976e-01,2.999162860210000114e-02,1.000000000000000000e+00
2.260186006000000081e+00,-2.765910235720000276e+00,2.176527352400000059e-01,-9.366936394219999684e+00,-1.572370342910000066e-02,-1.111923977729999957e-01,4.890053346749999308e-02,1.000000000000000000e+00
2.265056302000000077e+00,-2.812602428789999998e+00,2.229591528190000005e-01,-9.337165525339999661e+00,-2.089230157429999846e-02,-1.037066876890000017e-01,5.021367594600000678e-02,1.000000000000000000e+00
2.270070307000000120e+00,-2.784416198749999793e+00,2.136545141829999939e-01,-9.309867184039999799e+00,-3.992325067519999354e-02,-1.125819087029999999e-01,4.079420492050000319e-02,1.000000000000000000e+00
2.275017156000000096e+00,-2.722862244379999463e+00,1.668554084069999999e-01,-9.338306512060000841e+00,-4.631651565430000561e-02,-9.048020839689999151e-02,2.332810498770000046e-02,1.000000000000000000e+00
2.280026035000000117e+00,-2.793598453120000435e+00,1.608860151410000106e-01,-9.351806045110000909e+00,-8.030636608600000281e-02,-9.197162091730000377e-02,2.845633774999999782e-02,1.000000000000000000e+00
2.285011304000000187e+00,-2.748167366020000113e+00,2.457244355249999790e-01,-9.310427740539999775e+00,-8.562915027139998692e-02,-7.316165417429999762e-02,6.272343453020000521e-03,1.000000000000000000e+00
2.290047635000000081e+00,-2.809477867030000020e+00,4.206354688869999858e-01,-9.175046041139999886e+00,-1.334866285319999957e-01,-5.946038663390000589e-02,4.166676662859999762e-03,1.000000000000000000e+00
2.295047660999999906e+00,-2.772391998959999881e+00,4.833556905640000179e-01,-9.205769096190000056e+00,-1.237143799660000015e-01,-6.900957226749999951e-02,-9.045388549570000311e-03,1.000000000000000000e+00
2.300047713000000105e+00,-2.736784094479999929e+00,4.420089867079999846e-01,-9.294843802429999968e+00,-1.238887682559999953e-01,-6.412205845120000358e-02,-2.136166021230000156e-02,1.000000000000000000e+00
2.305062812000000072e+00,-2.745378904349999871e+00,4.272880951770000046e-01,-9.369469127569999500e+00,-1.214149147270000006e-01,-6.345245242119999796e-02,-5.757255852219999442e-02,1.000000000000000000e+00
2.310192815999999816e+00,-2.888326362819999993e+00,3.310560645210000041e-01,-9.381788510919999879e+00,-1.315823644399999881e-01,-2.369719743729999800e-02,-4.371712356810000116e-02,1.000000000000000000e+00
2.315220676000000033e+00,-2.926596764499999725e+00,4.319190794459999982e-01,-9.454502449470000514e+00,-1.303844898940000052e-01,-3.185706213120000074e-02,-6.572736799719999801e-02,1.000000000000000000e+00
2.320187023999999987e+00,-2.934494824279999747e+00,4.611121119109999889e-01,-9.378117128930000490e+00,-1.246758028859999978e-01,-2.487157285209999971e-02,-8.152823150160000421e-02,1.000000000000000000e+00
2.325274024000000050e+00,-2.904821862809999544e+00,4.521483591340000330e-01,-9.419684234069999107e+00,-1.283131986859999962e-01,-1.262662559749999983e-02,-7.295339554549999661e-02,1.000000000000000000e+00
2.330167669000000163e+00,-2.935792755130000042e+00,4.362805260580000510e-01,-9.483948324189999113e+00,-1.224163994189999966e-01,3.062208415940000181e-03,-7.017264515160000216e-02,1.000000000000000000e+00
2.335180992999999816e+00,-2.905357869379999514e+00,4.376393933209999920e-01,-9.447010047889998319e+00,-1.004178971050000008e-01,1.481764577329999950e-02,-6.150368973610000067e-02,1.000000000000000000e+00
2.340125234999999915e+00,-2.804729211200000183e+00,5.107982626320000108e-01,-9.506581596280000213e+00,-1.049749776720000083e-01,3.037252835930000228e-02,-9.384306520219999614e-02,1.000000000000000000e+00
2.345037887999999793e+00,-3.013526567680000046e+00,3.455088796999999934e-01,-9.544130697949999131e+00,-7.865601778029999991e-02,1.589039154349999872e-02,-7.239316403869999750e-02,1.000000000000000000e+00
2.349978520000000071e+00,-2.962621140830000055e+00,2.352840708579999884e-01,-9.491334927310001390e+00,-7.318973541260000160e-02,3.027041675519999593e-03,-6.796893477440001108e-02,1.000000000000000000e+00
2.354976075999999807e+00,-2.915077591619999797e+00,3.111806763030000034e-01,-9.492470653339999842e+00,-7.067123800520000443e-02,-7.466238923370000294e-03,-5.666305124760000200e-02,1.000000000000000000e+00
2.360184924999999989e+00,-2.933827592540000140e+00,5.752137439200000202e-01,-9.505588493590000354e+00,-6.848457455640000191e-02,1.525519415739999898e-02,-4.829465597869999488e-02,1.000000000000000000e+00
2.364945881000000139e+00,-2.828663336760000035e+00,5.778329865069999904e-01,-9.456973808019998984e+00,-7.422713935380000072e-02,7.241931743919999016e-04,-6.781891733410000400e-02,1.000000000000000000e+00
2.370043222000000060e+00,-2.908479216270000389e+00,4.389924884309999720e-01,-9.430158866330000222e+00,-5.182811245320000093e-02,-6.778446026150000171e-03,-5.995630100370000215e-02,1.000000000000000000e+00
2.374983992999999849e+00,-2.888286615329999751e+00,2.676554228320000006e-01,-9.414942592499999208e+00,-4.625343903900000497e-02,1.190247200430000034e-02,-3.573001921180000290e-02,1.000000000000000000e+00
2.379981723999999854e+00,-2.779689754750000130e+00,3.317689620300000031e-01,-9.397321011089999843e+00,-3.712744638320000096e-02,7.975482381880000596e-03,-2.849869802590000029e-02,1.000000000000000000e+00
2.384948860000000170e+00,-2.774676895030000257e+00,4.013694812730000394e-01,-9.464587205630000000e+00,-4.656203091140000139e-02,9.782280772920001408e-03,-2.456727623940000230e-02,1.000000000000000000e+00
2.390091500000000035e+00,-2.772934435270000275e+00,4.497265022820000624e-01,-9.507040445960001307e+00,-3.845897316930000503e-02,-1.579133607449999949e-02,-1.540606096389999895e-02,1.000000000000000000e+00
2.395049557000000107e+00,-2.814496279720000160e+00,4.623200263960000056e-01,-9.440515425170000086e+00,-4.946473240849999509e-02,-3.471550345419999878e-02,-2.539300592619999925e-03,1.000000000000000000e+00
2.400013517000000096e+00,-2.761162456670000154e+00,4.731613730789999694e-01,-9.417264313440000478e+00,-4.645425826309999146e-02,-2.463206276299999969e-02,-7.597522810100000752e-03,1.000000000000000000e+00
2.405058979000000097e+00,-2.839768668140000063e+00,4.743403902629999558e-01,-9.431838197719999428e+00,-1.810815744100000013e-02,-2.708554267879999602e-02,1.093871146439999963e-02,1.000000000000000000e+00
2.410048671000000198e+00,-2.736877617990000289e+00,4.293735596809999389e-01,-9.369591877170000416e+00,-1.740563474600000105e-02,-2.884403057399999651e-02,2.065842784940000176e-02,1.000000000000000000e+00
2.415043997999999803e+00,-2.696980491879999775e+00,3.983541520390000423e-01,-9.380123792570000063e+00,-2.124582789840000208e-02,-2.356149815020000191e-02,1.037307456139999889e-02,1.000000000000000000e+00
2.420015853999999855e+00,-2.685504281359999634e+00,3.293719838909999753e-01,-9.359554467280000623e+00,-2.550397068259999470e-02,-2.914724126459999898e-02,1.871342770759999719e-02,1.000000000000000000e+00
2.425011792999999916e+00,-2.576889008340000231e+00,3.574314092159999734e-01,-9.383512265969999433e+00,-4.148520529270000035e-02,-2.618451230229999760e-02,1.152490824460000035e-02,1.000000000000000000e+00
2.430010014000000051e+00,-2.677207285399999748e+00,3.397065500970000151e-01,-9.395875488460001534e+00,-2.702405303720000276e-02,-3.463348373769999794e-02,2.360306121409999625e-02,1.000000000000000000e+00
2.435179898999999981e+00,-2.617515910019999836e+00,3.531317027279999854e-01,-9.349909271569998737e+00,-4.713599383830000683e-02,-5.786476656790000284e-02,1.336947083470000144e-02,1.000000000000000000e+00
2.440198973999999854e+00,-2.735595761479999943e+00,3.256905919649999981e-01,-9.377105321539998428e+00,-5.294279381630000864e-02,-5.204220488669999978e-02,4.172976687550000036e-02,1.000000000000000000e+00
2.445069848000000157e+00,-2.715002178519999809e+00,5.376578471809999593e-01,-9.372214626879999955e+00,-4.401468858120000105e-02,-7.418183237310001232e-02,3.085093386470000310e-02,1.000000000000000000e+00
2.450064203999999801e+00,-2.705852949649999672e+00,6.468781003560000187e-01,-9.395718252070000887e+00,-3.084509447220000131e-02,-7.751639187339999515e-02,1.616736128929999877e-02,1.000000000000000000e+00
2.455048344999999799e+00,-2.862834778690000359e+00,6.838028595849999780e-01,-9.430116780749999705e+00,-4.802491888399999798e-02,-8.194950968030000060e-02,3.176891058679999491e-02,1.000000000000000000e+00
2.460068458999999930e+00,-2.846585362419999932e+00,7.017100530009999781e-01,-9.417481755589998116e+00,-2.547900006180000079e-02,-9.224633127450000691e-02,4.535795003180000118e-02,1.000000000000000000e+00
2.465043140000000133e+00,-2.928337178430000076e+00,7.166596387209999142e-01,-9.404636302540000159e+00,-1.331297121939999974e-02,-8.555370569229998889e-02,2.022356539959999783e-02,1.000000000000000000e+00
2.470015345999999834e+00,-2.901772119849999942e+00,6.201971603100000507e-01,-9.382586967820000012e+00,-2.323833759869999797e-03,-1.029520034789999927e-01,2.532833814619999888e-02,1.000000000000000000e+00
2.475215792000000192e+00,-2.835556603399999709e+00,4.892185547150000313e-01,-9.377189492689998573e+00,1.119462680070000028e-02,-8.643073588610000746e-02,2.303263545040000124e-02,1.000000000000000000e+00
2.480061914999999839e+00,-2.874935258590000320e+00,4.110613291279999748e-01,-9.345050141110000652e+00,7.089935708790000117e-03,-8.307839185000000237e-02,3.106753341849999989e-02,1.000000000000000000e+00
2.485064681999999969e+00,-2.753889835319999868e+00,4.166179768739999845e-01,-9.352519746329999606e+00,2.289164345709999906e-03,-7.444395869969999691e-02,2.377816662190000013e-02,1.000000000000000000e+00
2.490107517000000215e+00,-2.821032111229999639e+00,4.926683663759999776e-01,-9.381458256050001054e+00,2.153439261020000106e-02,-9.509913623330000509e-02,2.569328807290000363e-02,1.000000000000000000e+00
2.495035836000000007e+00,-2.751459393309999779e+00,5.293521929869999809e-01,-9.370888346719999262e+00,8.268925361340001209e-03,-1.145099699499999985e-01,3.213280066850000144e-02,1.000000000000000000e+00
2.500041989000000076e+00,-2.682178644069999951e+00,5.731409197010000067e-01,-9.363950656410001017e+00,6.936927791680000052e-03,-1.025145277380000025e-01,4.326495900749999929e-02,1.000000000000000000e+00
2.505011737999999877e+00,-2.590841545850000038e+00,5.537049092820000018e-01,-9.383616310860000809e+00,-2.930802293120000315e-04,-1.200940608979999963e-01,4.121451079849999810e-02,1.000000000000000000e+00
2.510229809000000145e+00,-2.664889947879999887e+00,5.344377160909999924e-01,-9.443228775780001527e+00,7.636847440149999340e-03,-1.224544048310000077e-01,3.701891005039999877e-02,1.000000000000000000e+00
2.515054063000000006e+00,-2.744499198899999826e+00,5.027140326369999856e-01,-9.433348602280000605e+00,1.369008701290000060e-02,-1.372157931330000025e-01,2.986422739919999958e-02,1.000000000000000000e+00
2.520011623999999895e+00,-2.700899418890000181e+00,5.723975905200000547e-01,-9.319319487519999612e+00,5.505637731399999450e-03,-1.531243026259999918e-01,4.211949929589999669e-02,1.000000000000000000e+00
2.525069284999999830e+00,-2.586014271820000321e+00,5.875421142910000061e-01,-9.344131857220000725e+00,5.100475624199999995e-03,-1.711645275349999995e-01,1.054951362310000036e-02,1.000000000000000000e+00
2.530013878000000105e+00,-2.662497207519999964e+00,6.085701066090000166e-01,-9.386184115529999872e+00,1.086663175369999984e-02,-1.761662364009999870e-01,2.053408324720000164e-02,1.000000000000000000e+00
2.535111414999999813e+00,-2.592272163170000088e+00,4.241255394929999700e-01,-9.377745372999999773e+00,8.827515877780000783e-03,-1.693874448539999800e-01,1.637914590539999923e-02,1.000000000000000000e+00
2.540100279999999877e+00,-2.479147303770000033e+00,1.684157165260000144e-01,-9.466251923979999816e+00,3.755231946709999824e-02,-2.058716714380000035e-01,1.152721419929999928e-02,1.000000000000000000e+00
2.545052316000000037e+00,-2.440810558859999979e+00,5.349820612340000503e-02,-9.534552722260000834e+00,3.473260998730000326e-02,-2.130315601830000127e-01,6.844107527289999306e-03,1.000000000000000000e+00
2.550056238999999891e+00,-2.607153798220000152e+00,3.462123152610000476e-01,-9.573584755969999804e+00,1.633854210379999741e-02,-2.606709301469999907e-01,2.357088588180000083e-02,1.000000000000000000e+00
2.555221607000000006e+00,-2.681544437819999960e+00,6.142410283850000541e-01,-9.564533434510000376e+00,2.460599131879999749e-02,-2.692368328570000080e-01,3.226491808890000201e-02,1.000000000000000000e+00
2.560251284000000016e+00,-2.826564903170000420e+00,8.713676776129999357e-01,-9.620423079510000974e+00,1.477096136660000121e-02,-3.077637851239999889e-01,1.700461283330000073e-02,1.000000000000000000e+00
2.565282255000000067e+00,-2.911066894679999795e+00,8.603345346849999853e-01,-9.540245380950000964e+00,5.476372316479999509e-03,-3.245242536069999906e-01,2.112624607979999777e-02,1.000000000000000000e+00
2.570110269000000169e+00,-2.920575604520000201e+00,7.748993539830000277e-01,-9.540334228269999883e+00,4.637821391219999756e-02,-3.110316097740000174e-01,6.129401735959999573e-04,1.000000000000000000e+00
2.575100388000000073e+00,-2.994218056090000246e+00,6.611500790759999857e-01,-9.502801493219999784e+00,6.262212991709999177e-02,-3.299010992049999924e-01,1.541526988150000070e-03,1.000000000000000000e+00
2.580088270000000072e+00,-3.165501382209999548e+00,6.806034790209999352e-01,-9.519778346980000805e+00,9.530918300150000022e-02,-3.175911903379999845e-01,8.714238181709998629e-03,1.000000000000000000e+00
2.585265752999999833e+00,-3.045381841619999808e+00,6.156654351650000523e-01,-9.560385082659999867e+00,9.086475521330000804e-02,-3.427791297439999885e-01,5.372463259850000089e-03,1.000000000000000000e+00
2.590073177999999920e+00,-2.854248444390000028e+00,4.485070069569999651e-01,-9.703525141089999195e+00,8.321230113510000304e-02,-3.661604225639999433e-01,-1.211639307439999966e-02,1.000000000000000000e+00
2.595092165000000062e+00,-2.791382822890000170e+00,5.502908265220000095e-01,-9.718116561020000432e+00,8.884008228779999294e-02,-3.783324062820000444e-01,-7.128013297920000185e-03,1.000000000000000000e+00
2.600198301999999906e+00,-2.878282815449999976e+00,6.049630950930000584e-01,-9.640664488029999646e+00,8.803030848500000005e-02,-4.078990817070000108e-01,-2.549235709009999712e-02,1.000000000000000000e+00
2.605074166000000080e+00,-3.007763474110000335e+00,4.799525310570000314e-01,-9.559233574530001221e+00,9.832788258789999791e-02,-4.245120584960000443e-01,-2.995657920840000266e-02,1.000000000000000000e+00
2.610111176999999838e+00,-3.031280543289999851e+00,4.546516106600000939e-01,-9.615006315160000483e+00,1.104122400280000138e-01,-4.471030235289999988e-01,-4.522408917550000546e-02,1.000000000000000000e+00
2.615132201999999850e+00,-3.062979749890000214e+00,4.082456506520000250e-01,-9.605910570029999818e+00,1.381792575119999977e-01,-4.730220735069999849e-01,-3.063386306170000351e-02,1.000000000000000000e+00
2.620246674000000109e+00,-2.761311217499999859e+00,4.216203517390000322e-01,-9.868306537969999681e+00,1.261720806359999947e-01,-4.912280440330000220e-01,-2.664910256859999785e-02,1.000000000000000000e+00
2.625151391000000167e+00,-2.700546367670000336e+00,5.516989032210000143e-01,-9.939610025200000365e+00,1.319347023959999976e-01,-5.113479495049999546e-01,-3.308014571670000320e-02,1.000000000000000000e+00
2.630099023000000091e+00,-2.999882073209999778e+00,4.702361332819999795e-01,-9.831762229419998889e+00,1.202953457829999961e-01,-5.419849157330000056e-01,-9.862177073959999332e-03,1.000000000000000000e+00
2.635084035999999852e+00,-3.029878275279999755e+00,6.213607972619999975e-01,-9.863494753770000401e+00,1.108787059779999945e-01,-6.082186102869999722e-01,-1.919656619429999794e-02,1.000000000000000000e+00
2.640071293000000097e+00,-2.909944612649999929e+00,6.311345877800000892e-01,-9.896279417520000621e+00,1.109248474239999949e-01,-6.731942296030000161e-01,2.847311552610000233e-03,0.000000000000000000e+00
2.645026977000000112e+00,-2.824249611970000462e+00,7.835944093529999543e-01,-9.996139137150001019e+00,1.317746639250000074e-01,-6.861340403560001189e-01,-2.427772618830000180e-03,0.000000000000000000e+00
2.650220000000000020e+00,-2.730436186759999995e+00,7.011098951509999733e-01,-1.010649336280000021e+01,1.638220250610000206e-01,-7.087613344190000220e-01,2.785082533959999662e-02,0.000000000000000000e+00
2.655076086999999863e+00,-2.737931218690000001e+00,6.348040700729999930e-01,-1.022868298769999917e+01,1.966500729320000140e-01,-7.498073577880000062e-01,3.758616372940000450e-02,0.000000000000000000e+00
2.660255368000000065e+00,-2.808396501540000312e+00,5.860839879039999589e-01,-1.026065282789999955e+01,2.463392764329999929e-01,-8.035821318629999821e-01,3.721322491769999546e-02,0.000000000000000000e+00
2.665091969000000116e+00,-2.983125584190000179e+00,4.852156026839999914e-01,-1.029161378330000076e+01,2.967613339419999940e-01,-8.831690549850000904e-01,5.464577302339999887e-02,0.000000000000000000e+00
2.670064711999999840e+00,-2.860828699559999855e+00,5.005875420019999522e-01,-1.039841177779999981e+01,2.838995456699999753e-01,-9.251724481579999271e-01,6.071237102149999731e-02,0.000000000000000000e+00
2.675038751000000214e+00,-2.744385217140000055e+00,5.114749928499999765e-01,-1.074519224839999865e+01,3.070657551289999732e-01,-1.006180763239999942e+00,6.246243044730000193e-02,0.000000000000000000e+00
2.680011577000000145e+00,-2.762529653370000116e+00,5.878829636179999651e-01,-1.099232225809999974e+01,3.366083502769999791e-01,-1.066325902940000070e+00,6.740801781419999972e-02,0.000000000000000000e+00
2.685270673000000219e+00,-2.453215866919999932e+00,6.216316500930000322e-01,-1.121803070960000070e+01,3.462809026240000199e-01,-1.122484207150000080e+00,8.162318170070000101e-02,0.000000000000000000e+00
2.690068526000000126e+00,-2.244949548579999732e+00,5.461265099169999582e-01,-1.190901975440000093e+01,3.864033222199999562e-01,-1.204045414920000168e+00,6.608201563359999975e-02,0.000000000000000000e+00
2.695252501000000134e+00,-2.260866956420000129e+00,5.821051108679999864e-01,-1.255180678599999844e+01,3.967862129209999700e-01,-1.337788224220000100e+00,7.222742587329999964e-02,0.000000000000000000e+00
2.700096810999999875e+00,-1.663686076170000083e+00,6.811901928679999774e-01,-1.255558045939999978e+01,3.823576271530000348e-01,-1.507073879240000025e+00,5.871115624900000163e-02,0.000000000000000000e+00
2.705086640999999847e+00,-1.609928036369999926e+00,3.128529568969999897e-01,-1.251110769589999983e+01,3.632025420669999782e-01,-1.705473899839999863e+00,1.959535479550000153e-02,0.000000000000000000e+00
2.710245124000000061e+00,-1.667429208219999959e+00,-1.320055009570000014e-02,-1.268175301640000185e+01,3.585136234759999652e-01,-1.891160607340000244e+00,-7.780639454720000153e-03,0.000000000000000000e+00
2.715070374000000175e+00,-1.978428901929999872e+00,-2.649808698599999679e-01,-1.274511402019999906e+01,3.653143644330000273e-01,-2.093347311020000046e+00,-5.713928025220000630e-03,0.000000000000000000e+00
2.720247990999999921e+00,-1.899923812759999997e+00,-4.802899463180000383e-01,-1.300483930759999929e+01,3.223828375340000441e-01,-2.321018695829999867e+00,-1.753030531109999943e-02,0.000000000000000000e+00
2.725096632000000074e+00,-1.608799324600000080e+00,4.896639421289999961e-02,-1.289957743660000133e+01,3.218093514440000247e-01,-2.501698970790000143e+00,-3.682409226890000220e-02,0.000000000000000000e+00
2.730107133999999824e+00,-1.287109163910000076e+00,2.000258018039999808e-01,-1.305800508059999920e+01,3.058572411540000369e-01,-2.751289129259999910e+00,-7.026892155410001395e-02,0.000000000000000000e+00
2.735083032999999997e+00,-1.217067221049999981e+00,-1.329454669550000079e-01,-1.327945119849999855e+01,3.165335357190000032e-01,-2.940180063249999698e+00,-7.959394901989999549e-02,0.000000000000000000e+00
2.740207626000000118e+00,-1.163456626889999956e+00,-4.124669581419999620e-01,-1.315819797770000044e+01,3.669288754460000024e-01,-3.169949054719999992e+00,-1.301711052660000090e-01,0.000000000000000000e+00
2.745264221999999865e+00,-1.157883795189999843e+00,-9.569986000819999949e-01,-1.352756437410000068e+01,3.715392649170000117e-01,-3.431157112120000185e+00,-1.567091643810000212e-01,0.000000000000000000e+00
2.750257155999999981e+00,-1.236049423279999893e+00,-1.879179861540000163e+00,-1.360652392900000152e+01,3.273659646510000409e-01,-3.688914775849999828e+00,-1.805942058560000008e-01,0.000000000000000000e+00
2.755246572999999977e+00,-9.225834855879999630e-01,-1.542164852089999982e+00,-1.367845986890000098e+01,2.497830539939999983e-01,-3.964224100109999593e+00,-1.597203463319999961e-01,0.000000000000000000e+00
2.760248552999999827e+00,-7.285755558339999105e-01,-1.136857885239999977e+00,-1.349275258839999836e+01,1.423889994620000099e-01,-4.262837886809999866e+00,-1.218125298619999880e-01,0.000000000000000000e+00
2.765284590999999903e+00,-6.408138318810000511e-01,-1.355834763490000094e+00,-1.369860833849999970e+01,3.298673033709999952e-02,-4.528565883639999790e+00,-1.314825937149999811e-02,0.000000000000000000e+00
2.770100342000000104e+00,-1.015406511520000166e+00,-1.908719698149999866e+00,-1.330381757800000031e+01,3.031110949809999802e-02,-4.795489311219999884e+00,7.843535393480000062e-02,0.000000000000000000e+00
2.775089621999999867e+00,-1.319059861060000172e+00,-1.979669403519999982e+00,-1.310041448180000145e+01,1.968634314840000260e-02,-5.084284305569999773e+00,1.921617537739999937e-01,0.000000000000000000e+00
2.780101147999999966e+00,-2.168562912859999692e+00,-2.071204946920000012e+00,-1.305106212960000001e+01,-2.117785438899999831e-02,-5.342062473299999503e+00,2.992198467250000160e-01,0.000000000000000000e+00
2.785022504000000065e+00,-2.214490697430000044e+00,-1.666024455990000153e+00,-1.312052437290000029e+01,-5.349248647689999747e-02,-5.653056621549999328e+00,4.227406382560000009e-01,0.000000000000000000e+00
2.790050073999999825e+00,-3.028903877290000324e+00,-7.184608429250000095e-01,-1.297360947209999971e+01,-3.754429891709999689e-02,-5.950619697569999644e+00,5.440594553950000023e-01,0.000000000000000000e+00
2.795032147000000133e+00,-4.152854130959999779e+00,-8.049226267270000179e-02,-1.326316641859999912e+01,6.067607924340000236e-02,-6.198734760279999811e+00,6.649441719059999700e-01,0.000000000000000000e+00
2.800032900000000158e+00,-5.753275941710000119e+00,-2.909247643360000080e-01,-1.324468266749999934e+01,2.927682101729999764e-01,-6.311998367309999303e+00,7.641794681550000412e-01,0.000000000000000000e+00
2.805193533000000183e+00,-8.041625948340000107e+00,-1.325739046560000078e+00,-1.299791739940000035e+01,5.856835246089999725e-01,-6.413487434390000352e+00,8.064648509029999079e-01,0.000000000000000000e+00
2.810229640999999834e+00,-9.906997210889999295e+00,-1.118634465480000006e+00,-1.342475983309999954e+01,8.645560145379999062e-01,-6.356256008150000802e+00,9.036337733270000117e-01,0.000000000000000000e+00
2.815217796000000217e+00,-1.124719367570000017e+01,-9.024800973010000948e-01,-1.375826347349999956e+01,9.567992687230000293e-01,-6.302865982059999261e+00,9.754445552830000032e-01,0.000000000000000000e+00
2.820245364999999893e+00,-1.120231408499999937e+01,-1.563472574660000003e+00,-1.276291037359999869e+01,8.598285913469999597e-01,-6.231698989869999927e+00,1.016603231429999976e+00,0.000000000000000000e+00
2.825283584000000126e+00,-1.172542142880000071e+01,-1.995585788440000119e+00,-1.159225915910000104e+01,6.981517672539999664e-01,-6.043963432309999106e+00,1.118349313740000017e+00,0.000000000000000000e+00
2.830102035999999988e+00,-1.066888291570000113e+01,-1.645819872350000157e+00,-1.104236200799999956e+01,5.011519789699999672e-01,-5.819195747380000228e+00,1.174252033229999936e+00,0.000000000000000000e+00
2.835100916000000026e+00,-1.014036523730000106e+01,-2.018276782070000053e+00,-1.095539567219999988e+01,3.732369542119999828e-01,-5.600055217740000479e+00,1.252287983890000067e+00,0.000000000000000000e+00
2.840207460999999878e+00,-1.024197618450000036e+01,-1.781551992619999858e+00,-1.078157522890000131e+01,2.948044538500000367e-01,-5.385894775390000611e+00,1.245048522950000125e+00,0.000000000000000000e+00
2.845250233999999878e+00,-9.474174533670000287e+00,-1.839224867780000050e+00,-1.012771033830000000e+01,4.113726019860000083e-01,-5.193634510039999874e+00,1.213551640509999974e+00,0.000000000000000000e+00
2.850110610000000211e+00,-1.205993979920000037e+01,-6.050865753419999438e-01,-1.217793021880000026e+01,6.446337103839999694e-01,-5.029318809509999433e+00,1.217608451840000106e+00,0.000000000000000000e+00
2.855084816000000192e+00,-1.198838847460000068e+01,-7.955080614439999920e-01,-1.107664070969999948e+01,8.144242763519999873e-01,-4.830470085139999981e+00,1.361674785609999994e+00,0.000000000000000000e+00
2.860245871000000051e+00,-8.123166167429999973e+00,-3.772544827239999732e-01,-1.171683246420000124e+01,1.035911083220000029e+00,-4.619165897370000273e+00,1.504364252090000020e+00,0.000000000000000000e+00
2.865065673000000146e+00,-4.470087896759999957e+00,-5.967430002910000253e-01,-1.278575115099999948e+01,1.160136699679999994e+00,-4.561165332790000804e+00,1.600295901299999990e+00,0.000000000000000000e+00
2.870084353000000199e+00,-4.442971634030000949e+00,-1.560290437489999738e+00,-1.294167704119999840e+01,1.172882318499999910e+00,-4.730715751650000023e+00,1.680324316019999875e+00,0.000000000000000000e+00
2.875086892000000116e+00,-4.602255602539999657e+00,-2.753034972059999586e+00,-9.291656989089998930e+00,1.064235210420000133e+00,-4.765164852139999851e+00,1.735104918479999814e+00,0.000000000000000000e+00
2.880251922999999881e+00,-6.723811995690000209e+00,-2.767461264559999634e+00,-4.365892778269999219e+00,9.385094642640000595e-01,-4.617316246030000570e+00,1.853030920029999917e+00,0.000000000000000000e+00
2.885093211000000046e+00,-7.311278706649999570e+00,-2.055664847959999708e+00,-5.628714911540000365e-01,8.912295699119999748e-01,-4.169562816619999168e+00,1.962204456329999847e+00,0.000000000000000000e+00
2.890247619999999795e+00,-4.831548926820000034e+00,-6.243287802220000016e-01,-2.670120834270000021e-01,9.147158861159999654e-01,-3.353178501129999933e+00,2.102619409559999486e+00,0.000000000000000000e+00
2.895255661999999841e+00,4.046053798410000013e+00,1.335558575910000156e+00,-3.866072786569999309e+00,1.010914444920000044e+00,-2.337506294250000227e+00,2.279175043109999965e+00,0.000000000000000000e+00
2.900091382999999912e+00,7.394652570910000833e+00,4.136992837219999331e+00,-7.240814592849999620e+00,1.167280316350000069e+00,-1.682762145999999959e+00,2.468801736830000149e+00,0.000000000000000000e+00
2.905166890999999918e+00,2.305587264900000211e+00,4.027949986440000352e+00,-7.427955705580000512e+00,1.371626138689999941e+00,-1.356161355970000093e+00,2.595851659770000097e+00,0.000000000000000000e+00
2.910253469000000148e+00,-5.553252551049999930e+00,1.673704050710000057e+00,-6.504236347830000042e+00,1.580414175990000114e+00,-1.624905586239999922e+00,2.667661190030000018e+00,0.000000000000000000e+00
2.915093001999999878e+00,-1.116315930170000037e+01,9.163890148620000842e-01,-1.045743913629999966e+01,1.908298611640000031e+00,-1.540668487549999854e+00,2.878319263459999444e+00,0.000000000000000000e+00
2.920083500000000054e+00,-9.122470635250000015e+00,2.325773728359999737e+00,-1.101287287869999965e+01,2.206836938859999986e+00,-1.240431785580000001e+00,2.901769638059999767e+00,0.000000000000000000e+00
2.925074058999999949e+00,-3.247012082949999989e+00,2.401781886150000211e+00,-1.051352751880000014e+01,2.445192813869999870e+00,-4.597848057750000272e-01,2.760168313979999954e+00,0.000000000000000000e+00
2.930241383999999893e+00,-1.199486994559999964e+00,3.404160500730000205e+00,-8.741079454580001240e+00,2.650918722150000129e+00,7.219622731209999200e-01,2.634618043899999762e+00,0.000000000000000000e+00
