t,ax,ay,az,wx,wy,wz,zv
4.982613999999999793e-03,-2.506258305800000308e+00,7.786195983489999084e-02,-9.489729245669998647e+00,-1.619076915090000152e-02,-3.293277230110000335e-03,8.411025628449999431e-03,1.000000000000000000e+00
1.022205600000000020e-02,-2.460933893950000062e+00,1.015616281809999938e-01,-9.481660505510001613e+00,-1.018853276040000005e-03,1.992724835870000183e-02,1.195215340699999976e-02,1.000000000000000000e+00
1.527300699999999990e-02,-2.436551440109999689e+00,1.291309136350000109e-01,-9.454611755060000178e+00,5.220007151369999467e-03,6.372574716810000452e-04,6.373910233380000213e-03,1.000000000000000000e+00
2.027691699999999847e-02,-2.478645783990000240e+00,6.945283613360000996e-02,-9.491416760369999039e+00,-6.103379186239999039e-03,1.456680335099999959e-02,5.854624323550000273e-03,1.000000000000000000e+00
2.532692599999999961e-02,-2.472878014249999978e+00,1.039793842469999979e-01,-9.492525013869999029e+00,-7.245735265310000207e-03,1.029358524829999955e-02,-3.424369264389999935e-03,1.000000000000000000e+00
3.034164099999999906e-02,-2.438812663040000217e+00,1.158589788040000068e-01,-9.474892911070000423e+00,-1.985075697300000067e-02,-3.766329726199999558e-03,-6.157894153150000188e-03,1.000000000000000000e+00
3.529854500000000062e-02,-2.472907824859999604e+00,1.301701113570000179e-01,-9.476934061510000618e+00,1.495014876129999951e-03,2.161411568519999975e-03,6.767443846910000402e-04,1.000000000000000000e+00
4.016695900000000208e-02,-2.481191669079999773e+00,9.207102938610001175e-02,-9.493661324430000548e+00,-3.545699641109999970e-03,-6.625938694919999419e-04,-3.853361587969999537e-03,1.000000000000000000e+00
4.535958999999999824e-02,-2.456876435259999880e+00,9.194372234510000963e-02,-9.493515193949999542e+00,-1.305434759710000052e-02,-6.972050294280000143e-03,-2.480102237309999864e-03,1.000000000000000000e+00
5.029402699999999810e-02,-2.508399409479999953e+00,1.109446110160000054e-01,-9.508364972560000794e+00,5.812938907179999873e-04,4.246705211699999469e-03,1.126798987389999833e-02,1.000000000000000000e+00
5.528423699999999996e-02,-2.480174893259999624e+00,1.183971007129999975e-01,-9.479270395500000390e+00,-1.914214575659999940e-03,-2.447532257069999929e-03,1.576088136059999867e-03,1.000000000000000000e+00
6.032177200000000267e-02,-2.500167295449999827e+00,7.418848178680000072e-02,-9.503875259930000041e+00,8.771501481530000893e-03,1.126485876740000031e-03,-1.508942805230000070e-04,1.000000000000000000e+00
6.535496200000000255e-02,-2.448857087189999948e+00,9.429836831299999445e-02,-9.499288516660000070e+00,4.028168623339999565e-04,-4.058266989890000308e-03,-6.515646819030000009e-03,1.000000000000000000e+00
7.032121700000000530e-02,-2.513015086590000280e+00,1.457371074559999924e-01,-9.480707150309999776e+00,-7.858443073930000689e-03,1.459511928259999911e-02,1.370208105069999939e-03,1.000000000000000000e+00
7.516062900000000657e-02,-2.497661157850000091e+00,7.886101734219999604e-02,-9.515700722280000079e+00,-7.117830216880000407e-03,7.867265492680000985e-03,-4.053252749150000091e-03,1.000000000000000000e+00
8.016449600000000175e-02,-2.481098437840000059e+00,1.100544481099999944e-01,-9.469308388940000043e+00,1.222886843609999850e-03,9.196734055880000092e-03,1.312895910809999808e-03,1.000000000000000000e+00
8.524783700000000686e-02,-2.492908994880000062e+00,9.693156636080001165e-02,-9.481770395619999903e+00,-1.332197524609999954e-02,2.452112734320000334e-02,2.815994201229999726e-03,1.000000000000000000e+00
9.012005600000000394e-02,-2.454652621729999762e+00,1.159702206260000007e-01,-9.472932424650000627e+00,-3.853869391610000288e-03,1.954404823480000025e-02,-5.256613716479999719e-03,1.000000000000000000e+00
9.517535300000000420e-02,-2.471540628159999642e+00,1.123746803520000032e-01,-9.477571190369999954e+00,1.068132929500000168e-02,-6.295199971649999629e-03,-6.587210111320000554e-03,1.000000000000000000e+00
1.002758750000000004e-01,-2.466429568759999746e+00,1.027965402710000059e-01,-9.496269461100000697e+00,5.060646682979999186e-03,-1.052490994329999957e-02,-1.611821912229999959e-02,1.000000000000000000e+00
1.053416360000000024e-01,-2.511889881949999737e+00,8.717455344820000673e-02,-9.506285828200001120e+00,6.879267282780000478e-03,-9.358827024700000843e-03,7.756594568489999335e-03,1.000000000000000000e+00
1.102909339999999933e-01,-2.441198681390000402e+00,1.219690591819999892e-01,-9.466007593829999678e+00,7.915609166960001046e-04,-6.252021528779998921e-03,2.642231294890000099e-03,1.000000000000000000e+00
1.152911999999999965e-01,-2.449055240109999865e+00,8.139955937649999418e-02,-9.487871050589998134e+00,-4.519340582189999497e-03,9.400570765140000423e-03,-7.371277548370000314e-03,1.000000000000000000e+00
1.201294849999999942e-01,-2.482457743499999925e+00,1.027011718710000021e-01,-9.503332239089999689e+00,3.023309167469999306e-03,1.296138577160000152e-02,-3.859964665029999836e-03,1.000000000000000000e+00
1.251566709999999971e-01,-2.482206691350000050e+00,8.744257500100000025e-02,-9.478270278550001038e+00,-8.031504228710000665e-03,9.214200545100000809e-04,1.261679688469999902e-03,1.000000000000000000e+00
1.302866249999999892e-01,-2.474998075140000253e+00,1.305951683690000087e-01,-9.439272147110001399e+00,3.667441196739999743e-03,7.942321710289999143e-03,3.729182062669999988e-03,1.000000000000000000e+00
1.352956389999999953e-01,-2.529846686659999566e+00,1.364318934319999899e-01,-9.466897236139999450e+00,-9.287498891350000688e-03,-2.956183161590000092e-04,1.587017439310000125e-02,1.000000000000000000e+00
1.402039230000000081e-01,-2.496708971690000389e+00,8.036664526539999409e-02,-9.495570372919999613e+00,6.062657572330000175e-03,1.199785806240000023e-02,-1.587244099940000094e-03,1.000000000000000000e+00
1.453360429999999981e-01,-2.457808163150000169e+00,9.452288865070000712e-02,-9.479845565039999755e+00,-4.571669269350000196e-03,-7.892921566960000440e-03,-2.748648403210000347e-03,1.000000000000000000e+00
1.502722979999999986e-01,-2.497274204360000027e+00,1.064496559510000051e-01,-9.491941661030001143e+00,7.861302583480000127e-04,-2.733687637369999930e-03,-3.228565212340000264e-03,1.000000000000000000e+00
1.552515700000000054e-01,-2.460452832440000126e+00,1.196791307469999982e-01,-9.459726321599999821e+00,-9.795674122869998772e-04,1.758519187570000211e-02,-3.414439503100000044e-03,1.000000000000000000e+00
1.602877759999999929e-01,-2.455183075339999910e+00,1.088122112309999889e-01,-9.472025831199999857e+00,6.152838468549999898e-03,1.778622902929999708e-02,1.537524396550000051e-03,1.000000000000000000e+00
1.652068740000000036e-01,-2.426661768129999786e+00,7.195277232369999554e-02,-9.466092934019998850e+00,5.128162447359999217e-03,5.565878003840001031e-03,-2.859307918699999489e-03,1.000000000000000000e+00
1.701210639999999885e-01,-2.503569212850000003e+00,9.330033371899999761e-02,-9.490118537249999875e+00,1.912418054420000121e-03,-3.541101934389999893e-03,1.135647948829999858e-02,1.000000000000000000e+00
1.751309940000000120e-01,-2.374595042409999746e+00,8.386342873939998943e-02,-9.462710305850000836e+00,1.367718446999999921e-02,2.559120766820000090e-03,-1.765309460459999619e-02,1.000000000000000000e+00
1.802856340000000002e-01,-2.463658350479999815e+00,1.108081982200000010e-01,-9.515068269589999517e+00,-1.387589704249999993e-02,2.889250032599999934e-02,-6.922956556079999831e-03,1.000000000000000000e+00
1.852061419999999903e-01,-2.479930563109999930e+00,9.791457691569999122e-02,-9.499043601989999530e+00,5.633876658980000243e-03,1.451246254149999963e-02,4.698991775510000420e-03,1.000000000000000000e+00
1.901244480000000014e-01,-2.425443770640000274e+00,1.357776033750000000e-01,-9.517541381710000081e+00,5.817234632559999943e-04,5.987729877230000240e-03,-5.685293115680000418e-03,1.000000000000000000e+00
1.951539619999999864e-01,-2.442038200959999905e+00,1.488569930419999798e-01,-9.521011103639999362e+00,8.180192671720000128e-03,1.080247573549999920e-03,-1.116628665479999991e-02,1.000000000000000000e+00
2.002930749999999871e-01,-2.468048694390000186e+00,1.217129289970000083e-01,-9.492454286719999246e+00,3.147626761350000128e-03,3.449528012420000241e-03,1.311591593549999921e-03,1.000000000000000000e+00
2.053253170000000072e-01,-2.448880468070000038e+00,1.125145637470000015e-01,-9.463231114850000125e+00,7.157531101260000347e-03,7.965073920789999401e-03,-5.167976021770000206e-03,1.000000000000000000e+00
2.102240930000000008e-01,-2.462529054190000455e+00,1.088020825620000104e-01,-9.475445868779999614e+00,1.997244916859999830e-02,3.912511281670000285e-03,7.537938654419999631e-04,1.000000000000000000e+00
2.153312990000000038e-01,-2.468919924270000177e+00,8.818430587950000510e-02,-9.527352581629999762e+00,1.212270464749999957e-02,1.082803215829999943e-02,2.371454844250000041e-03,1.000000000000000000e+00
2.201825089999999985e-01,-2.450895461150000010e+00,1.075841033410000064e-01,-9.485682600630001460e+00,1.501474529499999960e-02,-1.275463495400000003e-03,-6.204176228489999105e-03,1.000000000000000000e+00
2.251822860000000093e-01,-2.502763741679999931e+00,8.503126694239999950e-02,-9.490741053069999822e+00,-2.190530067309999853e-04,-1.197699271139999848e-02,-1.337548252200000069e-03,1.000000000000000000e+00
2.303078789999999931e-01,-2.493922848099999978e+00,8.609565390399999407e-02,-9.501728311029999929e+00,1.152865681799999931e-02,-8.201223798100001558e-03,3.284570062529999952e-03,1.000000000000000000e+00
2.352508170000000010e-01,-2.458789575399999983e+00,9.937787266760000904e-02,-9.466883792139999088e+00,1.435547368600000040e-03,-1.004609744999999943e-02,4.793579690159999532e-03,1.000000000000000000e+00
2.402990479999999873e-01,-2.451044368099999815e+00,7.321802931949999982e-02,-9.474438737559999879e+00,1.103597460309999967e-03,-1.669023884459999978e-03,-8.243381977079999520e-03,1.000000000000000000e+00
2.453439550000000025e-01,-2.499879418419999944e+00,1.040711085179999995e-01,-9.480779046500000362e+00,2.841192297640000083e-03,1.047839689999999907e-02,6.305120885370000400e-03,1.000000000000000000e+00
2.502857299999999841e-01,-2.457387015129999686e+00,7.360548513389998659e-02,-9.429148227979998964e+00,-3.348512807860000353e-03,1.588684134190000014e-02,-2.819422632459999984e-03,1.000000000000000000e+00
2.551677500000000265e-01,-2.470207333729999899e+00,9.131616503129999507e-02,-9.449214279930000515e+00,5.782291409560000013e-04,1.742767635729999777e-04,-1.139145158230000024e-02,1.000000000000000000e+00
2.601289079999999920e-01,-2.486030049030000022e+00,9.972295064500000250e-02,-9.436401560110001085e+00,-3.324844408779999844e-03,1.475567556920000072e-02,-7.537586614490000315e-03,1.000000000000000000e+00
2.651777439999999930e-01,-2.492190909740000127e+00,7.564033826270000205e-02,-9.480811195199999375e+00,-1.317127794029999965e-02,1.576580293480000020e-02,-1.361471135170000055e-02,1.000000000000000000e+00
2.701360999999999901e-01,-2.485616792050000079e+00,3.161952439290000028e-02,-9.459415940479999563e+00,-1.239206828179999914e-02,1.641360111529999860e-02,4.686091095210000342e-03,1.000000000000000000e+00
2.751719559999999953e-01,-2.740867272140000033e+00,2.526900550210000040e-01,-9.746524324860001087e+00,-1.614931412039999695e-02,-1.870682695880000138e-03,-6.509563885630000220e-03,1.000000000000000000e+00
2.803411419999999876e-01,-2.122905615800000145e+00,-1.262997453299999906e-01,-9.441850473169999702e+00,-1.132802478970000061e-02,1.028096303340000038e-02,-2.251358143990000310e-02,1.000000000000000000e+00
2.852194339999999939e-01,-2.704283800629999845e+00,3.049311326559999702e-01,-9.588126491539998852e+00,-4.060870967809999954e-03,1.509341970089999978e-02,-1.266358699650000155e-02,1.000000000000000000e+00
2.901186660000000250e-01,-2.334743509019999941e+00,7.297477231519999830e-02,-9.445088724439999694e+00,4.397041164339999912e-03,1.563707180320000195e-02,-1.419059932229999911e-02,1.000000000000000000e+00
2.951516619999999813e-01,-2.507013215820000251e+00,1.862317610600000006e-01,-9.612308162119999722e+00,6.659692153329999781e-03,6.236739456649999756e-03,-1.005712896589999912e-03,1.000000000000000000e+00
3.001454949999999844e-01,-2.503545539709999712e+00,4.865567516269999476e-02,-9.447698614669999273e+00,1.305375155060000021e-02,1.498630829159999962e-02,-1.366732921449999999e-02,1.000000000000000000e+00
3.053934449999999856e-01,-2.491550273750000155e+00,1.182922429659999941e-01,-9.612903789920000719e+00,3.663325682280000467e-02,2.042013593019999934e-02,1.060225442049999960e-02,1.000000000000000000e+00
3.103166459999999738e-01,-2.468722648129999975e+00,9.207903002939998860e-02,-9.488123564039998570e+00,1.557682733980000032e-02,2.392763830719999915e-02,1.404210645710000059e-02,1.000000000000000000e+00
3.151962500000000111e-01,-2.447655456320000145e+00,1.081566790650000109e-01,-9.541640050179999832e+00,1.622865349050000086e-02,9.940788149829999851e-03,2.265642397109999748e-02,1.000000000000000000e+00
3.201600609999999958e-01,-2.456658993110000022e+00,1.241673638110000061e-01,-9.503039393619999942e+00,3.082422353329999920e-02,3.085084259509999951e-03,5.541810765859998995e-03,1.000000000000000000e+00
3.253535399999999966e-01,-2.481748426179999800e+00,1.600758312690000185e-01,-9.471491578189999316e+00,2.703152596950000180e-02,9.210971184069998915e-03,8.271377533670000448e-03,1.000000000000000000e+00
3.303110839999999770e-01,-2.478098379240000426e+00,2.078663227030000116e-01,-9.446808972360001277e+00,2.141976915299999978e-02,2.072877064350000034e-02,9.571251459419999677e-03,1.000000000000000000e+00
3.353268059999999773e-01,-2.424189532790000268e+00,1.191708524310000072e-01,-9.374308384289998131e+00,1.145396009090000021e-02,1.065916940570000096e-02,-7.755616679789999364e-04,1.000000000000000000e+00
3.403176809999999830e-01,-2.541549399410000021e+00,2.398733348769999940e-01,-9.487971003829999361e+00,2.556541934609999830e-02,1.161153428260000044e-02,-2.305181231349999818e-03,1.000000000000000000e+00
3.451911509999999739e-01,-2.410688392319999984e+00,-8.579885720630000753e-03,-9.412720824800000941e+00,1.850601658230000002e-02,2.163262851540000142e-02,7.138384971769999327e-04,1.000000000000000000e+00
3.502175820000000273e-01,-2.558211195879999789e+00,1.079934969930000099e-01,-9.476996605349999214e+00,4.199656844139999790e-02,1.070653274660000182e-02,-7.097672205419999552e-04,1.000000000000000000e+00
3.553098789999999951e-01,-2.436480566829999805e+00,1.639643608570000299e-02,-9.426283486200000894e+00,1.562991365790000059e-02,1.825560629369999896e-02,-8.265599608419999704e-04,1.000000000000000000e+00
3.603212000000000081e-01,-2.468870532169999965e+00,4.419685085669999847e-02,-9.526876196289999044e+00,7.391420658680000408e-03,1.389898918569999926e-02,-2.035515848550000124e-03,1.000000000000000000e+00
3.653800930000000169e-01,-2.446262686779999918e+00,4.567504278359999642e-02,-9.489030157489999340e+00,9.295895695690000599e-03,1.730240136379999905e-02,-9.214032441379998994e-03,1.000000000000000000e+00
3.701689790000000091e-01,-2.420321897580000048e+00,4.783813910159999405e-02,-9.490687861569998773e+00,1.129874121400000105e-02,1.584198698400000188e-02,-9.316338691860000460e-04,1.000000000000000000e+00
3.751734290000000027e-01,-2.404086802090000141e+00,4.411077087529999968e-02,-9.508587675399999384e+00,1.116967294370000037e-02,2.100572176279999828e-02,-3.714335616680000392e-04,1.000000000000000000e+00
3.801809910000000237e-01,-2.424050124320000332e+00,7.516173470770000364e-03,-9.483925527829999425e+00,-1.070198509839999888e-02,1.811164058740000193e-02,9.472912643099999468e-04,1.000000000000000000e+00
3.852273130000000156e-01,-2.398871259399999900e+00,3.593439648390000379e-02,-9.500704228680000085e+00,-4.967709537600000815e-03,7.172212004659999675e-03,-1.280200760810000157e-02,1.000000000000000000e+00
3.901348330000000142e-01,-2.440477673640000233e+00,-4.230565654039999610e-03,-9.464889403449999961e+00,5.044757388530000247e-03,1.415858976539999953e-02,-7.364589255300000269e-04,1.000000000000000000e+00
3.951118840000000243e-01,-2.386753243849999873e+00,-7.732293932110000101e-02,-9.514143555960000498e+00,4.299519932830000437e-04,2.384206838909999973e-02,-8.710050024089998656e-04,1.000000000000000000e+00
4.001175790000000010e-01,-2.342592322819999850e+00,-7.045287545510001137e-02,-9.529593054030000232e+00,1.511799870059999827e-03,1.445789262649999941e-02,-4.577347077429999751e-03,1.000000000000000000e+00
4.053452160000000082e-01,-2.388736818880000001e+00,-3.421415769569999960e-02,-9.482162609810000475e+00,-4.742375109339999791e-03,2.633676305410000140e-02,-5.130794830620000017e-03,1.000000000000000000e+00
4.103152649999999846e-01,-2.405159984279999996e+00,-8.746646733320000144e-02,-9.459654425409999234e+00,-2.907812129710000189e-03,1.824239455160000037e-02,-8.699401281770000396e-03,1.000000000000000000e+00
4.151802780000000137e-01,-2.406598200389999942e+00,-1.623749864729999914e-03,-9.442001864339998107e+00,-5.387717392300000845e-03,1.844882220029999895e-02,-1.812308281659999812e-02,1.000000000000000000e+00
4.201665500000000275e-01,-2.505590197279999654e+00,6.981732206450000366e-02,-9.448624497349999984e+00,-3.326880186799999889e-02,4.922186024489999707e-03,4.588696174319999155e-03,1.000000000000000000e+00
4.254153199999999857e-01,-2.494566406699999739e+00,-5.042673767260000446e-03,-9.447526180720000610e+00,-2.203697152440000154e-02,1.580801047380000005e-02,1.191642507909999871e-02,1.000000000000000000e+00
4.301835179999999870e-01,-2.448484746750000163e+00,-2.426715918600000008e-02,-9.451091764239999193e+00,-2.705033682290000283e-02,3.417767584320000052e-02,1.877084560690000029e-02,1.000000000000000000e+00
4.353361559999999741e-01,-2.394810293569999970e+00,-3.672892955369999775e-03,-9.526532497410000744e+00,-2.610054612159999968e-02,2.557512372729999969e-02,2.150238677859999878e-02,1.000000000000000000e+00
4.403194309999999834e-01,-2.425773294849999928e+00,6.863020377230000246e-02,-9.449942009689999978e+00,-1.685542054469999981e-02,3.641075640919999579e-02,2.669842541220000115e-02,1.000000000000000000e+00
4.453550250000000155e-01,-2.453343000429999865e+00,3.300258081569999724e-02,-9.451496253389999325e+00,4.813486710189999324e-03,1.317150332029999940e-02,3.589544072749999842e-02,1.000000000000000000e+00
4.503366320000000145e-01,-2.430401831440000215e+00,2.301364057709999814e-02,-9.500793660519999406e+00,-1.493589952589999964e-03,1.091772317890000142e-02,3.995514661070000140e-02,1.000000000000000000e+00
4.551624930000000013e-01,-2.380394814729999808e+00,8.587013805250000298e-02,-9.516009349830000019e+00,-1.615522988140000171e-02,1.165239140390000004e-02,2.632878720759999902e-02,1.000000000000000000e+00
4.601498450000000018e-01,-2.433963761699999839e+00,5.070101771950000225e-02,-9.460589660429999270e+00,-1.906147412959999926e-02,1.483300328249999994e-02,3.492638841269999489e-02,1.000000000000000000e+00
4.653659410000000052e-01,-2.420901304900000106e+00,2.350432158729999846e-02,-9.456947504540000438e+00,-5.745352245870000802e-04,1.296411827210000069e-02,1.834053173659999994e-02,1.000000000000000000e+00
4.702896560000000004e-01,-2.439633916290000037e+00,1.582981175390000064e-02,-9.498876428730000043e+00,2.125950064509999921e-03,1.317852735520000027e-02,3.620053827759999593e-02,1.000000000000000000e+00
4.751656439999999981e-01,-2.445363838250000033e+00,7.052860757239999556e-02,-9.519439908809999906e+00,-1.581906154749999904e-02,3.746372647579999590e-03,3.421898186209999804e-02,1.000000000000000000e+00
4.801701310000000000e-01,-2.338086243569999834e+00,3.333003637160000115e-02,-9.511572244169999024e+00,-5.836046766490000058e-03,2.183016948399999976e-02,3.337231650950000378e-02,1.000000000000000000e+00
4.852108620000000205e-01,-2.387380289699999825e+00,3.222221669349999845e-02,-9.534343463429999943e+00,-2.245812676849999901e-03,-5.474195349959999190e-04,1.795785874129999724e-02,1.000000000000000000e+00
4.901727869999999987e-01,-2.435978462530000055e+00,9.173415183969999692e-03,-9.452774018239999521e+00,7.070018327789999099e-04,1.423298381269999979e-04,2.236784435809999541e-02,1.000000000000000000e+00
4.951648830000000001e-01,-2.402163432820000111e+00,1.422713264750000151e-02,-9.538725624030000461e+00,-4.160591342950000155e-04,2.154503017660000085e-03,3.081099875270000218e-02,1.000000000000000000e+00
5.001777849999999859e-01,-2.442941141140000383e+00,4.901875915440000869e-02,-9.525563360119999601e+00,-9.284928091799998610e-04,-1.696301042099999804e-03,3.411925584080000018e-02,1.000000000000000000e+00
5.053263209999999672e-01,-2.421141105009999794e+00,4.977138246129999936e-03,-9.515467498039999583e+00,-5.476444028319999574e-03,-1.277174148710000061e-02,4.304996505380000171e-02,1.000000000000000000e+00
5.103124220000000433e-01,-2.365481761629999902e+00,8.012081499490000466e-03,-9.556321486479999905e+00,-1.889807172120000142e-02,-2.886530756949999901e-02,4.919934645299999659e-02,1.000000000000000000e+00
5.153259500000000326e-01,-2.337578001790000304e+00,6.690700127550000542e-02,-9.478535651489998770e+00,-8.134576492009999715e-03,-2.740214392540000349e-02,5.025554448369999594e-02,1.000000000000000000e+00
5.201865319999999793e-01,-2.343345625409999577e+00,1.282924626499999943e-01,-9.529315406130001165e+00,4.424501210449999396e-03,-4.189555346969999622e-02,5.835351347919999487e-02,1.000000000000000000e+00
5.253648109999999871e-01,-2.430412937350000302e+00,1.415726721200000204e-01,-9.550200373250000041e+00,-1.997856423260000076e-03,-3.028183057899999989e-02,5.723628774290000221e-02,1.000000000000000000e+00
5.302739060000000171e-01,-2.265489793920000050e+00,1.143858375109999964e-01,-9.469595973709999726e+00,-1.240317244080000030e-03,-4.591663181780000075e-02,4.695654287930000476e-02,1.000000000000000000e+00
5.353180579999999855e-01,-2.462722238670000063e+00,2.439532611340000101e-01,-9.545796000810000237e+00,1.361065777020000053e-03,-5.689333379269999325e-02,5.585007742049999391e-02,1.000000000000000000e+00
5.401407499999999473e-01,-2.305984447520000202e+00,6.322029841960000174e-02,-9.614379707689998611e+00,3.302061930300000114e-02,-7.153749465939999996e-02,5.950054526330000870e-02,1.000000000000000000e+00
5.453384110000000229e-01,-2.071422535190000414e+00,-2.203490616519999945e-01,-9.814662626060000505e+00,5.478622019290000505e-02,-1.063362583520000015e-01,1.020403280849999927e-01,1.000000000000000000e+00
5.502976499999999715e-01,-1.929987380979999889e+00,-4.189304185350000154e-01,-9.619918637119999616e+00,9.879474341870000953e-02,-1.473945826290000150e-01,1.339898407460000107e-01,1.000000000000000000e+00
5.552102450000000466e-01,-2.283208113700000208e+00,-2.690486855550000000e-01,-9.483551433819998877e+00,1.208025068040000094e-01,-2.193739712240000139e-01,1.749511063099999653e-01,1.000000000000000000e+00
5.601981489999999786e-01,-2.534237615099999896e+00,1.008441914939999934e-01,-9.476187042530000326e+00,1.221883371470000035e-01,-2.591812908650000247e-01,1.896611154080000139e-01,1.000000000000000000e+00
5.653737960000000395e-01,-2.720473887929999890e+00,4.790841872569999715e-01,-9.429722228480001078e+00,9.968864172700001025e-02,-2.795971333980000195e-01,1.903302520509999873e-01,1.000000000000000000e+00
5.703158769999999711e-01,-2.675712955190000297e+00,6.600067542600001058e-01,-9.435608363910001017e+00,8.014709502460000412e-02,-2.795484662059999903e-01,1.439844518900000037e-01,1.000000000000000000e+00
5.751312669999999461e-01,-2.705727861959999814e+00,5.234560110879999950e-01,-9.428391272140000723e+00,6.551793962719999753e-02,-1.817063093189999756e-01,8.718949556350000241e-02,1.000000000000000000e+00
5.801718150000000351e-01,-2.823814435420000102e+00,3.501534175700000140e-01,-9.389908689009999421e+00,7.658385485410000582e-02,-1.283419579270000110e-01,8.610855042929999037e-02,1.000000000000000000e+00
5.852162419999999976e-01,-2.647603005250000141e+00,2.360699788049999970e-01,-9.440827559860000662e+00,5.563481524590000588e-02,-7.794912904499999573e-02,8.626694232230000536e-02,1.000000000000000000e+00
5.901420990000000311e-01,-2.525124626570000252e+00,2.629532364900000196e-01,-9.579596563600000891e+00,5.799361690880000531e-02,-4.686514288189999600e-02,8.988142758610000171e-02,1.000000000000000000e+00
5.952071930000000233e-01,-2.384725245149999839e+00,3.504107533320000023e-01,-9.466233803799999791e+00,5.705522373319999591e-02,-8.772788941860001910e-02,7.281562685970000004e-02,1.000000000000000000e+00
6.001428779999999907e-01,-2.555392631329999720e+00,3.918828736659999978e-01,-9.394050026600000436e+00,6.406429409979999545e-02,-1.111000180240000051e-01,8.527751266960000021e-02,1.000000000000000000e+00
6.053644950000000025e-01,-2.586164786209999900e+00,2.871856691390000105e-01,-9.426935228110000509e+00,5.576209723949999281e-02,-1.174710243940000065e-01,7.592050731180000067e-02,1.000000000000000000e+00
6.101643169999999561e-01,-2.583672384870000283e+00,2.374565012599999803e-01,-9.417050962950000326e+00,7.416789233680000371e-02,-1.166697293519999984e-01,4.473521187900000168e-02,1.000000000000000000e+00
6.151443030000000034e-01,-2.556752813759999743e+00,2.836267893480000080e-01,-9.422381218069999065e+00,8.201763778920000136e-02,-8.910865336660001024e-02,2.457074820999999992e-02,1.000000000000000000e+00
6.201468119999999917e-01,-2.565117614270000068e+00,1.762445652540000074e-01,-9.443092582180000250e+00,7.368823885919999206e-02,-6.359911710019999775e-02,2.971546538170000140e-02,1.000000000000000000e+00
6.251923619999999460e-01,-2.623692260569999934e+00,7.926581701719999373e-02,-9.413661320519999265e+00,7.184495031830000211e-02,-5.104581266640000059e-02,2.126156166199999822e-02,1.000000000000000000e+00
6.302686760000000277e-01,-2.672370366760000060e+00,7.867829945279999904e-02,-9.350017408119999374e+00,5.465856567030000224e-02,-4.805797338489999765e-02,3.039737232030000069e-02,1.000000000000000000e+00
6.353092670000000108e-01,-2.586986623990000123e+00,1.179611935139999873e-01,-9.325543476600000048e+00,5.427858233450000291e-02,-5.740944296119999957e-02,2.197877876459999880e-02,1.000000000000000000e+00
6.403252780000000532e-01,-2.670935657779999861e+00,1.642474178649999950e-01,-9.355620050439998892e+00,4.732685536149999761e-02,-3.171771764759999390e-02,3.413024172190000372e-02,1.000000000000000000e+00
6.452089279999999594e-01,-2.597719322659999719e+00,6.035079826480000548e-02,-9.394814581229999462e+00,4.170548170800000148e-02,-3.661958873269999942e-02,1.901905797420000085e-02,1.000000000000000000e+00
6.502922890000000233e-01,-2.647540169150000011e+00,2.099677291290000247e-02,-9.417600998050000172e+00,5.039962008600000487e-02,-4.002129286529999830e-02,1.553075667470000046e-02,1.000000000000000000e+00
6.551560969999999928e-01,-2.685817000569999724e+00,5.944923718200000040e-02,-9.380359939419999904e+00,4.342244565489999930e-02,-4.149081557990000335e-02,2.216946519909999969e-02,1.000000000000000000e+00
6.603036340000000282e-01,-2.660910522850000071e+00,1.561564293359999911e-01,-9.461999527230000595e+00,4.522121697660000383e-02,-3.630333393810000059e-02,3.387352079150000167e-02,1.000000000000000000e+00
6.651928200000000180e-01,-2.604131820050000101e+00,3.082340649249999953e-01,-9.467723165569999821e+00,5.047691240910000265e-02,-2.717038802800000180e-02,3.495223075150000192e-02,1.000000000000000000e+00
6.701283089999999776e-01,-2.616680043720000182e+00,5.452486311040000144e-01,-9.436916523899999021e+00,5.053538084030000793e-02,-2.897087298330000213e-02,3.710313513880000164e-02,1.000000000000000000e+00
6.751437909999999931e-01,-2.577092421959999768e+00,6.779607824930000692e-01,-9.481820079989999428e+00,5.465568602089999894e-02,-5.778240412469999587e-02,3.657272458079999927e-02,1.000000000000000000e+00
6.801388299999999720e-01,-2.463007485359999915e+00,4.032238039019999665e-01,-9.440686690089998834e+00,9.483553469180000528e-02,-5.778516829009999745e-02,2.324017509820000202e-02,1.000000000000000000e+00
6.851912000000000003e-01,-2.410220920930000066e+00,2.875513652129999681e-02,-9.546919451880000906e+00,1.037911921739999993e-01,-4.502343386410000148e-02,-1.048205140979999866e-02,1.000000000000000000e+00
6.901373429999999587e-01,-2.384272532949999857e+00,6.621935693799999023e-02,-9.590737550820000124e+00,1.242335662250000083e-01,-5.040527880190000254e-02,-2.607866376640000441e-02,1.000000000000000000e+00
6.951170989999999605e-01,-2.385406943800000068e+00,2.370199730060000010e-01,-9.507426814929999637e+00,1.008197367190000054e-01,-5.266765505080000381e-02,-3.834446147080000644e-02,1.000000000000000000e+00
7.000982009999999756e-01,-2.514904845850000292e+00,1.513581530750000015e-01,-9.548214167869998548e+00,9.377185255289999244e-02,-9.356188774110001105e-02,-3.231118619440000173e-02,1.000000000000000000e+00
7.052192529999999904e-01,-2.485575290999999964e+00,5.407023842419999421e-02,-9.382822530139998563e+00,1.030586138370000043e-01,-8.939047157759999473e-02,-4.241105914119999709e-02,1.000000000000000000e+00
7.103045949999999831e-01,-2.570302907949999938e+00,3.074753189790000243e-02,-9.346794354419998285e+00,1.045498996969999872e-01,-8.258346468210001068e-02,-3.142087534070000382e-02,1.000000000000000000e+00
7.151944099999999471e-01,-2.320812014299999948e+00,-1.887021880279999841e-01,-9.588484803460000094e+00,1.231916844840000025e-01,-8.790571987629999806e-02,-2.412281371650000159e-02,1.000000000000000000e+00
7.201416379999999728e-01,-2.336272179890000356e+00,-3.212590027250000202e-01,-9.642826634500000438e+00,1.140794828529999999e-01,-9.855819493529999198e-02,-1.564079197120000131e-03,1.000000000000000000e+00
7.253706890000000129e-01,-2.455452539930000011e+00,-2.526605366649999906e-01,-9.463250988589999579e+00,1.343224495650000017e-01,-1.099795177580000088e-01,2.035069838170000187e-02,1.000000000000000000e+00
7.301275459999999606e-01,-2.501863285709999829e+00,4.754457211569999148e-02,-9.441779746019999919e+00,1.288413852449999952e-01,-1.332380920649999800e-01,2.818424254659999614e-02,1.000000000000000000e+00
7.351385299999999567e-01,-2.633850666490000325e+00,3.382785631199999865e-01,-9.439960129380001064e+00,1.297465860839999985e-01,-1.504603773360000118e-01,3.495735302570000119e-02,1.000000000000000000e+00
7.401331620000000111e-01,-2.696339855889999804e+00,4.140515239199999975e-01,-9.380631157569998990e+00,1.198881193999999928e-01,-1.458099037410000021e-01,2.793605439359999817e-02,1.000000000000000000e+00
7.451759150000000220e-01,-2.695869608029999753e+00,4.203433540730000528e-01,-9.341281143959999866e+00,1.286128312350000025e-01,-1.577003151180000062e-01,2.017403952779999940e-02,1.000000000000000000e+00
7.501735849999999761e-01,-2.742745925499999959e+00,3.797346456350000343e-01,-9.374583694100000031e+00,1.286033689980000116e-01,-1.353369802239999808e-01,1.883199252190000117e-02,1.000000000000000000e+00
7.551714760000000082e-01,-2.678806537289999845e+00,2.018452723160000239e-01,-9.280166457780000044e+00,1.175997182729999896e-01,-1.311501711610000009e-01,2.504811063410000010e-02,1.000000000000000000e+00
7.600451759999999890e-01,-2.531505852040000448e+00,-2.443246699959999990e-01,-9.240097482250000382e+00,1.188339218500000100e-01,-1.267035603520000053e-01,2.086645737290000052e-02,1.000000000000000000e+00
7.650990250000000437e-01,-2.384898263630000237e+00,-5.537719101029999758e-01,-9.190336549260001320e+00,9.113761782649999754e-02,-1.526780277489999949e-01,2.856842614709999978e-02,1.000000000000000000e+00
7.700709089999999701e-01,-2.359640195989999967e+00,-6.576617255039999277e-01,-9.218336316819998544e+00,7.044720649720000172e-02,-1.472345143559999903e-01,4.630596190690000613e-02,1.000000000000000000e+00
7.751006310000000399e-01,-2.305991607909999797e+00,-8.620571206930000008e-01,-9.180907626649998932e+00,2.850946597750000228e-02,-1.362515836950000114e-01,5.460356548430000262e-02,1.000000000000000000e+00
7.802918049999999495e-01,-2.136893955270000145e+00,-1.193984451619999998e+00,-9.097993781119999568e+00,-8.360750973220001242e-03,-1.656078845260000043e-01,7.053705304860000136e-02,1.000000000000000000e+00
7.852273069999999855e-01,-2.194892116859999742e+00,-1.183692847779999946e+00,-9.168071525960000301e+00,-5.584756657480000747e-02,-1.464242935180000149e-01,8.859411627049999793e-02,1.000000000000000000e+00
7.901271269999999847e-01,-2.281382797970000098e+00,-7.328815093999999641e-01,-9.326891968600000027e+00,-1.094332039360000064e-01,-1.589552611110000013e-01,1.256673783059999994e-01,1.000000000000000000e+00
7.952328910000000528e-01,-2.553017426629999864e+00,-2.853059380740000095e-01,-9.273812704839999199e+00,-1.294956803319999850e-01,-1.871696263549999795e-01,1.513819843529999876e-01,1.000000000000000000e+00
8.001476809999999995e-01,-2.960392651119999829e+00,5.981419803690000286e-02,-9.158709823369999725e+00,-1.468609571460000041e-01,-1.874590069060000086e-01,1.645658761260000158e-01,1.000000000000000000e+00
8.052057780000000387e-01,-2.961661355880000013e+00,1.780232653649999885e-01,-9.138261494099999993e+00,-1.297892332080000100e-01,-1.966549009079999744e-01,1.397146135569999892e-01,1.000000000000000000e+00
8.103027959999999918e-01,-2.957728984869999689e+00,1.731624361290000080e-01,-9.258375481739999913e+00,-1.207215711470000091e-01,-1.541403234000000011e-01,1.485464423889999996e-01,1.000000000000000000e+00
8.152988329999999451e-01,-2.879147907850000188e+00,2.137292051209999932e-01,-9.357017642269999769e+00,-1.037257686260000117e-01,-1.157988086339999945e-01,1.473144888880000003e-01,1.000000000000000000e+00
8.201757969999999842e-01,-3.033004882869999808e+00,4.419372731780000230e-01,-9.457980354710000981e+00,-9.937704354520000838e-02,-9.906131029130001153e-02,1.249369755390000031e-01,1.000000000000000000e+00
8.253784899999999647e-01,-3.156310360020000427e+00,4.120420107280000077e-01,-9.500209723160001118e+00,-8.863663673399999055e-02,-7.749669253830000770e-02,1.358216553930000070e-01,1.000000000000000000e+00
8.301806609999999864e-01,-3.009525223079999812e+00,2.618665920309999895e-01,-9.511504439630000363e+00,-8.732713013890000542e-02,-7.411781698469999125e-02,1.004598587749999938e-01,1.000000000000000000e+00
8.352892330000000198e-01,-2.897816367959999972e+00,7.916806486430000289e-02,-9.505617719680000022e+00,-5.142216756939999717e-02,-4.068784415719999686e-02,1.158219724890000024e-01,1.000000000000000000e+00
8.401759610000000267e-01,-2.541707804850000141e+00,4.132342344539999962e-02,-9.750374570549999120e+00,-2.812773548070000157e-02,-5.200961232189999645e-02,1.246665641670000046e-01,1.000000000000000000e+00
8.451962990000000397e-01,-2.472171619540000087e+00,1.738234938529999996e-01,-9.657460724530000817e+00,-6.418975535779999735e-03,-7.093530893330000919e-02,1.462886631489999922e-01,1.000000000000000000e+00
8.501481779999999766e-01,-2.747812268980000194e+00,4.293669472770000328e-01,-9.665005733080000994e+00,-3.589624539019999668e-03,-8.459413051609999956e-02,1.580581814049999978e-01,1.000000000000000000e+00
8.552945499999999868e-01,-2.779521996970000242e+00,3.383111136829999865e-01,-9.623545595450000434e+00,7.122795283789999654e-02,-1.336572319269999920e-01,1.609112769369999973e-01,1.000000000000000000e+00
8.601277299999999792e-01,-2.507050917479999974e+00,1.944126380970000179e-01,-9.653686466689999079e+00,6.384941190480000750e-02,-1.369276344779999932e-01,1.526583284139999830e-01,1.000000000000000000e+00
8.653367379999999942e-01,-2.072808290459999814e+00,-3.536489863340000483e-02,-9.767638424560001198e+00,9.309270232919999999e-02,-1.661940366030000005e-01,1.503334194419999881e-01,1.000000000000000000e+00
8.703022830000000098e-01,-2.163713134750000044e+00,-1.288476945139999941e-01,-9.457702706819999250e+00,1.037157028910000028e-01,-1.692001074549999706e-01,1.684277504679999871e-01,1.000000000000000000e+00
8.753176689999999649e-01,-2.228420730849999920e+00,-7.681782290350001041e-01,-9.130838650630000330e+00,8.998645097019999928e-02,-1.779564172030000113e-01,1.958763301370000098e-01,1.000000000000000000e+00
8.801504610000000506e-01,-2.056934137239999849e+00,-1.456869518249999773e+00,-9.058029434999999907e+00,7.099221646789999340e-02,-1.816344112159999913e-01,2.219095677140000000e-01,1.000000000000000000e+00
8.852149289999999837e-01,-1.872726886009999703e+00,-1.683079197299999885e+00,-9.126184102819999922e+00,3.814278636130000177e-03,-1.844824254509999928e-01,2.687646150590000116e-01,1.000000000000000000e+00
8.901447230000000266e-01,-1.932485189140000115e+00,-1.106082369349999928e+00,-9.153885764210000886e+00,-9.209626168010000280e-02,-1.890908926729999717e-01,2.991282939909999938e-01,1.000000000000000000e+00
8.951400200000000362e-01,-2.453310851729999964e+00,-7.015319199549999718e-01,-9.214596545760000978e+00,-1.971186399460000127e-01,-1.815141737460000126e-01,3.337118327620000047e-01,1.000000000000000000e+00
9.001697100000000118e-01,-2.721547362379999946e+00,-5.016677384540000340e-01,-8.931155451709999582e+00,-2.554175555710000434e-01,-1.752793490890000028e-01,3.424549400810000255e-01,1.000000000000000000e+00
9.052142130000000453e-01,-3.459787403139999995e+00,2.342110713319999968e-02,-8.784326475639998577e+00,-2.815546691420000025e-01,-1.414820551869999943e-01,3.263151049610000243e-01,1.000000000000000000e+00
9.103121259999999992e-01,-4.344131320579999844e+00,7.145162700170000214e-01,-8.861139081679999308e+00,-2.915893793109999854e-01,-1.049801334740000092e-01,3.279399871829999924e-01,1.000000000000000000e+00
9.152983439999999860e-01,-4.112731087149999354e+00,1.252656128559999971e+00,-9.007300533760000505e+00,-2.809420228000000241e-01,-6.438229978080001192e-02,3.004182875160000266e-01,1.000000000000000000e+00
9.201512229999999626e-01,-3.861722482409999824e+00,1.503698927829999921e+00,-9.173737296629999705e+00,-2.290622144939999938e-01,1.198354922239999905e-02,2.697675228120000046e-01,1.000000000000000000e+00
9.253478139999999907e-01,-3.448408223249999960e+00,1.173234435999999992e+00,-9.410982456699999332e+00,-1.869950294489999831e-01,6.513755768539999935e-02,2.130602896209999875e-01,1.000000000000000000e+00
9.301453149999999725e-01,-3.177888570099999921e+00,4.575547847549999991e-01,-9.499255783429999767e+00,-1.397150158880000048e-01,8.419495821000000380e-02,1.917380392550000201e-01,1.000000000000000000e+00
9.352876479999999715e-01,-2.957454551840000168e+00,8.740352163219999859e-02,-9.687022334579999949e+00,-1.352889537810000042e-01,8.786404132840000547e-02,1.962554156780000059e-01,1.000000000000000000e+00
9.401557699999999462e-01,-2.596858906440000059e+00,-2.636922091559999737e-02,-9.629722822779999802e+00,-1.574594676490000122e-01,9.287922829389998192e-02,1.972398012880000051e-01,1.000000000000000000e+00
9.453661009999999587e-01,-2.582019064709999867e+00,-6.284875712690000948e-02,-9.445815285149999241e+00,-1.745925545689999969e-01,8.025303483010000349e-02,1.918183416129999874e-01,1.000000000000000000e+00
9.502860020000000185e-01,-3.125762369279999842e+00,7.453227198949999473e-03,-9.400508408949999506e+00,-1.922829300170000033e-01,1.048897057770000057e-01,1.634627282619999789e-01,1.000000000000000000e+00
9.551980070000000156e-01,-3.074323273940000156e+00,1.752360823310000204e-01,-9.385551078320000684e+00,-2.049140334129999907e-01,1.275912672279999882e-01,1.181446835400000034e-01,1.000000000000000000e+00
9.603033800000000397e-01,-2.933981029539999952e+00,6.357628321020000195e-01,-9.440815869419999729e+00,-2.173350453379999936e-01,1.539458781480000094e-01,7.509683817630000147e-02,1.000000000000000000e+00
9.652095520000000262e-01,-3.017058833459999700e+00,7.161165448209999562e-01,-9.407379463769999006e+00,-2.027142643929999988e-01,2.050703614950000198e-01,2.206757292150000188e-02,1.000000000000000000e+00
9.701551950000000257e-01,-3.148708360579999699e+00,4.888273634409999735e-01,-9.197923058860000722e+00,-2.138978838919999848e-01,2.221315503119999923e-01,-3.068025596440000086e-02,1.000000000000000000e+00
9.753166540000000051e-01,-3.029961569649999742e+00,2.766852265810000322e-01,-9.161745245539998805e+00,-1.983126848940000020e-01,2.651022374629999900e-01,-4.065562039609999651e-02,1.000000000000000000e+00
9.801478319999999966e-01,-3.065236881169999705e+00,9.567569368139998420e-02,-9.328266764089999441e+00,-1.680254936220000050e-01,2.754590213299999979e-01,-3.919089958069999630e-02,1.000000000000000000e+00
9.851786980000000193e-01,-2.835372186749999912e+00,5.677930558669998934e-02,-9.318742564419999042e+00,-1.859922111030000158e-01,2.626993656159999913e-01,-2.473467774690000370e-02,1.000000000000000000e+00
9.903187730000000411e-01,-2.666723300779999750e+00,1.457916141220000072e-01,-9.412375956880000061e+00,-1.693111807110000144e-01,2.726847827430000093e-01,-1.388083677739999910e-02,1.000000000000000000e+00
9.951395130000000311e-01,-2.648791338249999683e+00,7.850688384209999300e-04,-9.381576913989999156e+00,-1.929986774920000037e-01,2.560631036759999923e-01,9.801295585930000498e-03,1.000000000000000000e+00
1.000125058999999927e+00,-2.675436184070000056e+00,-8.077852313500000214e-02,-9.177534350830001131e+00,-1.928143650290000122e-01,2.493997067210000085e-01,5.645259842280000301e-02,1.000000000000000000e+00
1.005177098999999963e+00,-2.995837473989999999e+00,-2.448936837900000107e-01,-9.173791657169999780e+00,-2.233358025549999903e-01,2.567501068120000007e-01,9.675076603889999627e-02,1.000000000000000000e+00
1.010312306999999965e+00,-3.192273946060000256e+00,-4.927444181530000328e-02,-9.344952525950001032e+00,-2.415571212770000198e-01,2.512544691560000265e-01,1.183862388130000054e-01,1.000000000000000000e+00
1.015127995999999921e+00,-3.048834904680000069e+00,2.579107670770000027e-01,-9.523339838849999239e+00,-2.749990522859999675e-01,2.743797600269999859e-01,1.436101645229999890e-01,1.000000000000000000e+00
1.020139978000000003e+00,-2.571379889529999740e+00,2.098604191299999755e-01,-9.653909754049999847e+00,-2.904308736320000417e-01,2.588587403300000589e-01,1.700576841829999908e-01,1.000000000000000000e+00
1.025345055999999921e+00,-2.566533618539999839e+00,1.305014713360000134e-01,-9.766835291479999626e+00,-2.776301205160000007e-01,2.454414665699999887e-01,1.761524379250000161e-01,1.000000000000000000e+00
1.030140469000000003e+00,-2.534192606910000034e+00,-1.250925021320000059e-02,-9.776851658589999161e+00,-2.554849386220000018e-01,2.261344492440000298e-01,1.920543760060000049e-01,1.000000000000000000e+00
1.035135619999999923e+00,-2.720707112169999942e+00,1.096638687570000020e-01,-9.909557416769999350e+00,-2.487737983470000025e-01,1.896461546420000199e-01,1.885418891910000116e-01,1.000000000000000000e+00
1.040152393999999925e+00,-3.113459644810000260e+00,3.305901640419999787e-01,-9.689084527809999514e+00,-2.523970305920000268e-01,1.277323812249999968e-01,1.946203857659999925e-01,1.000000000000000000e+00
1.045177642999999934e+00,-3.062846186640000301e+00,6.032821562690000583e-01,-9.651883801180000333e+00,-2.377905398609999887e-01,1.099010258909999954e-01,1.783879548310000063e-01,1.000000000000000000e+00
1.050166656999999892e+00,-2.634440741340000169e+00,8.831492277569999994e-01,-9.862235693620000632e+00,-2.050557434560000281e-01,7.868541777130000359e-02,1.445731073619999918e-01,1.000000000000000000e+00
1.055309821999999897e+00,-2.546779409019999996e+00,7.440246885739999483e-01,-9.954687182829999870e+00,-1.607116907840000219e-01,6.626224517819999382e-02,1.147905737160000023e-01,1.000000000000000000e+00
1.060062287000000047e+00,-2.585979200510000187e+00,2.660602808610000314e-01,-9.911963308860000765e+00,-1.364150047299999835e-01,4.921426624060000476e-02,1.273785382509999842e-01,1.000000000000000000e+00
1.065080392000000042e+00,-2.456117141320000030e+00,1.359197426590000035e-01,-1.006981227610000040e+01,-1.040797457100000045e-01,2.639653906229999861e-02,1.176031082870000050e-01,1.000000000000000000e+00
1.070254486999999921e+00,-2.423412703199999907e+00,3.845387945139999708e-01,-1.020300260299999984e+01,-7.720508426430000570e-02,-3.145609796050000129e-02,9.423131495710000693e-02,1.000000000000000000e+00
1.075290558000000063e+00,-2.664803730900000112e+00,4.673624044770000041e-01,-1.006957846739999951e+01,-9.274317324160000209e-02,-6.776346266269998864e-02,8.258248120550000515e-02,1.000000000000000000e+00
1.080120477999999995e+00,-2.740812911609999958e+00,5.687185001489999392e-01,-1.007282139480000005e+01,-5.123379454020000195e-02,-9.976258873939999883e-02,7.026508450510000892e-02,1.000000000000000000e+00
1.085231740000000000e+00,-2.726861835410000268e+00,7.288442897730000869e-01,-1.025357076070000062e+01,-1.211520005019999999e-02,-9.850393980739999278e-02,6.224187090990000726e-02,1.000000000000000000e+00
1.090142782000000032e+00,-2.698637319179999938e+00,5.629174126539999712e-01,-1.032600822040000033e+01,3.269909694789999849e-02,-1.284003406760000077e-01,3.408260270949999698e-02,1.000000000000000000e+00
1.095137913999999935e+00,-2.417507716939999884e+00,2.270496552699999837e-01,-1.025905006890000060e+01,6.125775352119999795e-02,-1.825289875270000028e-01,6.369000300770000580e-03,1.000000000000000000e+00
1.100152626000000078e+00,-2.225996572440000154e+00,-8.133390112860000576e-02,-1.060625724039999973e+01,1.050642430780000108e-01,-2.378292679789999753e-01,4.308090545239999514e-03,1.000000000000000000e+00
1.105212042000000006e+00,-2.103759601300000170e+00,5.499514384999999728e-02,-1.089178098589999877e+01,1.231017559770000019e-01,-3.308740556239999631e-01,-7.321379147470000008e-03,1.000000000000000000e+00
1.110294268000000084e+00,-1.765148993219999962e+00,1.313738154580000039e-01,-1.114152380849999879e+01,1.091789379719999981e-01,-4.352081120009999582e-01,-2.685252763330000028e-02,1.000000000000000000e+00
1.115295246000000073e+00,-1.618720999150000006e+00,1.957664273259999976e-01,-1.146430731739999942e+01,1.143304482099999908e-01,-5.757097005839999504e-01,-3.311553969980000206e-02,1.000000000000000000e+00
1.120130282999999949e+00,-1.471524212670000109e+00,-1.379727935979999931e-01,-1.187188390970000107e+01,1.657533049580000029e-01,-6.881457567209999793e-01,-3.736706823109999659e-02,1.000000000000000000e+00
1.125385486000000101e+00,-1.173334973760000066e+00,-4.167006501889999881e-01,-1.245976680020000060e+01,1.815975755450000007e-01,-8.238161802290000502e-01,-1.597618684170000122e-02,1.000000000000000000e+00
1.130122864000000060e+00,-6.714826725200000457e-01,-3.879440729119999487e-01,-1.304748251750000065e+01,2.278108596800000329e-01,-1.015415787699999850e+00,1.261343341320000054e-02,0.000000000000000000e+00
1.135285399000000028e+00,-4.135650921099999766e-01,-4.577913334570000159e-01,-1.373395554619999892e+01,2.606890499589999965e-01,-1.228813171389999903e+00,3.394414111969999703e-02,0.000000000000000000e+00
1.140129383999999968e+00,2.296078701189999960e-01,-6.898134251109999671e-01,-1.457868904549999911e+01,2.676671147349999891e-01,-1.509657382970000183e+00,5.404423922299999433e-02,0.000000000000000000e+00
1.145170465999999942e+00,4.502187427790000362e-01,-5.395981675940000333e-01,-1.598378965190000045e+01,1.658583283420000110e-01,-1.863799214359999956e+00,5.031425133349999579e-02,0.000000000000000000e+00
1.150280178000000042e+00,5.212910516069999556e-01,-2.507698092810000112e-01,-1.542746860529999964e+01,-1.700618071479999965e-03,-2.283905982970000359e+00,6.038010492919999861e-02,0.000000000000000000e+00
1.155303986999999921e+00,9.402611810969999651e-01,4.307546753090000236e-01,-1.575491426079999968e+01,-1.786579787730000202e-01,-2.725074529649999633e+00,-1.783801987769999958e-02,0.000000000000000000e+00
1.160296569000000000e+00,1.371805508950000085e+00,5.058755654079999386e-01,-1.610791521330000009e+01,-3.643816709520000252e-01,-3.151050329209999834e+00,-8.417084813120000175e-02,0.000000000000000000e+00
1.165353735000000057e+00,6.065441902720000167e-01,1.846981911640000140e+00,-1.525026962539999964e+01,-4.326557815070000146e-01,-3.507697820659999799e+00,-1.223198696969999971e-01,0.000000000000000000e+00
1.170292048000000085e+00,8.731425783310000632e-01,6.767347478290000051e-01,-1.456718565470000115e+01,-3.667094111440000193e-01,-3.820188760759999802e+00,-1.508068293329999920e-01,0.000000000000000000e+00
1.175169356999999914e+00,5.022953688330000083e-02,-2.900118324759999866e-01,-1.473536195470000010e+01,-2.723756134510000315e-01,-4.089237689970000034e+00,-1.710758358240000165e-01,0.000000000000000000e+00
1.180286386999999992e+00,1.202695709210000047e-01,2.123528935330000200e-01,-1.422715641200000114e+01,-2.540503144260000123e-01,-4.319507122040000091e+00,-1.559018194679999969e-01,0.000000000000000000e+00
1.185208006000000092e+00,1.437995269900000095e-01,-2.955306872289999998e-01,-1.423466401109999957e+01,-3.253671228889999933e-01,-4.541113376619999364e+00,-1.543571799990000049e-01,0.000000000000000000e+00
1.190016127000000035e+00,1.955224442359999870e-01,-6.230279998219999671e-01,-1.390181269720000046e+01,-4.472797811029999848e-01,-4.730663299559999757e+00,-2.096008807420000064e-01,0.000000000000000000e+00
1.195052529999999891e+00,1.089015206960000093e+00,-1.988036834370000117e+00,-1.350210143150000164e+01,-5.503999590870000125e-01,-4.864175319669999276e+00,-1.241616457699999954e-01,0.000000000000000000e+00
1.200054882999999961e+00,2.721480434630000111e+00,-4.485866772909999689e+00,-1.397943603509999910e+01,-6.111062169080000439e-01,-5.006118297580000487e+00,5.909089371560000137e-02,0.000000000000000000e+00
1.205222887999999992e+00,2.399981850990000165e+00,-4.281429949730000573e+00,-1.392836635759999986e+01,-6.775608658789999961e-01,-5.246611595150000085e+00,3.373585641380000277e-01,0.000000000000000000e+00
1.210286616000000093e+00,4.593574867960000252e-01,-3.177425044240000052e+00,-1.425369721289999880e+01,-1.045026183129999842e+00,-5.458711147309999845e+00,3.572078347209999838e-01,0.000000000000000000e+00
1.215314905999999917e+00,-2.922411003249999695e+00,-5.783503322189999629e+00,-1.048381627110000025e+01,-1.499112129210000033e+00,-5.629353523250000713e+00,3.237966597080000342e-01,0.000000000000000000e+00
1.220137252000000005e+00,-5.944274314380001201e+00,-6.636604252359999734e+00,-1.215174363809999925e+01,-2.017547130580000125e+00,-5.821873664859999131e+00,3.443736135959999944e-01,0.000000000000000000e+00
1.225353265999999941e+00,-8.839099099310001151e+00,-7.539635042339999593e+00,-1.339972476059999984e+01,-2.474921941759999910e+00,-5.909183979029999811e+00,3.517580330369999841e-01,0.000000000000000000e+00
1.230136488999999944e+00,-1.161045649450000106e+01,-8.435672612439999440e+00,-1.520683146569999877e+01,-2.721404075620000196e+00,-5.737417221070000295e+00,6.066316366199999699e-01,0.000000000000000000e+00
1.235287833999999973e+00,-1.733970858660000047e+01,-6.082522509119999476e+00,-1.813231559280000127e+01,-2.744614124299999958e+00,-5.374735832209999842e+00,7.823685407639999756e-01,0.000000000000000000e+00
1.240145134000000038e+00,-1.716011774309999893e+01,-5.834010689630000357e+00,-1.303616266660000100e+01,-2.665687084200000001e+00,-4.898090362549999632e+00,1.035483717920000046e+00,0.000000000000000000e+00
1.245174191000000041e+00,-1.485915901479999945e+01,-4.115856817950000135e+00,-1.405647134400000020e+01,-2.459293127059999584e+00,-4.205665588380000486e+00,1.279756188389999938e+00,0.000000000000000000e+00
1.250122648000000058e+00,-1.384077692150000161e+01,-4.813239655409999873e-01,-1.406770117859999836e+01,-2.413017511370000090e+00,-3.495096445080000169e+00,1.543870687479999892e+00,0.000000000000000000e+00
1.255284982999999910e+00,-1.135365030940000075e+01,-1.826513124109999886e+00,-1.263209320569999861e+01,-2.492007970809999584e+00,-2.939243316650000271e+00,1.764123082159999800e+00,0.000000000000000000e+00
1.260290942999999997e+00,-1.118339077339999932e+01,-3.262047447250000065e+00,-1.384234344020000052e+01,-2.477053880690000209e+00,-2.676805973050000009e+00,1.723035812380000031e+00,0.000000000000000000e+00
1.265352950000000032e+00,-1.411321672910000125e+01,-3.284340527599999948e+00,-1.631597694899999951e+01,-2.566031455990000154e+00,-2.490681171420000339e+00,1.598630309100000035e+00,0.000000000000000000e+00
1.270287638000000108e+00,-1.225461715259999984e+01,-4.281299893609999963e+00,-1.540670054259999944e+01,-2.656510114670000089e+00,-2.170683145519999968e+00,1.489588737489999870e+00,0.000000000000000000e+00
1.275302390000000008e+00,-7.879163349799999772e+00,-6.569857113250000324e+00,-1.268143269839999832e+01,-2.779149293899999762e+00,-1.846105217929999931e+00,1.480242133140000194e+00,0.000000000000000000e+00
1.280282442999999937e+00,-2.464408876590000297e+00,-6.346141881369999460e+00,-1.179109363220000084e+01,-2.979647874829999932e+00,-1.328477263449999946e+00,1.473539590839999969e+00,0.000000000000000000e+00
1.285234305999999993e+00,4.204656506650000125e+00,-6.133360131429999917e+00,-1.021253147880000078e+01,-3.408465623859999738e+00,-7.078038454060000539e-01,1.542712926859999945e+00,0.000000000000000000e+00
1.290138039999999986e+00,9.124198920350000686e-01,-6.200500069249999413e+00,-4.990810975749999656e+00,-3.861779212950000151e+00,-1.861671507360000144e-01,1.322664856909999909e+00,0.000000000000000000e+00
1.295277777999999991e+00,-1.151604685700000097e+01,-2.103113850749999791e+00,-1.161925822509999939e+01,-3.927187681199999947e+00,-1.027251720430000015e+00,6.966070532800000548e-01,0.000000000000000000e+00
1.300267799000000002e+00,-1.311508715019999904e+01,-4.944949388289999526e+00,-1.738463260089999807e+01,-3.676914691929999979e+00,-7.696937918659999545e-01,7.333860397339999615e-01,0.000000000000000000e+00
1.305255196000000062e+00,-4.724172840199999612e+00,-4.280259736909999724e+00,-1.551010947910000048e+01,-3.116696834559999907e+00,-4.426651895049999452e-01,3.485254049300000045e-01,0.000000000000000000e+00
1.310299207999999993e+00,-1.774680207150000077e+00,-8.493703653389998998e-01,-1.209280746499999992e+01,-2.553930759430000030e+00,-2.798411436379999798e-02,2.371142804620000044e-01,0.000000000000000000e+00
1.315290040999999910e+00,-7.846000792640001054e-01,-2.990056844760000221e+00,-1.130624090799999948e+01,-2.349819660190000103e+00,3.054945468899999961e-01,1.919588446620000277e-01,0.000000000000000000e+00
1.320163119999999912e+00,-1.500360138799999854e+00,-6.451206183910000114e+00,-1.127743099309999941e+01,-2.213193178180000054e+00,7.212903499600000767e-01,3.380872607229999938e-01,0.000000000000000000e+00
1.325208516000000003e+00,1.048510397279999840e+00,-6.908605083980000394e+00,-1.108265427089999910e+01,-2.053572177890000017e+00,8.697836399079998948e-01,3.619165122510000221e-01,0.000000000000000000e+00
1.330086509000000028e+00,2.833040821190000003e+00,-7.297416770039999889e+00,-1.043384900190000053e+01,-1.932784795759999730e+00,6.957947015759999854e-01,4.245275855060000048e-01,0.000000000000000000e+00
1.335088121000000072e+00,2.131372269240000339e+00,-7.389480721229999993e+00,-9.464874790399999682e+00,-1.879571914670000066e+00,5.139825940129999493e-01,4.143385291099999646e-01,0.000000000000000000e+00
1.340081387999999984e+00,1.792149959000000070e+00,-7.174523380820000185e+00,-9.209829185229999382e+00,-1.815144777299999790e+00,3.852052092549999585e-01,2.628579437730000357e-01,0.000000000000000000e+00
1.345087713000000074e+00,2.798238095620000365e+00,-6.450274456019999825e+00,-9.047728990259999549e+00,-1.792491316800000067e+00,2.829615175719999987e-01,-1.080759055910000127e-02,0.000000000000000000e+00
1.350101516000000057e+00,1.860136284509999793e+00,-6.889675927110000764e+00,-8.870687246750000199e+00,-1.708914518359999857e+00,3.565164804460000392e-01,-1.969992816450000239e-01,0.000000000000000000e+00
1.355283239999999889e+00,7.306053080959999946e-01,-7.740921000280000186e+00,-8.498836632359999754e+00,-1.621684074400000064e+00,5.805646181110000192e-01,-2.571277916429999810e-01,0.000000000000000000e+00
1.360285017000000041e+00,7.262649408040000587e-01,-7.530217810179999915e+00,-8.357352524439999542e+00,-1.500978589060000257e+00,8.621292710299998108e-01,-3.327410519119999854e-01,0.000000000000000000e+00
1.365170484999999934e+00,1.453306126679999810e+00,-7.347096454489999040e+00,-8.109442762500000512e+00,-1.393170595170000192e+00,1.038566470149999921e+00,-4.634081721309999957e-01,0.000000000000000000e+00
1.370148823999999932e+00,2.103649272799999803e+00,-7.301442956819998997e+00,-7.802098230289999492e+00,-1.323123812680000011e+00,1.131773829460000158e+00,-6.097435951230000262e-01,0.000000000000000000e+00
1.375123094999999962e+00,2.248337437460000032e+00,-7.614619263919999881e+00,-7.363126382789999091e+00,-1.209783196449999876e+00,1.198270201679999980e+00,-7.462914586069999689e-01,0.000000000000000000e+00
1.380114276999999889e+00,2.044286252590000075e+00,-7.551427186950000703e+00,-6.850389626380000152e+00,-1.075827002529999854e+00,1.297211527820000043e+00,-8.429966568950000294e-01,0.000000000000000000e+00
1.385221357999999903e+00,1.875838588290000164e+00,-7.334729140349999454e+00,-6.488786849759999420e+00,-9.210921525959999689e-01,1.409352540970000067e+00,-9.431772232060000594e-01,0.000000000000000000e+00
1.390143029999999946e+00,1.410216634279999992e+00,-7.325455700569999173e+00,-6.270760184909999424e+00,-7.445164918899999096e-01,1.551591515539999966e+00,-1.007096767429999762e+00,0.000000000000000000e+00
1.395116371999999938e+00,8.676146086900000665e-01,-7.398526782000000246e+00,-6.107717740650000948e+00,-5.511246323589999996e-01,1.761154055600000046e+00,-1.023810148239999940e+00,0.000000000000000000e+00
1.400121868999999908e+00,5.405828677820000427e-01,-7.261855627320000117e+00,-6.005636253320000506e+00,-3.841736316680000041e-01,1.945845484729999963e+00,-1.064586400989999904e+00,0.000000000000000000e+00
1.405303342999999927e+00,3.163075908630000321e-01,-7.039459076819999162e+00,-5.841116137719999379e+00,-1.782817095520000117e-01,2.133009195330000107e+00,-1.115118741989999940e+00,0.000000000000000000e+00
1.410121892999999904e+00,1.448005207259999982e-01,-7.110292608449999996e+00,-5.876669097139999742e+00,3.550833556800000405e-03,2.333191156390000298e+00,-1.191111683849999991e+00,0.000000000000000000e+00
1.415093654000000090e+00,-1.422139565649999937e-01,-7.214064533089999287e+00,-5.900296640969999729e+00,1.762152314190000013e-01,2.535865306849999889e+00,-1.270327091219999982e+00,0.000000000000000000e+00
1.420126940999999920e+00,-6.376368823460000224e-01,-7.297451841350000024e+00,-5.844675291510000648e+00,3.246907293799999872e-01,2.746788501740000221e+00,-1.340778708460000024e+00,0.000000000000000000e+00
1.425527280000000063e+00,-9.080383890150000026e-01,-7.336357033810000594e+00,-5.638681594279999487e+00,4.337864816189999639e-01,2.992236137390000383e+00,-1.397740483279999779e+00,0.000000000000000000e+00
1.430098969000000109e+00,-9.086202805559999707e-01,-7.191172317810000436e+00,-5.379236877359999447e+00,5.425297021870000291e-01,3.210372686389999952e+00,-1.472670793529999855e+00,0.000000000000000000e+00
1.435012065000000003e+00,-9.291171251399999997e-01,-7.143303482170000329e+00,-5.069533799330000257e+00,6.205039620399999123e-01,3.397773027419999980e+00,-1.526265025140000064e+00,0.000000000000000000e+00
1.440044996999999993e+00,-8.012801420389999985e-01,-6.979293069669999738e+00,-4.903289344160000063e+00,7.163805961610000272e-01,3.535141229630000659e+00,-1.582016587260000051e+00,0.000000000000000000e+00
1.445119403000000080e+00,-7.886888829479999918e-01,-6.748867526490000657e+00,-4.676456272519999402e+00,8.198044896130000092e-01,3.622610568999999892e+00,-1.648990750310000086e+00,0.000000000000000000e+00
1.450061475999999905e+00,-9.744311617249999946e-01,-6.482965596259999685e+00,-4.687822592930000809e+00,9.077686667440000301e-01,3.656462907790000383e+00,-1.722843408579999736e+00,0.000000000000000000e+00
1.455240155000000035e+00,-1.136251078449999952e+00,-6.122552321690000632e+00,-4.751550091949999555e+00,1.051053047179999922e+00,3.664962768550000138e+00,-1.788324952129999978e+00,0.000000000000000000e+00
1.460235755000000024e+00,-1.445957809740000100e+00,-5.836118475569999298e+00,-4.954515089010000040e+00,1.201951742170000115e+00,3.650551557540000047e+00,-1.891700744630000042e+00,0.000000000000000000e+00
1.465266731999999905e+00,-2.190452673109999804e+00,-5.742226139900000526e+00,-5.397139029279999889e+00,1.347867846489999799e+00,3.666611433030000367e+00,-1.975771546359999853e+00,0.000000000000000000e+00
1.470109512999999923e+00,-2.909526679499999879e+00,-5.666248815640000380e+00,-5.882960890759999728e+00,1.532463908200000002e+00,3.666629314419999730e+00,-2.095571994779999780e+00,0.000000000000000000e+00
1.475084754999999914e+00,-3.728671564049999887e+00,-5.685619286540000594e+00,-6.272071852030000727e+00,1.695524811739999915e+00,3.718558311459999821e+00,-2.221066474909999755e+00,0.000000000000000000e+00
1.480055193999999963e+00,-4.336394588840000175e+00,-5.794565398949999668e+00,-6.517233192039999956e+00,1.824952006339999988e+00,3.744706153869999721e+00,-2.400481700899999904e+00,0.000000000000000000e+00
1.485162510000000102e+00,-4.989312261630000300e+00,-5.984996785389999907e+00,-6.693847065539999974e+00,1.960737586020000034e+00,3.812488555909999466e+00,-2.606956720349999923e+00,0.000000000000000000e+00
1.490097250000000040e+00,-5.211896443649999711e+00,-6.245414731250000351e+00,-6.826158271440000647e+00,2.026955127719999972e+00,3.842811822890000339e+00,-2.867500543590000284e+00,0.000000000000000000e+00
1.495246735999999910e+00,-5.253040354950000435e+00,-6.435581913800000109e+00,-7.008837144060000135e+00,2.028372049330000149e+00,3.827082872390000112e+00,-3.175958633420000066e+00,0.000000000000000000e+00
1.500090710999999910e+00,-5.223672221640000224e+00,-6.205790576869999242e+00,-7.271947397739999097e+00,2.061519861220000305e+00,3.788826465609999694e+00,-3.506360054019999506e+00,0.000000000000000000e+00
1.505197101999999898e+00,-5.156975351419999853e+00,-5.638883838849999997e+00,-7.448941210460000129e+00,2.035422801969999806e+00,3.699162960049999782e+00,-3.843488693239999865e+00,0.000000000000000000e+00
1.510088815000000029e+00,-5.257706593190000000e+00,-4.925005501409999376e+00,-7.736784923380001011e+00,2.065623044970000155e+00,3.581683397290000404e+00,-4.163506031040000721e+00,0.000000000000000000e+00
1.515102286000000076e+00,-5.799872273190000094e+00,-3.755003982919999928e+00,-8.119363268010001633e+00,2.180845499040000135e+00,3.471223354340000178e+00,-4.435218334200000001e+00,0.000000000000000000e+00
1.520083402000000028e+00,-6.181227798019999220e+00,-2.740390886800000203e+00,-8.576841078539999330e+00,2.337622404099999773e+00,3.346194505690000209e+00,-4.723954677580000094e+00,0.000000000000000000e+00
1.525335754000000099e+00,-6.640341685319999243e+00,-1.617875926629999794e+00,-9.184875361239999592e+00,2.543400049209999736e+00,3.245049953459999692e+00,-4.957748889919999513e+00,0.000000000000000000e+00
1.530220044000000001e+00,-7.337636552230000220e+00,-5.329708949409999175e-01,-9.725545249719999674e+00,2.797028303149999839e+00,3.116789579390000231e+00,-5.167345046999999525e+00,0.000000000000000000e+00
1.535220113999999914e+00,-8.234288454830000603e+00,5.921098057990000635e-02,-1.024923360830000085e+01,3.026791095730000158e+00,2.997824430469999690e+00,-5.361171722409999951e+00,0.000000000000000000e+00
1.540061531999999955e+00,-9.251854555539999581e+00,1.711853182360000003e-02,-1.059774309450000018e+01,3.239680528640000112e+00,2.863975524900000291e+00,-5.561552047730000226e+00,0.000000000000000000e+00
1.545274884999999987e+00,-1.032688617230000006e+01,-5.910615205879999889e-01,-1.090593810609999892e+01,3.332734823230000032e+00,2.711423158650000165e+00,-5.710468292239999855e+00,0.000000000000000000e+00
1.550221099000000047e+00,-1.113084576259999992e+01,-1.708498300710000084e+00,-1.127664071950000135e+01,3.296470642090000069e+00,2.559595108029999899e+00,-5.834810256959999997e+00,0.000000000000000000e+00
1.555233268000000058e+00,-1.181341769219999982e+01,-2.719791166370000290e+00,-1.170736554770000026e+01,3.150725364690000418e+00,2.373255491259999683e+00,-5.943930625920000210e+00,0.000000000000000000e+00
1.560225852999999940e+00,-1.272529522099999966e+01,-3.313677973509999930e+00,-1.192747661760000000e+01,2.893162727360000019e+00,2.140009641649999850e+00,-5.990825653080000812e+00,0.000000000000000000e+00
1.565248477999999999e+00,-1.361037475920000084e+01,-3.464350765540000321e+00,-1.197667816309999900e+01,2.541227102279999706e+00,1.883777260779999851e+00,-6.050248146059999499e+00,0.000000000000000000e+00
1.570101280000000044e+00,-1.432722889759999951e+01,-3.027345249670000182e+00,-1.166465570220000103e+01,2.193426847460000051e+00,1.589101791379999851e+00,-6.110482692719999775e+00,0.000000000000000000e+00
1.575095058999999909e+00,-1.508386910289999960e+01,-2.411325375050000108e+00,-1.155576979559999984e+01,1.883069157599999821e+00,1.212563514710000012e+00,-6.148030757899999976e+00,0.000000000000000000e+00
1.580095991999999949e+00,-1.658104359740000078e+01,-1.286049717989999897e+00,-1.118450370309999897e+01,1.652029991150000043e+00,7.876335978509999558e-01,-6.160243511200000022e+00,0.000000000000000000e+00
1.585176820000000042e+00,-1.848499272020000106e+01,-2.760146521099999806e-01,-1.083465098549999972e+01,1.486647009850000201e+00,2.903127670289999962e-01,-6.154415130619999452e+00,0.000000000000000000e+00
1.590093334000000080e+00,-2.078996360670000243e+01,1.427358798139999885e-01,-1.010109004240000097e+01,1.401596069339999806e+00,-2.226324677470000180e-01,-6.114216327669999451e+00,0.000000000000000000e+00
1.595088692000000030e+00,-2.321611523340000005e+01,-2.216689668780000115e-03,-8.846363537349999362e+00,1.311091661449999890e+00,-7.020992636679999066e-01,-6.028988838200000089e+00,0.000000000000000000e+00
1.600213217999999937e+00,-2.601480370310000012e+01,-8.116139045269999963e-01,-7.727379381660000490e+00,1.124989628789999863e+00,-1.178258538249999932e+00,-5.781607151030000225e+00,0.000000000000000000e+00
1.605276144000000071e+00,-2.952122660070000038e+01,-3.252572055159999920e+00,-7.014410560279999984e+00,7.818230986599999932e-01,-1.586796522139999777e+00,-5.405640602110000081e+00,0.000000000000000000e+00
1.610214245000000099e+00,-3.355256418369999949e+01,-7.242695584289998934e+00,-6.933313993300000533e+00,2.869621515269999978e-01,-1.871679544449999844e+00,-4.846351146700000001e+00,0.000000000000000000e+00
1.615103031999999939e+00,-3.785076640460000164e+01,-9.892299992499999917e+00,-6.802200472750000060e+00,-2.958983480930000298e-01,-1.936636328700000131e+00,-4.239567279820000145e+00,0.000000000000000000e+00
1.620099082999999940e+00,-4.006893812860000281e+01,-8.471662794229999349e+00,-4.742228429109999865e+00,-9.361404180529999675e-01,-1.708902120589999907e+00,-3.596684932709999671e+00,0.000000000000000000e+00
1.625276633999999998e+00,-3.919982188320000205e+01,-4.475994490449999752e+00,-1.172194206229999924e+00,-1.535706758499999935e+00,-1.092291593549999940e+00,-2.942665576930000082e+00,0.000000000000000000e+00
1.630098116999999958e+00,-3.662379884399999952e+01,7.280649759639998830e-01,2.337694467780000007e+00,-1.812726378440000063e+00,-2.131915092470000050e-01,-2.188767671589999964e+00,0.000000000000000000e+00
1.635235058999999991e+00,-3.347115898919999921e+01,4.890427816769999936e+00,5.396112608840000213e+00,-1.684839129450000028e+00,6.485285758969999703e-01,-1.537078380579999903e+00,0.000000000000000000e+00
1.640121653000000013e+00,-2.854666026829999836e+01,8.672217515279999844e+00,8.324143497799999736e+00,-1.024136424059999939e+00,1.216806769369999985e+00,-1.029461741450000023e+00,0.000000000000000000e+00
1.645082032999999999e+00,-2.238642148230000117e+01,1.210625614469999967e+01,1.090393085789999894e+01,-7.608263939619999694e-02,1.122926592829999848e+00,-6.461746096610000434e-01,0.000000000000000000e+00
1.650195335000000041e+00,-1.664526034130000198e+01,1.419015734539999940e+01,1.174134497410000044e+01,9.905545711519999630e-01,4.522937834260000178e-01,-4.552301168439999990e-01,0.000000000000000000e+00
1.655224240999999985e+00,-1.296963472319999866e+01,1.478341199209999957e+01,1.152275716830000007e+01,2.093468189240000221e+00,-6.811684370039999825e-01,-3.414626419540000013e-01,0.000000000000000000e+00
1.660080742000000109e+00,-1.231291502779999902e+01,1.386098267420000063e+01,9.884771350560001224e+00,3.000895261760000210e+00,-2.066235065459999909e+00,-3.041314780709999943e-01,0.000000000000000000e+00
1.665149530999999961e+00,-1.344365742579999967e+01,1.147196104700000063e+01,7.736977815610001308e+00,3.476864337919999937e+00,-3.278999567030000062e+00,-3.950161337850000010e-01,0.000000000000000000e+00
1.670095386999999931e+00,-1.474136850170000024e+01,7.994173292289999289e+00,6.207181738969999252e+00,3.419016122820000003e+00,-4.220063209530000137e+00,-5.455211400989999904e-01,0.000000000000000000e+00
1.675093327999999993e+00,-1.549658831880000065e+01,4.471885301569999527e+00,5.464700991900000915e+00,2.759447574620000232e+00,-4.892500877380000723e+00,-8.224073052410000306e-01,0.000000000000000000e+00
1.680105506000000082e+00,-2.301516596000000092e+01,-2.057678613550000080e+01,-9.386413248110001106e+00,1.300641655920000028e+00,-5.258150100709999997e+00,-7.463439106939999679e-01,0.000000000000000000e+00
1.685183982000000080e+00,-2.857805844610000179e+01,-5.025844996640000062e+01,-3.946502998590000200e+00,-1.523396730420000011e+00,-5.856497764590000266e+00,7.187036275859999268e-01,0.000000000000000000e+00
1.690117330000000084e+00,-2.695924377729999932e+01,-9.745793087979999214e+00,-1.566783218970000036e+01,-6.317818641659999734e+00,-3.747946739200000099e+00,2.013798475270000221e+00,0.000000000000000000e+00
1.695246714999999904e+00,-3.792272338730000314e+01,2.373614799199999936e+01,-2.855289360969999635e+01,-9.595823287960000059e+00,-3.222688198090000178e+00,1.997071743010000011e+00,0.000000000000000000e+00
1.700213492999999909e+00,-3.100156335760000204e+01,1.396230954380000178e+01,-1.362990012839999920e+01,-9.592359542849999698e+00,-1.836119890209999994e+00,2.327688932420000079e+00,0.000000000000000000e+00
1.705307990000000107e+00,-3.236612035679999622e+01,3.717169926829999582e+01,-5.928647121660000074e+00,-9.060029983519999774e+00,3.777839660640000208e+00,1.109883904460000181e+00,0.000000000000000000e+00
1.710058019999999956e+00,-1.777156621809999848e+01,3.284060015549999889e+01,-1.970823103109999863e+01,-4.445751667019999687e+00,7.542130470280000054e+00,2.486537694929999986e-01,0.000000000000000000e+00
1.715000501000000011e+00,-1.351206957549999865e+00,1.265204059970000117e+01,-2.364658287190000152e+01,-4.395615160470000005e-01,7.545168876650000023e+00,1.286479473109999994e+00,0.000000000000000000e+00
1.719948086000000043e+00,4.941574943419999144e+00,3.643606677969999819e+00,-1.118218081309999867e+01,1.287107586860000152e+00,7.673139572140000197e+00,8.938120007510000908e-01,0.000000000000000000e+00
1.725116051000000095e+00,1.432486275299999967e+01,-6.458159656310000329e+00,-6.229111831220000006e+00,8.387988805769999168e-01,5.789494991299999782e+00,3.958997428419999687e-01,0.000000000000000000e+00
1.729990362999999975e+00,6.797856890590000312e+00,-1.382043906690000057e+01,-1.377122466189999983e+01,-4.227947890759999883e-01,3.521426439290000321e+00,4.686205983160000033e-01,0.000000000000000000e+00
1.735065504000000036e+00,9.440922252410000937e+00,-1.174797228329999932e+01,-1.575064374390000133e+01,-2.298981428149999839e+00,5.715391635890000321e-01,-1.425309479240000066e-01,0.000000000000000000e+00
1.739986344999999934e+00,1.902056002479999952e+00,-7.641708930890000140e+00,-9.349953110719999572e+00,-3.667759895319999242e+00,-1.260039687160000144e+00,1.613441556690000112e-01,0.000000000000000000e+00
1.745152118000000030e+00,-2.823511068560000115e-01,-1.839839054149999820e+00,-1.142068795589999830e+01,-4.213026046750000475e+00,-1.348136782649999921e+00,4.567984938620000546e-01,0.000000000000000000e+00
1.749963694000000070e+00,-1.472440158479999983e+00,1.480700767949999941e+00,-1.227176351770000018e+01,-3.948162317280000444e+00,-6.846554279330000492e-01,5.330547094349999959e-01,0.000000000000000000e+00
1.754823256999999970e+00,-4.704907875500000003e+00,3.387379754059999470e+00,-1.291811028769999936e+01,-3.133375406270000330e+00,-9.014180302619999308e-02,1.017675250770000012e-01,0.000000000000000000e+00
1.759818023000000009e+00,-5.437469286099999799e+00,1.028023898740000064e+01,-1.565109966609999859e+01,-2.012826681140000407e+00,1.350323438639999818e+00,-2.461308538910000066e-01,0.000000000000000000e+00
1.764789557999999925e+00,-2.969298134370000231e+00,9.230451702019999871e+00,-1.386669345309999990e+01,-1.437204480170000132e+00,1.617904305459999970e+00,-2.311601191759999896e-01,0.000000000000000000e+00
1.769865462000000056e+00,1.105769723210000111e+00,7.272678634630000971e+00,-1.454143395829999896e+01,-1.021286129950000010e+00,1.615844368930000163e+00,-9.399361908440000135e-02,0.000000000000000000e+00
1.774859895000000076e+00,2.864573146790000191e+00,2.855206768029999953e+00,-1.418246153019999944e+01,-7.313914895059999699e-01,8.981611728669999239e-01,3.883235156539999733e-01,0.000000000000000000e+00
1.780030006999999914e+00,1.739628182990000216e+00,1.262467036220000116e+00,-1.401495275420000119e+01,-3.614206612110000272e-01,-2.652529440820000292e-02,6.363965868950000049e-01,0.000000000000000000e+00
1.784851307999999914e+00,1.038956898449999944e+00,2.071339898409999825e-01,-1.276438804500000046e+01,1.098600849510000116e-01,-7.250929474830000165e-01,6.201047301290000258e-01,0.000000000000000000e+00
1.789979887000000103e+00,-2.630956771680000306e-01,2.246023899819999947e-01,-1.226479484779999929e+01,4.095052480699999387e-01,-1.375199913979999966e+00,5.864179134370000046e-01,0.000000000000000000e+00
1.794974435999999951e+00,-5.130563437569999330e-01,3.748336122530000064e-02,-1.063095562830000063e+01,5.291330814360000190e-01,-1.790293693540000008e+00,5.499442219729999692e-01,0.000000000000000000e+00
1.799999595999999924e+00,-3.393331940459999974e+00,-2.498117596379999805e-01,-9.935162982669998755e+00,4.438762068750000123e-01,-1.650318264959999892e+00,5.738918781280000214e-01,0.000000000000000000e+00
1.805195211000000022e+00,-3.944906084790000378e+00,-1.252111500290000068e+00,-8.479227092010001243e+00,3.782589733599999726e-01,-1.471446156500000102e+00,5.769432187080000274e-01,1.000000000000000000e+00
1.810064259000000009e+00,-5.885438094530000441e+00,-8.504455202899999788e-01,-7.549660177269999828e+00,1.963875889779999884e-01,-1.130268573760000006e+00,5.658416151999999810e-01,1.000000000000000000e+00
1.815239333999999927e+00,-6.847507933459999308e+00,-5.192055140369999933e-01,-6.251122587500000272e+00,1.599807478490000018e-02,-8.100997209550000466e-01,5.320950150490000308e-01,1.000000000000000000e+00
1.820166541000000082e+00,-6.645844958910000599e+00,2.547796294449999888e-01,-6.128817227299999892e+00,-1.460995078089999955e-01,-5.242255926129999466e-01,5.986493229870000210e-01,1.000000000000000000e+00
1.825143975000000029e+00,-6.281284501530000064e+00,1.549396556910000111e+00,-5.739380687339999731e+00,-2.410853505130000074e-01,-3.068801760670000212e-01,5.558686256409999249e-01,1.000000000000000000e+00
1.830137040000000104e+00,-6.510761365680000523e+00,2.244451974319999987e+00,-5.737652256119999628e+00,-2.632244825360000040e-01,-1.210819631809999936e-01,4.069421589370000314e-01,1.000000000000000000e+00
1.835165697000000096e+00,-6.429629727390000049e+00,2.222203171509999908e+00,-6.245736802809999766e+00,-3.082472383980000008e-01,6.398900598289999908e-02,2.166751623150000028e-01,1.000000000000000000e+00
1.840309858999999992e+00,-6.097464642180000283e+00,1.750781737430000096e+00,-6.534456714050000059e+00,-3.565091490749999759e-01,2.238911390300000193e-01,6.294238567349999536e-02,1.000000000000000000e+00
1.845159769999999977e+00,-5.673343742330000161e+00,8.900065463050000902e-01,-6.219029413150000352e+00,-4.376519322399999856e-01,4.153945446010000042e-01,2.194125391540000317e-02,1.000000000000000000e+00
1.850193251999999955e+00,-5.233724829100000697e+00,-6.834151754410000557e-01,-5.941079317729999865e+00,-5.040256381030000510e-01,6.479458212850000010e-01,5.955803394320000055e-02,1.000000000000000000e+00
1.855102915000000019e+00,-4.205454963550000258e+00,-2.338164423370000300e+00,-6.862986657619999598e+00,-6.067506670950000291e-01,8.554423451420000157e-01,1.528673321010000086e-01,1.000000000000000000e+00
1.860292483000000052e+00,-1.917925333390000153e+00,-2.950569760770000105e+00,-9.980567474009999884e+00,-7.135026454930000206e-01,9.635254144670000187e-01,2.903398871419999860e-01,1.000000000000000000e+00
1.865189825999999940e+00,1.044091082999999975e-01,-2.515746557379999970e+00,-1.250476563339999991e+01,-7.930989265440000491e-01,8.936164975170000080e-01,4.243635833259999934e-01,1.000000000000000000e+00
1.870096580000000008e+00,-2.420635749299999973e-01,-1.346888948219999937e+00,-1.318927349940000049e+01,-7.758521437639999130e-01,6.554908156390000240e-01,4.581008255479999680e-01,1.000000000000000000e+00
1.875094787999999957e+00,-6.757493900540000320e-01,-9.805977215300000216e-01,-1.349441379960000020e+01,-6.779713630679998770e-01,3.775583207609999881e-01,5.167738795280000241e-01,1.000000000000000000e+00
1.880100440000000095e+00,-1.188608896060000086e+00,1.219841836860000028e-01,-1.276604574900000166e+01,-5.611895322800000141e-01,6.616225093600000551e-02,5.619326829909999654e-01,1.000000000000000000e+00
1.885172166000000038e+00,-1.873548285399999846e+00,1.239790947899999995e+00,-1.161894375239999988e+01,-3.822916746140000432e-01,-1.233395785090000002e-01,5.539523363109999377e-01,1.000000000000000000e+00
1.889998950000000066e+00,-2.551994513320000380e+00,1.811233575779999772e+00,-1.078560842989999990e+01,-2.401149421930000305e-01,-2.455918192859999905e-01,4.957208931449999523e-01,1.000000000000000000e+00
1.895268979999999992e+00,-3.157181882159999731e+00,2.007549782479999934e+00,-1.010139516289999939e+01,-1.422927081579999919e-01,-3.001491427419999969e-01,3.968707621099999416e-01,1.000000000000000000e+00
1.900137197999999916e+00,-3.734085990319999659e+00,1.601639662100000194e+00,-9.373380748049999767e+00,-1.107862740760000020e-01,-2.813633680339999721e-01,3.455284833910000075e-01,1.000000000000000000e+00
1.905327089999999890e+00,-3.943144920340000414e+00,7.643163659749999672e-01,-9.025719403029999199e+00,-1.038956567649999968e-01,-2.199535667900000269e-01,3.092683851720000043e-01,1.000000000000000000e+00
1.910291718999999944e+00,-4.046901939669999670e+00,-7.007365317939999450e-02,-9.091164227360000183e+00,-8.868040889499999302e-02,-1.419707685709999945e-01,3.236875236030000158e-01,1.000000000000000000e+00
1.915234659000000006e+00,-3.523091708319999515e+00,-1.043258139310000027e-01,-9.416131510019999595e+00,-9.044285118580000504e-02,-1.152805387969999956e-01,3.130144774909999761e-01,1.000000000000000000e+00
1.920138903000000008e+00,-3.226775642860000293e+00,1.853955476980000128e-01,-9.773433959100000123e+00,-1.224195361140000132e-01,-8.798160403969999821e-02,2.921416759490000348e-01,1.000000000000000000e+00
1.925167046999999965e+00,-2.669296073880000009e+00,5.904324654370000092e-01,-1.018340942919999925e+01,-1.200541853900000122e-01,-9.362266957760000119e-02,2.416051328180000290e-01,1.000000000000000000e+00
1.930079048999999936e+00,-2.512018769019999986e+00,8.478575496229999731e-01,-1.073589016700000087e+01,-1.097417026760000025e-01,-1.310782581569999994e-01,2.061402797700000178e-01,1.000000000000000000e+00
1.935102485000000039e+00,-2.391843698849999811e+00,5.161429481279999898e-01,-1.107275597719999993e+01,-4.374917596580000373e-02,-1.714521050450000250e-01,1.799875199790000047e-01,1.000000000000000000e+00
1.940094369000000096e+00,-2.273958493189999874e+00,-1.833175358480000072e-01,-1.129814761789999977e+01,3.666219115259999883e-02,-2.464047670360000053e-01,1.596783399579999874e-01,1.000000000000000000e+00
1.945087946999999984e+00,-2.382269960949999987e+00,-7.281869218430000457e-01,-1.147574173459999969e+01,7.549190521239999840e-02,-3.347099721429999675e-01,1.564735919239999828e-01,1.000000000000000000e+00
1.950290617999999920e+00,-2.206578463000000045e+00,-4.426083773730000170e-01,-1.204144318849999884e+01,1.412397027019999807e-01,-4.586950540540000176e-01,1.992094665769999773e-01,1.000000000000000000e+00
1.955286297000000006e+00,-2.065945565089999825e+00,-5.591742075379999566e-01,-1.246112873619999917e+01,1.416302472350000063e-01,-6.311376690859999972e-01,1.608909964559999961e-01,1.000000000000000000e+00
1.960281672999999891e+00,-1.468702433249999828e+00,-8.868358803799998302e-01,-1.347169460279999953e+01,2.343745231630000037e-01,-8.266661167139999211e-01,1.753969043490000157e-01,1.000000000000000000e+00
1.965183770999999968e+00,-3.030452641099999900e-01,-1.086338388960000012e+00,-1.511253054930000062e+01,3.012831807140000095e-01,-1.050007224080000023e+00,2.362100630999999784e-01,1.000000000000000000e+00
1.970144630000000063e+00,3.586917480080000220e-01,-4.245321109999999898e-01,-1.663419884900000056e+01,2.608782649040000123e-01,-1.351409554479999775e+00,2.249866873030000047e-01,1.000000000000000000e+00
1.975126936000000111e+00,6.131013568299999994e-01,7.422928232800001247e-01,-1.696059704130000156e+01,1.770259737970000247e-01,-1.752918481829999875e+00,2.063370943070000074e-01,1.000000000000000000e+00
1.980135095999999928e+00,1.183183948409999964e+00,2.585719965050000013e+00,-1.779968522819999777e+01,4.259739071130000387e-02,-2.272958755490000371e+00,1.011050269009999975e-01,0.000000000000000000e+00
1.985230537000000073e+00,2.229652902990000296e+00,2.504825934909999940e+00,-1.727869034649999946e+01,-4.137173667550000239e-02,-2.744542360309999651e+00,-5.078157782549999610e-02,0.000000000000000000e+00
1.990116478000000022e+00,2.382772795909999797e+00,1.473666631529999993e+00,-1.632941744529999895e+01,2.315916493540000343e-02,-3.184096813200000042e+00,-1.335881948469999914e-01,0.000000000000000000e+00
1.995122419000000091e+00,2.315399195470000393e+00,1.365371091979999951e+00,-1.617182449859999949e+01,1.260959357020000060e-01,-3.625446319579999965e+00,-1.366688013079999930e-01,0.000000000000000000e+00
2.000135108999999911e+00,2.260806750670000032e+00,2.654350433679999899e+00,-1.601639428289999856e+01,1.545076370239999997e-01,-4.094580650330000182e+00,-1.795813739299999823e-01,0.000000000000000000e+00
2.005187703999999904e+00,1.653342669070000159e+00,2.116465353620000212e+00,-1.543300987279999958e+01,8.268443495039999591e-02,-4.463006496430000247e+00,-3.284012079239999604e-01,0.000000000000000000e+00
2.010288334000000177e+00,3.870725873080000490e+00,2.438174365129999632e+00,-1.425531633849999835e+01,7.348258793350000151e-02,-4.887794017790000112e+00,-3.828120231629999481e-01,0.000000000000000000e+00
2.015293037000000176e+00,1.828110914700000089e+00,2.230543714349999984e+00,-1.429916950880000037e+01,-4.543370008469999749e-02,-5.139537334439999938e+00,-5.251590609549999789e-01,0.000000000000000000e+00
2.020161014000000144e+00,8.698710823799998826e-01,2.012705411679999834e+00,-1.326902566609999923e+01,-1.509793102739999948e-01,-5.373748779299999612e+00,-5.640615224839999886e-01,0.000000000000000000e+00
2.025106785000000187e+00,4.018090417340000053e-01,1.288450787779999995e+00,-1.248871349329999880e+01,-2.153204530479999879e-01,-5.664299488069999278e+00,-5.907024741170000537e-01,0.000000000000000000e+00
2.030135360000000055e+00,2.888715946659999867e-01,9.316326881579999331e-01,-1.138291615140000168e+01,-2.166610211129999797e-01,-5.876910209659999218e+00,-5.433816909790000205e-01,0.000000000000000000e+00
2.035288803999999896e+00,2.005447111110000014e-01,4.787448357680000322e-01,-1.160050208670000060e+01,-2.806178331379999835e-01,-6.067248344419999384e+00,-5.804365873340000537e-01,0.000000000000000000e+00
2.040130317000000026e+00,-1.309465226499999968e+00,-7.480231836259999545e-01,-1.187117897630000130e+01,-3.514399826529999715e-01,-6.284106731410000535e+00,-6.167002320290000394e-01,0.000000000000000000e+00
2.045168492999999810e+00,-3.239947843649999992e+00,-8.447942165299999751e-01,-1.238825873030000047e+01,-5.034379959110000247e-01,-6.468153476719999517e+00,-5.679908394810000427e-01,0.000000000000000000e+00
2.050108407999999827e+00,-5.420669542469999769e+00,-1.532178441729999729e+00,-1.350252813250000017e+01,-6.594654321670000430e-01,-6.634541034700000672e+00,-6.155275702479999778e-01,0.000000000000000000e+00
2.055288555000000184e+00,-9.911051454720000820e+00,-4.167080224709999392e+00,-1.466203251459999990e+01,-8.866175413129999683e-01,-6.737577438350000669e+00,-6.111696958540000502e-01,0.000000000000000000e+00
2.060297579000000212e+00,-1.568525328009999953e+01,-5.622814163060000148e+00,-1.515914266279999900e+01,-1.152864933010000037e+00,-6.783370018010000280e+00,-4.949858486649999501e-01,0.000000000000000000e+00
2.065292845000000099e+00,-1.917852677319999799e+01,-6.016945582840000029e+00,-1.450673556990000002e+01,-1.487220287320000001e+00,-6.563292026519999212e+00,-2.810271978380000091e-01,0.000000000000000000e+00
2.070292434999999820e+00,-2.043084271009999853e+01,-3.427581123800000018e+00,-1.424159527170000139e+01,-1.892737627029999814e+00,-6.010172843930000397e+00,-1.201848685740000006e-01,0.000000000000000000e+00
2.075138754000000141e+00,-1.955837130900000176e+01,-1.848846098079999889e+00,-1.243802492400000048e+01,-2.397974014279999899e+00,-5.149288654330000270e+00,4.397960007190000048e-02,0.000000000000000000e+00
2.080141466999999800e+00,-1.654423742310000023e+01,-1.592703053059999929e+00,-1.169291382849999827e+01,-2.889411449430000278e+00,-4.261332988740000438e+00,1.681972146029999948e-01,0.000000000000000000e+00
2.085211848999999784e+00,-1.493050341849999896e+01,-2.882401064420000214e+00,-1.213322715369999827e+01,-3.405983686449999936e+00,-3.643775701519999632e+00,2.980109751220000325e-01,0.000000000000000000e+00
2.090138791999999857e+00,-1.442423030520000005e+01,-3.061627458500000287e+00,-1.323905605970000110e+01,-4.015901088709999733e+00,-3.262712478640000135e+00,2.654597461220000176e-01,0.000000000000000000e+00
2.095279415999999895e+00,-1.909535632260000071e+01,-7.598778720709999934e-01,-1.758972145829999789e+01,-4.348260879519999733e+00,-3.236340999599999879e+00,-4.590868577359999425e-02,0.000000000000000000e+00
2.100133781999999893e+00,-1.881127751520000047e+01,-3.873055923459999828e-01,-1.475171103200000111e+01,-4.258644104000000041e+00,-3.025326013569999972e+00,-2.699290215969999962e-01,0.000000000000000000e+00
2.105320283999999820e+00,-1.386218678930000081e+01,1.068635047549999939e+00,-1.255748132450000121e+01,-3.971790075299999501e+00,-2.882480144499999675e+00,-3.231529593470000017e-01,0.000000000000000000e+00
2.110280323000000013e+00,-1.040657287239999995e+01,3.206554984869999902e+00,-1.224254443749999943e+01,-3.565782785420000156e+00,-2.649961233139999983e+00,-2.986491620539999947e-01,0.000000000000000000e+00
2.115282721999999893e+00,-7.867005294489998413e+00,1.474021363250000161e-01,-1.123653433459999995e+01,-3.429294824599999902e+00,-2.528833866120000273e+00,-3.114127553999999562e-02,0.000000000000000000e+00
2.120116158000000084e+00,-1.340587071599999847e-01,-2.152259574449999935e+00,-8.937029896709999477e+00,-3.276448011399999860e+00,-2.573228597640000448e+00,1.957900375130000037e-01,0.000000000000000000e+00
2.125173982999999822e+00,-1.099886890330000000e+01,-6.558738922389999448e-01,-9.274951353480000549e+00,-3.418318510059999760e+00,-3.431576728820000088e+00,5.099745392800000277e-01,0.000000000000000000e+00
2.130118239999999830e+00,-2.087355491309999778e+01,-3.922985929409999795e+00,-1.673643289660000022e+01,-3.518720626830000420e+00,-4.362760066989999963e+00,5.478899478909999843e-01,0.000000000000000000e+00
2.135054212000000007e+00,-2.316406472809999784e+01,-6.236134861730000090e+00,-2.143738940409999927e+01,-3.509233236309999615e+00,-4.182224750519999645e+00,7.992510199550000305e-01,0.000000000000000000e+00
2.140089299000000000e+00,-1.916442109099999769e+01,-3.561927050410000017e+00,-2.105203984119999916e+01,-3.319260358809999811e+00,-3.671656370159999572e+00,5.989463925360000163e-01,0.000000000000000000e+00
2.145014970000000076e+00,-1.459416718509999988e+01,-1.739186576699999875e+00,-2.106397577819999967e+01,-3.359915018079999705e+00,-2.784538269040000458e+00,1.491129398350000135e-01,0.000000000000000000e+00
2.150286937000000176e+00,-1.697624819940000052e+01,-5.657602567849999708e+00,-2.176858418300000153e+01,-3.662479162219999473e+00,-1.376062750820000069e+00,3.635970354079999800e-01,0.000000000000000000e+00
2.155281764000000155e+00,-1.331536071630000073e+01,-8.015210235099999636e+00,-2.132056919729999933e+01,-3.849857807159999812e+00,-3.561709821219999905e-01,5.957029461860000596e-01,0.000000000000000000e+00
2.160133007999999855e+00,-8.593494691700000132e+00,-6.897642375939999404e+00,-2.024356189659999927e+01,-3.956736326219999711e+00,1.337974071499999917e-01,1.006001830099999994e+00,0.000000000000000000e+00
2.165151746999999904e+00,-4.411215436550000035e+00,-5.680221226890000530e+00,-1.955311996430000221e+01,-4.003845214840000111e+00,1.412556022410000056e-01,1.242227554320000094e+00,0.000000000000000000e+00
2.170090293999999975e+00,-3.574391102919999952e+00,-5.110072145950000255e+00,-1.895436029040000037e+01,-4.015231609339999785e+00,-1.804273873570000075e-01,1.407032728199999916e+00,0.000000000000000000e+00
2.175065528000000192e+00,-2.787234178780000349e+00,-4.122563622119999494e+00,-1.842302287849999942e+01,-3.989338159559999486e+00,-3.947018086909999668e-01,1.460128068920000244e+00,0.000000000000000000e+00
2.180044452000000188e+00,-2.555918408770000205e+00,-4.135489739180000512e+00,-1.787534106540000067e+01,-3.944882154459999679e+00,-4.063826203349999999e-01,1.541332840920000002e+00,0.000000000000000000e+00
2.185119738000000034e+00,-3.396346612109999441e+00,-5.035106044549999993e+00,-1.765304388359999876e+01,-3.910736083979999833e+00,-1.812324523930000097e-01,1.696047425270000186e+00,0.000000000000000000e+00
2.190082453000000040e+00,-3.724930623959999743e+00,-6.086088677170000238e+00,-1.725150072630000153e+01,-3.821066141130000204e+00,1.987308859829999830e-01,1.926574826240000204e+00,0.000000000000000000e+00
2.195057293000000076e+00,-2.263119557650000058e+00,-7.280620533539999606e+00,-1.657686075880000232e+01,-3.838035583500000403e+00,6.138792634009999638e-01,2.111052274700000009e+00,0.000000000000000000e+00
2.200144003000000126e+00,-2.654313901070000092e-01,-8.346794890069999084e+00,-1.609265217769999978e+01,-3.911311149599999926e+00,9.315244555470000298e-01,2.266983985900000054e+00,0.000000000000000000e+00
2.205307273999999929e+00,1.002386432560000040e+00,-8.487603875210000481e+00,-1.526566359390000116e+01,-4.024206161499999546e+00,1.188581943510000016e+00,2.350756645200000161e+00,0.000000000000000000e+00
2.210251883000000195e+00,1.695750170559999992e+00,-8.681759250610001644e+00,-1.422702898619999878e+01,-4.139571189880000723e+00,1.391678214070000141e+00,2.381936550140000275e+00,0.000000000000000000e+00
2.215132523999999936e+00,1.977161366220000049e+00,-9.221385182989999763e+00,-1.288969784769999904e+01,-4.221229553219999708e+00,1.609268426899999938e+00,2.333598613739999994e+00,0.000000000000000000e+00
2.220130598999999982e+00,1.936860189359999929e+00,-1.090961825589999989e+01,-1.181229774819999889e+01,-4.314488887790000504e+00,1.849285602569999964e+00,2.325643301009999941e+00,0.000000000000000000e+00
2.225177497999999865e+00,1.373558636220000073e+00,-1.252919397219999986e+01,-1.081242161800000012e+01,-4.362356185909999517e+00,2.135683774949999947e+00,2.410388946529999910e+00,0.000000000000000000e+00
2.230074971000000073e+00,1.240232408060000013e+00,-1.389737033089999940e+01,-9.600446459410001410e+00,-4.458460807799999870e+00,2.475879669190000243e+00,2.572719097140000244e+00,0.000000000000000000e+00
2.235085390000000061e+00,1.589096553000000078e+00,-1.453670050010000026e+01,-8.150510685949999612e+00,-4.487287521359999865e+00,2.811102390290000308e+00,2.738097190859999586e+00,0.000000000000000000e+00
2.240079823999999942e+00,2.228475383640000196e+00,-1.485108209130000034e+01,-6.678958708480000617e+00,-4.472301959990000242e+00,3.057815313339999896e+00,2.925233364110000345e+00,0.000000000000000000e+00
2.245083381999999794e+00,3.063910016479999943e+00,-1.558056424059999934e+01,-5.319288312360000326e+00,-4.346965789790000478e+00,3.270420551299999978e+00,3.061977624890000360e+00,0.000000000000000000e+00
2.250129552999999838e+00,3.086137338120000351e+00,-1.593540994419999990e+01,-4.032453727600000093e+00,-4.166923046109999973e+00,3.405773878100000207e+00,3.140923261640000241e+00,0.000000000000000000e+00
2.255081579000000058e+00,2.925981262950000161e+00,-1.624814552180000149e+01,-3.144959821700000102e+00,-3.907520055769999612e+00,3.504200458530000617e+00,3.203786849979999740e+00,0.000000000000000000e+00
2.260135325999999889e+00,1.944848119370000017e+00,-1.620259723799999918e+01,-2.605662975140000448e+00,-3.663263559340000253e+00,3.652775526050000110e+00,3.203914880749999750e+00,0.000000000000000000e+00
2.265142915000000201e+00,2.698214709850000226e+00,-1.640742656759999818e+01,-2.168995166800000263e+00,-3.349615573879999975e+00,3.614501237869999439e+00,3.053388357159999789e+00,0.000000000000000000e+00
2.270114938999999943e+00,1.060487908390000067e+00,-1.631656263989999900e+01,-1.327710054370000003e+00,-3.029998302460000126e+00,3.801856040950000182e+00,2.850610256199999970e+00,0.000000000000000000e+00
2.275093553000000046e+00,1.498175195970000040e+00,-1.610279246340000014e+01,-9.982740288010000240e-01,-2.640502452849999848e+00,3.954442977909999879e+00,2.543389081950000019e+00,0.000000000000000000e+00
2.280027920000000208e+00,1.127987984749999839e+00,-1.618989908450000215e+01,-2.432967517209999875e-01,-2.226539611820000264e+00,4.167330265050000371e+00,2.215978145599999838e+00,0.000000000000000000e+00
2.285227444999999857e+00,1.362696465950000047e+00,-1.654103307409999957e+01,4.967735001389999572e-01,-1.778647065159999707e+00,4.290875434880000228e+00,1.874181509020000025e+00,0.000000000000000000e+00
2.290132214000000221e+00,1.120854844939999984e+00,-1.639963605990000062e+01,8.997028146070000787e-01,-1.274224042889999797e+00,4.416202068329999619e+00,1.506243467329999808e+00,0.000000000000000000e+00
2.295132295999999794e+00,1.436507844350000118e+00,-1.599962434989999949e+01,1.316648269869999943e+00,-7.749509811399999393e-01,4.380216598509999670e+00,1.108239293100000022e+00,0.000000000000000000e+00
2.300124816999999933e+00,1.263464376690000002e+00,-1.535179289440000083e+01,1.553360053709999855e+00,-2.409764826300000162e-01,4.289541244509999629e+00,6.493498086929999635e-01,0.000000000000000000e+00
2.305149608999999877e+00,7.036051460330000618e-01,-1.500800634490000007e+01,1.580461557260000038e+00,2.953153252599999834e-01,4.172725677489999896e+00,1.720729321240000165e-01,0.000000000000000000e+00
2.310280468999999837e+00,1.085846586859999935e-01,-1.478518893869999928e+01,1.324475748629999838e+00,8.391731977459999658e-01,4.079357624050000020e+00,-3.642631173129999844e-01,0.000000000000000000e+00
2.315279503999999822e+00,-5.802196624480000509e-01,-1.445758663130000166e+01,8.343191458750001122e-01,1.354720711709999970e+00,3.962042808530000570e+00,-8.765841722490000931e-01,0.000000000000000000e+00
2.320135725000000093e+00,-1.482933787700000172e+00,-1.421277015920000153e+01,1.287117201090000052e-01,1.808938503270000275e+00,3.888091802599999980e+00,-1.416863918300000025e+00,0.000000000000000000e+00
2.325163341000000106e+00,-2.367143265099999727e+00,-1.414384333799999993e+01,-3.927513635959999916e-01,2.195592880249999990e+00,3.849905729290000078e+00,-1.956030845640000182e+00,0.000000000000000000e+00
2.330115028999999893e+00,-2.748271703180000358e+00,-1.426449099410000088e+01,-7.558690748209999644e-01,2.487003326419999993e+00,3.876395225520000043e+00,-2.487973928450000205e+00,0.000000000000000000e+00
2.335122174999999967e+00,-2.950487050920000076e+00,-1.418241126130000040e+01,-9.515119123000000956e-01,2.714195966719999742e+00,3.921353578569999776e+00,-2.969718217850000119e+00,0.000000000000000000e+00
2.340026712999999869e+00,-2.802752650429999992e+00,-1.346392163069999981e+01,-1.179233018820000201e+00,2.905600547790000654e+00,3.961568593980000053e+00,-3.452207088469999352e+00,0.000000000000000000e+00
2.345077637000000159e+00,-2.607485514399999982e+00,-1.248988955130000100e+01,-1.372305859679999962e+00,3.074417591090000457e+00,3.959969520569999624e+00,-3.890650987629999946e+00,0.000000000000000000e+00
2.350085034000000128e+00,-2.733995925070000332e+00,-1.154548922460000071e+01,-1.600994934460000074e+00,3.301633834840000059e+00,3.888826847080000260e+00,-4.349361896509999603e+00,0.000000000000000000e+00
2.355262107000000160e+00,-3.279946676559999386e+00,-1.084774193770000039e+01,-1.961660284090000150e+00,3.554806470869999568e+00,3.837621688840000100e+00,-4.716871738430000960e+00,0.000000000000000000e+00
2.360278463999999854e+00,-3.642086628790000002e+00,-1.015911436140000035e+01,-2.281349772480000038e+00,3.815599203110000115e+00,3.747805118560000093e+00,-5.093359470369999364e+00,0.000000000000000000e+00
2.365171066999999905e+00,-4.039157901419999419e+00,-9.830729963770000523e+00,-2.542688924840000197e+00,4.003993988040000396e+00,3.650817155839999995e+00,-5.417204856869998864e+00,0.000000000000000000e+00
2.370115279000000186e+00,-4.259479983730000363e+00,-9.736583361080000998e+00,-2.771665730510000092e+00,4.176031589509999975e+00,3.548681259159999879e+00,-5.750796794889999397e+00,0.000000000000000000e+00
2.375120434999999919e+00,-4.728047635809999427e+00,-9.651765143239998679e+00,-2.909866286719999806e+00,4.294713973999999546e+00,3.417309522630000096e+00,-6.054993629460000193e+00,0.000000000000000000e+00
2.380120267000000123e+00,-5.495145814519999838e+00,-9.613086160750000886e+00,-3.024532822599999893e+00,4.380201339719999254e+00,3.242773771289999996e+00,-6.355800151819999577e+00,0.000000000000000000e+00
2.385208409000000085e+00,-6.230043559119999408e+00,-9.679657358769999220e+00,-2.970985941330000379e+00,4.361680984499999525e+00,3.035346031190000016e+00,-6.717269897459999584e+00,0.000000000000000000e+00
2.390131824000000016e+00,-6.936864963780000615e+00,-1.000447441929999925e+01,-3.305958485170000127e+00,4.252446651459999671e+00,2.771452665330000009e+00,-7.107249736789999162e+00,0.000000000000000000e+00
2.395108535999999955e+00,-7.549317647449999669e+00,-1.124517824429999990e+01,-3.595574468469999285e+00,4.059753894810000041e+00,2.494287967680000051e+00,-7.519048690800000045e+00,0.000000000000000000e+00
2.400150671000000013e+00,-7.949016053700000306e+00,-1.264188979250000067e+01,-3.982627328159999980e+00,3.727307319639999950e+00,2.216918945309999778e+00,-7.980324745179999901e+00,0.000000000000000000e+00
2.405187622000000136e+00,-7.969654352580000101e+00,-1.347982764039999992e+01,-4.471752615099999772e+00,3.268676996229999521e+00,1.945102930070000014e+00,-8.428680419919999167e+00,0.000000000000000000e+00
2.410253956000000031e+00,-7.655287958910000690e+00,-1.384991299859999891e+01,-5.078419701100000516e+00,2.711061239240000198e+00,1.612973690030000018e+00,-8.892471313479999750e+00,0.000000000000000000e+00
2.415280876000000188e+00,-7.806876696739998955e+00,-1.295489308119999805e+01,-5.603661134299999347e+00,2.174947261809999866e+00,1.277833104129999953e+00,-9.298862457280000271e+00,0.000000000000000000e+00
2.420253946999999961e+00,-9.336208078480000339e+00,-1.160540388729999961e+01,-6.280502995770000041e+00,1.700899958609999985e+00,9.139212965970000546e-01,-9.343482971189999375e+00,0.000000000000000000e+00
2.425174586999999882e+00,-1.070981581450000064e+01,-1.028506129300000005e+01,-7.490169877430000511e+00,1.427419662479999962e+00,5.988255143170000405e-01,-9.338891029360000928e+00,0.000000000000000000e+00
2.430277535000000100e+00,-1.293923607780000040e+01,-9.028413464419999812e+00,-9.447874555760000348e+00,1.356431961059999969e+00,3.441444635390000228e-01,-9.336614608759999712e+00,0.000000000000000000e+00
2.435116708999999879e+00,-1.545300636670000038e+01,-7.445366859109999957e+00,-1.133269403059999902e+01,1.509046554570000254e+00,1.934691071510000193e-01,-9.336854934689998942e+00,0.000000000000000000e+00
2.440154466000000077e+00,-1.805389730510000135e+01,-6.539571865100000103e+00,-1.302873339339999958e+01,1.814815402029999802e+00,1.604164093730000018e-01,-9.338770866389999981e+00,0.000000000000000000e+00
2.445316800000000068e+00,-2.106367650299999994e+01,-7.585943789049999886e+00,-1.436942436380000032e+01,2.118363142009999756e+00,2.776151895520000412e-01,-9.342113494870000423e+00,0.000000000000000000e+00
2.450254644999999787e+00,-2.446153264289999996e+01,-1.051121748829999980e+01,-1.553737391820000013e+01,2.268230199809999625e+00,4.691637754440000085e-01,-9.344738006589999202e+00,0.000000000000000000e+00
2.455265434999999830e+00,-2.713626740070000309e+01,-1.359710026710000008e+01,-1.572316887700000088e+01,2.114464759829999707e+00,7.677202820780000270e-01,-9.345996856689998467e+00,0.000000000000000000e+00
2.460105443999999864e+00,-2.935261074019999938e+01,-1.648854534650000048e+01,-1.618536436369999976e+01,1.603564023970000196e+00,1.187307477000000056e+00,-9.167731285100000349e+00,0.000000000000000000e+00
2.465086271000000107e+00,-3.141110745059999942e+01,-1.861901072999999940e+01,-1.569135919569999871e+01,7.821149229999999619e-01,1.580701947210000124e+00,-8.712724685669998692e+00,0.000000000000000000e+00
2.470053807000000212e+00,-3.187368404560000101e+01,-1.848039136380000258e+01,-1.447158242349999924e+01,-1.885121166710000129e-01,1.926164627080000136e+00,-8.180006980900000002e+00,0.000000000000000000e+00
2.475084396999999825e+00,-3.454011157829999945e+01,-1.715586242370000036e+01,-1.324335930990000065e+01,-1.143130660059999970e+00,2.266349792479999792e+00,-7.619177818300000737e+00,0.000000000000000000e+00
2.480088663000000082e+00,-3.491593577249999925e+01,-1.388698337689999995e+01,-1.196706277799999896e+01,-1.861599802970000272e+00,2.394587993620000077e+00,-6.896792888639999397e+00,0.000000000000000000e+00
2.485106941000000180e+00,-3.631420097990000073e+01,-9.778589442160001255e+00,-1.006553591399999981e+01,-2.257215261459999844e+00,2.444046735759999756e+00,-6.037927150730000747e+00,0.000000000000000000e+00
2.490074513999999795e+00,-3.765626090059999598e+01,-6.976734032829999599e+00,-8.738809756089999325e+00,-2.128882408139999960e+00,2.358472585679999955e+00,-5.030876636509999500e+00,0.000000000000000000e+00
2.495045760000000001e+00,-3.913772929190000127e+01,-4.819288872440000482e+00,-6.807527220730000828e+00,-1.665832400320000017e+00,2.188852071759999962e+00,-3.938749074940000039e+00,0.000000000000000000e+00
2.500102946000000159e+00,-4.054329868489999456e+01,-3.789493989280000363e+00,-4.499467135980000698e+00,-1.057557940479999958e+00,1.981689333920000129e+00,-2.830651283259999929e+00,0.000000000000000000e+00
2.505195876999999793e+00,-4.027106112189999720e+01,-3.897397606899999811e+00,-9.848428848200000418e-01,-4.225734770300000331e-01,1.847528100009999896e+00,-1.829589962959999649e+00,0.000000000000000000e+00
2.510254532999999899e+00,-3.923917423489999834e+01,-5.035410580459999785e+00,1.887169545119999903e+00,1.667490303520000050e-01,1.782710790629999931e+00,-9.180206060409999980e-01,0.000000000000000000e+00
2.515100375999999915e+00,-3.787853820859999843e+01,-6.159633805850000421e+00,4.563458838889999925e+00,7.073296904559999154e-01,1.762150883670000168e+00,-8.866376429800000569e-02,0.000000000000000000e+00
2.520058097000000163e+00,-3.650480187769999674e+01,-5.696496069859999345e+00,7.296952659660000506e+00,1.208552360529999925e+00,1.684071302410000026e+00,6.449717879300000956e-01,0.000000000000000000e+00
2.525082099000000024e+00,-3.449993388170000230e+01,-3.182518275730000124e+00,9.947291811880001333e+00,1.724601149559999769e+00,1.569385409359999928e+00,1.177819728850000081e+00,0.000000000000000000e+00
2.530252341999999821e+00,-3.155931180670000202e+01,-9.228386841910000971e-02,1.225271394930000035e+01,2.294433116909999626e+00,1.369886755939999867e+00,1.544301629070000015e+00,0.000000000000000000e+00
2.535094981999999941e+00,-2.883531822020000135e+01,3.320378640189999953e+00,1.356271401339999905e+01,2.966664791109999921e+00,9.905490279200001025e-01,1.796906709669999991e+00,0.000000000000000000e+00
2.540058354000000129e+00,-4.033357690700000120e+01,-1.356762399720000012e+01,-1.252041796060000101e+00,2.813793897630000096e+00,6.758283972740000145e-01,2.113073825840000364e+00,0.000000000000000000e+00
2.545087821000000083e+00,-4.560401906319999910e+01,-1.834345892789999866e+01,8.542030461919999595e+00,2.171084165569999946e+00,-5.939679741860000028e-01,4.202843666080000595e+00,0.000000000000000000e+00
2.550255282999999817e+00,-2.764629782070000275e+01,-1.113283898230000091e+01,4.446889976519999621e+00,-1.748327165839999864e-01,-1.303594112399999894e+00,5.380660533910000431e+00,0.000000000000000000e+00
2.555236072000000025e+00,-2.808372594590000304e+01,1.727365410590000039e+01,7.908956430510000857e+00,-3.833885669709999444e+00,-7.454233765600000172e-01,6.351892948150000606e+00,0.000000000000000000e+00
2.560249745000000132e+00,-4.461240339630000307e+01,4.718373856990000093e+01,-1.210792670819999906e+01,-8.423122406010000063e+00,-8.033385872840000941e-01,6.662493228910000731e+00,0.000000000000000000e+00
2.565218382999999935e+00,-3.960396265579999664e+01,1.969619923249999971e+01,-6.555460339109999701e+00,-9.502372741700000347e+00,3.701521754259999852e-01,5.119566440579999878e+00,0.000000000000000000e+00
2.570253081000000162e+00,-4.306575847619999564e+01,3.753305654569999650e+00,-8.874752011970000964e+00,-8.805561065669998300e+00,2.678889989850000042e+00,2.498974800109999617e+00,0.000000000000000000e+00
2.575254689999999957e+00,-1.418497614339999835e+01,1.279766721420000053e+01,-1.528878377270000044e+01,-6.763452529909999456e+00,4.594966411590000632e+00,1.037345170970000119e+00,0.000000000000000000e+00
2.580098178000000075e+00,7.145232988930000140e+00,2.937247980829999960e+01,-2.101894187369999756e+01,-5.712031841279999966e+00,6.110351562500000000e+00,2.647229135040000125e-01,0.000000000000000000e+00
2.585186783000000155e+00,2.455801148789999999e+01,2.822597986919999968e+01,-2.042220347650000178e+01,-5.020494461060000191e+00,5.872645378109999648e+00,1.420160382990000025e-01,0.000000000000000000e+00
2.590095980000000075e+00,1.683546727130000065e+01,1.832087767819999868e+01,-1.990788968009999849e+01,-4.089063644409999476e+00,4.540757656100000261e+00,7.084270715710000443e-01,0.000000000000000000e+00
2.595197017999999911e+00,5.398511486679999472e+00,7.331921097189999514e+00,-1.823618162549999866e+01,-2.671116352079999867e+00,2.825722932820000199e+00,4.087910652160000047e-01,0.000000000000000000e+00
2.600105570000000199e+00,1.203155015550000151e+00,2.758183733129999649e+00,-1.103594045050000005e+01,-1.214853882789999950e+00,4.480654597279999929e-01,4.711090028289999787e-01,0.000000000000000000e+00
2.605088847999999846e+00,-1.032400447929999920e+01,-1.707219805210000052e+00,-9.735251820220000241e+00,-8.612875938420000432e-01,-1.220361351970000063e+00,5.843410491939999840e-01,0.000000000000000000e+00
2.610240113999999778e+00,-6.866134892519999866e+00,-2.824703310550000235e-01,-1.193119651489999988e+01,-1.001106619830000044e+00,-1.900365352629999727e+00,6.832305788989999629e-01,0.000000000000000000e+00
2.615225864000000122e+00,4.142384174870000102e+00,6.641026160449999161e+00,-1.927826491229999917e+01,-1.109714984889999867e+00,-1.917191863060000001e+00,7.552344202999999867e-01,0.000000000000000000e+00
2.620100709999999999e+00,4.484228358049999752e-01,8.270088667010000449e+00,-1.531335356579999996e+01,-1.080215215679999785e+00,-1.255169153209999999e+00,-1.296682357789999962e-01,0.000000000000000000e+00
2.625080583999999995e+00,-3.639004444869999855e+00,4.422186620159999748e+00,-1.197734568709999969e+01,-5.913959145549999574e-01,-3.590679764749999947e-01,-1.273875594139999956e+00,0.000000000000000000e+00
2.630094437999999979e+00,-8.570266376330000213e+00,-3.062424454100000304e+00,-1.308300274369999805e+01,-5.691261291499999375e-01,9.501914978030000514e-01,-7.208669185639999810e-01,0.000000000000000000e+00
2.635085221999999838e+00,-8.306213873360001054e-01,-4.563136475069999420e+00,-8.951470509989999158e+00,-5.091634392739999848e-01,1.549003601069999903e+00,-9.476738423110001031e-02,0.000000000000000000e+00
2.640087487999999816e+00,1.090701333409999974e+00,-4.256103785290000552e+00,-1.010673769289999946e+01,-7.055145502090000020e-01,1.276372790339999952e+00,6.446694731709999848e-01,0.000000000000000000e+00
2.645079362999999795e+00,-4.910080684809999818e-01,-3.640952364069999447e+00,-9.723653736880001119e+00,-7.151821255679999823e-01,8.309905529019999681e-01,9.429440498350000199e-01,0.000000000000000000e+00
2.650115817000000096e+00,-3.599225976710000108e+00,-6.911254575579999226e-01,-9.574349310599998830e+00,-7.786450386049998951e-01,1.717696040870000107e-01,8.242634534839999860e-01,0.000000000000000000e+00
2.655225195999999954e+00,-2.363215278000000197e+00,2.810672337509999785e+00,-9.790585584910001415e+00,-8.870106935500000622e-01,-5.834005475039999444e-01,3.297061026099999959e-01,1.000000000000000000e+00
2.660243758000000014e+00,-2.283478893459999881e+00,2.214706824399999885e+00,-9.211393365810000233e+00,-8.862764835359999704e-01,-1.059019923210000158e+00,9.976801462470000215e-03,1.000000000000000000e+00
2.665230309000000020e+00,-4.924741882040000185e+00,5.206158922909999154e-01,-8.859647966339998959e+00,-7.590321302410000248e-01,-7.611756920810001104e-01,-2.236840128900000058e-02,1.000000000000000000e+00
2.670243509000000071e+00,-5.177653982309999847e+00,-1.117909530469999996e-01,-8.473169107140000378e+00,-5.222840309139999970e-01,-4.977286756040000260e-01,1.512542366980000053e-01,1.000000000000000000e+00
2.675106446000000027e+00,-4.858120122880000835e+00,1.706687744160000131e+00,-8.747299936530000153e+00,-4.074002504349999998e-01,-1.587689816950000055e-01,1.977247148750000127e-01,1.000000000000000000e+00
2.680103154999999848e+00,-4.689050965679999905e+00,2.395597498429999916e+00,-8.654649125360000639e+00,-3.393969833850000173e-01,8.942026644950000491e-02,2.444815486670000038e-01,1.000000000000000000e+00
2.685187913000000037e+00,-3.937408422509999895e+00,1.368858641839999946e+00,-8.879398960990000589e+00,-3.467851877210000322e-01,2.394946813580000056e-01,3.375110626219999799e-01,1.000000000000000000e+00
2.690095287000000113e+00,-2.871450046819999713e+00,5.062165060659999660e-02,-8.807164914910000419e+00,-3.335977494719999936e-01,2.044867575169999896e-01,3.540219068530000013e-01,1.000000000000000000e+00
2.695103093999999810e+00,-3.306203984370000182e+00,-9.181105414250000096e-02,-9.073669487210000995e+00,-3.261867463589999683e-01,1.567041873929999884e-01,3.894643783569999851e-01,1.000000000000000000e+00
2.700120925999999866e+00,-2.805202381670000022e+00,-1.627057413809999964e-01,-9.430055405960001025e+00,-2.409217059609999878e-01,5.752747505900000086e-02,3.396969437600000363e-01,1.000000000000000000e+00
2.705214991000000069e+00,-2.457511226029999829e+00,-2.374021041910000240e-01,-1.011273138039999964e+01,-1.733427494760000076e-01,-3.675208985810000245e-02,2.524350881579999761e-01,1.000000000000000000e+00
2.710212622999999876e+00,-2.877977110500000268e+00,-1.786884147419999791e-01,-1.033509169049999876e+01,-1.507031321529999912e-01,-5.773816257719999873e-02,2.137190550570000069e-01,1.000000000000000000e+00
2.715260710999999993e+00,-3.238351514370000572e+00,2.457962221199999631e-01,-1.030006713889999936e+01,-1.970726400609999762e-01,-2.486039698120000307e-02,2.562072277069999959e-01,1.000000000000000000e+00
2.720095595000000088e+00,-3.190573864150000105e+00,6.020880876459999698e-01,-1.058555815120000076e+01,-2.210316658020000102e-01,3.255059570069999964e-02,3.405055105690000250e-01,1.000000000000000000e+00
2.725258804000000090e+00,-2.679142929640000226e+00,8.938955165680000370e-01,-1.051010455860000015e+01,-2.259932011369999993e-01,4.340928047899999392e-02,3.722435235980000590e-01,1.000000000000000000e+00
2.730220136999999880e+00,-2.994320055159999772e+00,9.381674967540000187e-01,-1.078713169390000104e+01,-1.669254601000000060e-01,-1.994537375870000101e-02,3.554017841820000245e-01,1.000000000000000000e+00
2.735226384000000177e+00,-3.063625354319999605e+00,8.712794148079999745e-01,-1.047190488400000064e+01,-1.239150986079999989e-01,-9.701057523489999002e-02,2.937602698800000356e-01,1.000000000000000000e+00
2.740240975999999939e+00,-3.124326783519999928e+00,7.568656846430000806e-01,-1.023074167380000077e+01,-8.443327248099999349e-02,-2.202980816360000094e-01,2.534301579000000082e-01,1.000000000000000000e+00
2.745110244999999782e+00,-3.004713731150000289e+00,2.776791512560000119e-01,-1.028423010280000049e+01,-5.889564380049999714e-02,-2.689305543900000206e-01,2.298870831729999953e-01,1.000000000000000000e+00
2.750238634000000015e+00,-3.026770664649999887e+00,5.429854445450000427e-02,-1.054189085890000044e+01,-1.726500689980000128e-02,-2.533796131609999946e-01,2.036426961420000070e-01,1.000000000000000000e+00
2.755120667999999995e+00,-3.007360446259999875e+00,1.628994555890000140e-01,-1.049199022520000035e+01,-4.195637255910000113e-02,-2.859876751900000125e-01,1.783020645380000158e-01,1.000000000000000000e+00
2.760218426999999863e+00,-2.805038715540000283e+00,3.173997700139999933e-01,-1.068933416750000021e+01,-5.990565940740000261e-02,-2.731369137759999677e-01,1.642278879880000042e-01,1.000000000000000000e+00
2.765240363999999840e+00,-2.427453795289999938e+00,1.057802048570000014e-01,-1.106648873349999818e+01,-4.534379392860000274e-02,-3.123931586740000266e-01,1.543247848750000095e-01,1.000000000000000000e+00
2.770205931000000010e+00,-1.978515118909999648e+00,1.183656461289999962e-01,-1.163379294640000161e+01,1.309732627120000110e-02,-4.279509782789999717e-01,1.341296732430000138e-01,1.000000000000000000e+00
2.775217909999999844e+00,-1.924893564970000082e+00,1.884375274760000107e-01,-1.216271277589999933e+01,7.652854174380001318e-02,-5.396840572359999921e-01,1.276482343669999853e-01,1.000000000000000000e+00
2.780086279999999910e+00,-1.723107256300000056e+00,-1.687955370230000141e-02,-1.258846566089999897e+01,9.833692759279999418e-02,-7.209421396259999559e-01,1.054116860029999936e-01,1.000000000000000000e+00
2.785083643000000109e+00,-1.540979880090000087e+00,1.034324178889999973e-01,-1.302755149010000046e+01,1.194740980859999857e-01,-9.027448892589999829e-01,1.029962822789999982e-01,1.000000000000000000e+00
2.790089896000000014e+00,-1.161364696109999928e+00,3.830480444990000399e-01,-1.367704181880000114e+01,1.304333359000000025e-01,-1.117719292639999917e+00,1.123236194250000070e-01,1.000000000000000000e+00
2.795235782999999863e+00,-7.607640803210000691e-01,3.463018567080000110e-01,-1.485280292369999877e+01,1.456808000800000058e-01,-1.357344746590000151e+00,1.457255929709999898e-01,1.000000000000000000e+00
2.800087935000000083e+00,-3.440514793990000209e-02,2.639462478490000041e-01,-1.598345413640000068e+01,1.455388665200000042e-01,-1.671376109119999898e+00,1.526638716460000100e-01,1.000000000000000000e+00
2.805229371999999888e+00,5.466997432269999901e-01,1.645641008650000070e-01,-1.623444549770000123e+01,1.850753426550000025e-01,-2.023446559909999998e+00,1.608185470100000070e-01,0.000000000000000000e+00
2.810234620000000128e+00,9.064033351589999565e-01,1.149441837799999866e-01,-1.649715418479999940e+01,1.773358881469999926e-01,-2.429767370220000000e+00,1.301517188550000148e-01,0.000000000000000000e+00
2.815239151000000106e+00,1.106886452279999933e+00,1.007546884059999925e+00,-1.623861547690000151e+01,1.493754833940000026e-01,-2.872125148770000358e+00,8.985839039090000313e-02,0.000000000000000000e+00
2.820236350000000058e+00,7.361386845649999788e-01,5.494020244560000599e-01,-1.588986282950000017e+01,9.460320323710000312e-02,-3.276297807689999786e+00,3.111167810859999730e-02,0.000000000000000000e+00
2.825254092999999855e+00,1.500630334039999791e+00,-6.821633487489999759e-01,-1.544796194279999924e+01,5.099313333630000472e-02,-3.683252811430000051e+00,3.499154373999999873e-02,0.000000000000000000e+00
2.830242882999999932e+00,1.341506232270000210e+00,9.842615230010000327e-02,-1.469474703569999896e+01,4.874394275249999652e-03,-4.061521053309999907e+00,8.139586076139999557e-03,0.000000000000000000e+00
2.835229179000000155e+00,1.413522105560000020e+00,1.072959226329999946e-02,-1.439944891510000069e+01,-1.242468729620000017e-01,-4.332837104800000283e+00,-6.229124590750000773e-02,0.000000000000000000e+00
2.840238639999999926e+00,1.260014382370000074e+00,2.872512451889999707e-01,-1.440485691170000138e+01,-2.636128664019999901e-01,-4.646726608279999837e+00,-1.230743229390000026e-01,0.000000000000000000e+00
2.845230362000000124e+00,6.779146052640000475e-01,1.309613713320000039e-01,-1.388390528460000084e+01,-3.946909606459999553e-01,-4.864300727840000782e+00,-1.805712431669999896e-01,0.000000000000000000e+00
2.850210194000000197e+00,1.573890216040000123e+00,3.621440438870000000e-01,-1.301937519789999875e+01,-4.945116639140000325e-01,-5.127534866330000440e+00,-1.808018237350000057e-01,0.000000000000000000e+00
2.855203808000000176e+00,1.788837327320000004e+00,1.522520057760000101e-01,-1.270868310890000075e+01,-5.432775020600000282e-01,-5.405661582949999655e+00,-1.526972502470000104e-01,0.000000000000000000e+00
2.860217483000000005e+00,1.911624187420000176e+00,4.322416624639999760e-01,-1.165308684500000069e+01,-6.012133955960000664e-01,-5.706239700319999386e+00,-1.173158213500000019e-01,0.000000000000000000e+00
2.865237626999999954e+00,2.804771296779999812e-01,1.098519386749999965e-01,-1.178323298180000123e+01,-7.020784616470000516e-01,-5.895757675169999601e+00,-6.828730553390000013e-02,0.000000000000000000e+00
2.870233746999999891e+00,7.509316184189999445e-03,-5.808491194579999961e-01,-1.188477144829999865e+01,-8.515764474869998990e-01,-6.160817146300000324e+00,-4.011376574639999998e-02,0.000000000000000000e+00
2.875084655000000211e+00,-8.938027967829998977e-01,-2.081403684850000158e+00,-1.142028580480000066e+01,-1.019057273860000112e+00,-6.395543098450000130e+00,-5.848500505089999912e-02,0.000000000000000000e+00
2.880237777000000055e+00,-3.191504130739999834e+00,-3.784221309579999915e+00,-1.115844104109999968e+01,-1.163893103599999979e+00,-6.676755905150000281e+00,1.060305535789999795e-02,0.000000000000000000e+00
2.885124943000000108e+00,-6.601298545700000631e+00,-5.587146637350000056e+00,-1.258456456180000060e+01,-1.291737794879999957e+00,-6.875466346739998791e+00,1.990744322540000111e-01,0.000000000000000000e+00
2.890058841000000101e+00,-1.114094162469999993e+01,-6.443456008169999194e+00,-1.314930856880000043e+01,-1.389521002770000013e+00,-6.949799537660000581e+00,4.739129543299999692e-01,0.000000000000000000e+00
2.895040411000000091e+00,-1.714236464430000240e+01,-6.343863999559999911e+00,-1.333726392049999987e+01,-1.524207592010000001e+00,-6.933379650120000015e+00,7.500579357150000126e-01,0.000000000000000000e+00
2.900048213999999902e+00,-2.116765827100000052e+01,-4.549575274969999583e+00,-1.367261815720000051e+01,-1.706951379779999778e+00,-6.562698364260000083e+00,8.758708238600000362e-01,0.000000000000000000e+00
2.905106973000000092e+00,-2.272918511840000022e+01,-2.162490899469999839e+00,-1.344098849890000125e+01,-2.033089637759999846e+00,-5.871392726900000802e+00,8.922814726829999543e-01,0.000000000000000000e+00
2.910195235000000213e+00,-2.078888808650000186e+01,-2.024101981090000280e+00,-1.269907006190000054e+01,-2.379872798920000143e+00,-4.983355045319999732e+00,8.967310190200000752e-01,0.000000000000000000e+00
2.915218814000000158e+00,-1.837611499680000193e+01,-2.298774223879999745e+00,-1.352633804710000121e+01,-2.762050390239999764e+00,-4.040333747860000102e+00,9.618096351620000206e-01,0.000000000000000000e+00
2.920209589999999800e+00,-1.557277256380000097e+01,-3.602942074619999602e+00,-1.384034320630000181e+01,-3.236186504359999994e+00,-3.367458105089999876e+00,1.116796970370000031e+00,0.000000000000000000e+00
2.925231113999999799e+00,-1.364039463439999977e+01,-4.415088770849999733e+00,-1.391270935430000044e+01,-3.783783674240000394e+00,-3.040624380109999692e+00,1.166605949400000064e+00,0.000000000000000000e+00
