t,ax,ay,az,wx,wy,wz,zv
4.926388999999999768e-03,-2.342907526249999872e+00,-1.518898944650000082e-01,-9.519330018689998951e+00,7.586895371789998494e-04,-3.737301798539999914e-03,-5.430083256209999876e-03,1.000000000000000000e+00
1.015179700000000060e-02,-2.364841125639999930e+00,-1.803350859710000087e-01,-9.520589663360000898e+00,2.037337515500000067e-03,-2.364789135750000170e-03,-7.873076945540000149e-03,1.000000000000000000e+00
1.505027999999999921e-02,-2.340549711079999984e+00,-1.662869791349999848e-01,-9.533196046960000558e+00,-2.978462493049999996e-03,2.218057401480000128e-03,-6.132309790700000117e-03,1.000000000000000000e+00
2.003376600000000146e-02,-2.375010199080000106e+00,-1.291358638050000007e-01,-9.506819496689999482e+00,-3.855668706820000128e-03,-6.408505141740000050e-03,6.201253272590000372e-03,1.000000000000000000e+00
2.501508100000000151e-02,-2.402078969399999764e+00,-1.755584644200000044e-01,-9.526817159580000194e+00,5.997055675829999002e-03,1.215468626469999938e-03,1.240530237560000075e-02,1.000000000000000000e+00
3.005936899999999898e-02,-2.342760811249999797e+00,-1.528650505069999999e-01,-9.508429269969999709e+00,3.804038278760000363e-03,-1.581671275200000060e-02,-2.271989127619999937e-03,1.000000000000000000e+00
3.503415499999999738e-02,-2.359446280859999856e+00,-1.447336569019999908e-01,-9.515538809710001544e+00,9.963914752010000209e-03,-4.799204878510000480e-03,1.052634883670000056e-02,1.000000000000000000e+00
4.014987500000000153e-02,-2.340257596259999850e+00,-1.400003813020000154e-01,-9.525787232010001659e+00,-1.299847010519999957e-02,-7.857635617260000024e-03,4.414916969840000475e-03,1.000000000000000000e+00
4.500688299999999753e-02,-2.284399077050000226e+00,-1.722313110250000001e-01,-9.526427867999998966e+00,5.122891743669999789e-04,-5.432535428549999795e-03,-1.458148099479999842e-02,1.000000000000000000e+00
5.019645600000000041e-02,-2.384407411369999785e+00,-1.674510544779999888e-01,-9.526289920830000924e+00,4.712875466789999933e-03,5.182470195000000307e-03,1.440287288280000036e-02,1.000000000000000000e+00
5.502950699999999834e-02,-2.315438650699999990e+00,-1.601064638690000153e-01,-9.509156999720000059e+00,9.846342727539999715e-03,7.381689734760000544e-03,-2.339316997679999951e-04,1.000000000000000000e+00
6.014895800000000237e-02,-2.370669247269999946e+00,-1.744345018910000156e-01,-9.523961185619999270e+00,-7.517642807220000639e-03,6.495583802459998926e-04,2.778448397290000146e-03,1.000000000000000000e+00
6.516303099999999626e-02,-2.315730765510000122e+00,-1.436416147479999961e-01,-9.521841124730000772e+00,5.059518385679999918e-03,1.097465865310000028e-03,-6.119795143600000303e-04,1.000000000000000000e+00
7.014837000000000156e-02,-2.357311460779999646e+00,-1.493532155939999995e-01,-9.501064878680001158e+00,5.471943877639999683e-03,3.774482756850000217e-03,9.250545874240000480e-03,1.000000000000000000e+00
7.515575600000000411e-02,-2.321343344690000254e+00,-1.639610386720000146e-01,-9.535824057370000162e+00,-2.098936121910000355e-03,-1.172599568959999984e-02,5.485180765390000601e-03,1.000000000000000000e+00
8.016455599999999793e-02,-2.292936896030000060e+00,-1.161529567820000081e-01,-9.506544771399999760e+00,-5.394660984169999743e-04,-5.896249786020000064e-03,-9.279017336669999685e-03,1.000000000000000000e+00
8.503948999999999536e-02,-2.351218112350000222e+00,-1.660612623540000110e-01,-9.510288049580001513e+00,-1.482306979599999934e-03,6.089751608669999837e-03,-6.010502576829999596e-03,1.000000000000000000e+00
8.998944899999999913e-02,-2.366230680300000166e+00,-1.626674917300000023e-01,-9.533926114799999851e+00,-6.685569416730000047e-03,-3.457727376369999685e-03,6.360549014060000190e-04,1.000000000000000000e+00
9.503607399999999816e-02,-2.338783432059999612e+00,-1.376836196590000005e-01,-9.526257772130000134e+00,-3.817747812720000047e-03,-4.106185398999999750e-03,2.045227913189999903e-03,1.000000000000000000e+00
9.998908700000000427e-02,-2.353083467829999886e+00,-1.568194598220000180e-01,-9.541407994989999253e+00,-5.026128143069999790e-03,9.156614542010001754e-04,6.906652823089999907e-03,1.000000000000000000e+00
1.050494170000000060e-01,-2.336032818170000080e+00,-1.910749815740000190e-01,-9.511498009889999494e+00,-5.190797615800000001e-03,8.553029969330000135e-03,5.885494872929999781e-03,1.000000000000000000e+00
1.103741580000000000e-01,-2.339049974039999924e+00,-1.638407550269999902e-01,-9.536023379339999551e+00,-7.018635980780000248e-03,-6.843150127680000354e-03,-6.219223141669999802e-03,1.000000000000000000e+00
1.150563829999999982e-01,-2.363079230529999908e+00,-1.758498303159999887e-01,-9.542384731060000291e+00,1.064544450489999898e-02,-1.958064967769999800e-03,2.360299462449999899e-03,1.000000000000000000e+00
1.200211890000000003e-01,-2.388523029999999991e+00,-1.520758820240000198e-01,-9.550463408099998830e+00,2.824194380080000490e-04,8.097449317570000514e-04,1.616783067580000038e-02,1.000000000000000000e+00
1.250288549999999943e-01,-2.321099599070000075e+00,-1.473220476930000022e-01,-9.540497309880000998e+00,-4.976905882359999519e-03,7.596659474069999800e-03,8.462183177470000359e-03,1.000000000000000000e+00
1.300696819999999920e-01,-2.343435641780000189e+00,-1.378658626239999963e-01,-9.553272620299999573e+00,-2.693974878639999754e-03,2.234113868330000162e-03,4.883416928350000838e-03,1.000000000000000000e+00
1.350260889999999880e-01,-2.341082941170000264e+00,-1.436852438269999865e-01,-9.540001635319999451e+00,7.404656615110000173e-03,-5.386610515420000092e-03,-1.754659577270000024e-03,1.000000000000000000e+00
1.400644480000000081e-01,-2.357476734350000047e+00,-1.305556492090000076e-01,-9.534172783039998933e+00,2.562508452679999622e-03,2.915301825849999848e-03,6.925438065080000323e-04,1.000000000000000000e+00
1.450846530000000079e-01,-2.333718403749999837e+00,-1.474206126969999919e-01,-9.556847556180001035e+00,-1.661330228670000178e-03,-1.112445024769999954e-03,-6.704534869640000477e-03,1.000000000000000000e+00
1.501981779999999878e-01,-2.353893615170000064e+00,-1.209137962419999934e-01,-9.521020456000000465e+00,-1.258395612240000060e-03,-1.518156379459999900e-02,-7.815853692590000318e-03,1.000000000000000000e+00
1.550681879999999957e-01,-2.341366580419999899e+00,-1.733095712480000050e-01,-9.522231000830000625e+00,-5.144271417519999216e-04,-2.644097898159999700e-03,-8.427356369789999399e-03,1.000000000000000000e+00
1.601815420000000101e-01,-2.364867282990000152e+00,-1.496112546089999884e-01,-9.537570608779999404e+00,-1.885376311840000069e-02,-6.430875975640000172e-03,-2.983629936349999501e-03,1.000000000000000000e+00
1.650836350000000063e-01,-2.353925471609999764e+00,-1.291416724910000036e-01,-9.501272968469999469e+00,9.364211582580000189e-04,1.424967311320000062e-02,6.253231316800000016e-03,1.000000000000000000e+00
1.700711940000000089e-01,-2.358456100779999787e+00,-1.290992581220000157e-01,-9.499835629149998795e+00,-6.208046805109999552e-03,-1.315262541170000160e-02,1.353243272749999997e-02,1.000000000000000000e+00
1.750795480000000015e-01,-2.310454578669999925e+00,-1.494588405260000030e-01,-9.513010752539999615e+00,8.638462051749999648e-03,-6.026960443710000642e-03,-1.904973760250000124e-04,1.000000000000000000e+00
1.801892190000000116e-01,-2.353247133960000070e+00,-1.494232668889999838e-01,-9.513854802150000012e+00,3.053075168280000324e-03,1.352483965460000125e-02,1.805184176190000132e-03,1.000000000000000000e+00
1.849588799999999922e-01,-2.361136572029999936e+00,-1.161656701329999986e-01,-9.516670444089999847e+00,5.060276016590000044e-03,-7.113521918649999207e-03,1.114254165439999833e-02,1.000000000000000000e+00
1.900455020000000050e-01,-2.296970389330000195e+00,-1.615229248049999955e-01,-9.528704580760001264e+00,-6.361880805340000729e-03,9.650141000749999989e-03,-4.695992451160000379e-03,1.000000000000000000e+00
1.950669869999999972e-01,-2.381989682710000000e+00,-1.253638618529999971e-01,-9.491903667100000774e+00,4.647042369469999725e-04,-6.706112064419999901e-03,5.908494349570000579e-04,1.000000000000000000e+00
2.000529900000000139e-01,-2.316542081890000215e+00,-1.422116550099999932e-01,-9.502190667839998994e+00,1.338829379530000023e-02,-3.766722045839999890e-03,-1.239316910510000064e-02,1.000000000000000000e+00
2.050435280000000027e-01,-2.375862431999999913e+00,-1.360964874649999989e-01,-9.488696395499999880e+00,-8.238893933589999316e-03,6.708695553239999582e-03,-2.383645158260000365e-03,1.000000000000000000e+00
2.100891510000000018e-01,-2.342498945450000036e+00,-1.757512653119999990e-01,-9.530492048699999330e+00,-5.455652251839999446e-03,-2.051383722569999866e-03,-3.669749479739999390e-03,1.000000000000000000e+00
2.151073789999999875e-01,-2.359511308920000161e+00,-1.519131200770000023e-01,-9.529167522090000730e+00,-4.765860503540000296e-04,3.162723500280000249e-03,-1.574113033710000100e-03,1.000000000000000000e+00
2.200114830000000077e-01,-2.353281036220000288e+00,-1.529900925249999821e-01,-9.521618421889998629e+00,6.477352231739999175e-03,7.410970516500000119e-03,-9.362747892739999370e-03,1.000000000000000000e+00
2.250775240000000010e-01,-2.370877629320000235e+00,-1.410945423470000015e-01,-9.510549915389999498e+00,-5.668969359249999805e-03,-5.674766376610000489e-03,5.354050546880000441e-03,1.000000000000000000e+00
2.299833209999999906e-01,-2.315214924940000252e+00,-1.662275222990000079e-01,-9.517124617600000391e+00,-8.343314751980000082e-03,-1.918362919239999936e-03,5.505648441609999576e-03,1.000000000000000000e+00
2.350286769999999914e-01,-2.325504556029999836e+00,-1.592909462350000083e-01,-9.556582183239997974e+00,-1.006641518320000074e-02,3.217001911250000085e-03,-9.226821362969999177e-03,1.000000000000000000e+00
2.400607939999999940e-01,-2.371242955500000082e+00,-1.660085092540000140e-01,-9.507657701080001189e+00,1.353702973570000039e-03,3.238254692410000302e-03,-1.508719287809999981e-05,1.000000000000000000e+00
2.451447820000000055e-01,-2.338904281959999665e+00,-1.482889747629999866e-01,-9.518739651580000682e+00,7.967730984089999718e-03,3.882469609379999957e-03,-3.500884864480000285e-03,1.000000000000000000e+00
2.500508559999999880e-01,-2.360246637449999962e+00,-1.505575407489999906e-01,-9.513426347599999389e+00,-2.960007404910000237e-03,2.895775251090000201e-04,-5.267358850689999109e-03,1.000000000000000000e+00
2.550550420000000096e-01,-2.414485592640000178e+00,-1.528777273249999902e-01,-9.509621110099999441e+00,8.656498976049999822e-03,6.043975241479999233e-03,1.694906316700000096e-02,1.000000000000000000e+00
2.600308769999999936e-01,-2.300587264649999852e+00,-1.494439352180000069e-01,-9.507326277160000672e+00,2.049746224660000098e-03,1.823707111180000034e-02,3.086395794530000410e-03,1.000000000000000000e+00
2.651936910000000092e-01,-2.320134553429999968e+00,-1.412894347320000077e-01,-9.532089547019999998e+00,-1.107172667979999976e-02,-1.715315878389999868e-02,-6.879011169079999981e-03,1.000000000000000000e+00
2.700548970000000160e-01,-2.371146071000000077e+00,-1.062807656569999953e-01,-9.479382623710000288e+00,4.797690547999999833e-03,-6.178956478829999294e-03,9.843637235460000589e-04,1.000000000000000000e+00
2.751807319999999835e-01,-2.325714545520000343e+00,-1.475157984330000005e-01,-9.556457095560000781e+00,8.135097101330000802e-03,-7.739000022409999423e-03,3.537216456609999955e-03,1.000000000000000000e+00
2.800815569999999810e-01,-2.348067393230000022e+00,-1.551280361360000137e-01,-9.481883208350000203e+00,1.644499041139999701e-02,-8.812582120300000224e-03,7.768939249220000419e-03,1.000000000000000000e+00
2.851371010000000039e-01,-2.359101705200000065e+00,-1.316877128460000046e-01,-9.518128241689998603e+00,-2.984443446619999482e-03,-8.603956550360000038e-03,2.265197038649999911e-02,1.000000000000000000e+00
2.900596710000000189e-01,-2.310754438400000055e+00,-1.411633241340000122e-01,-9.519987021289999518e+00,3.251926740630000073e-03,-1.062283664940000087e-02,4.870499484240000017e-03,1.000000000000000000e+00
2.950475370000000264e-01,-2.331436138029999938e+00,-1.337270001210000003e-01,-9.488785242819998800e+00,-3.745633643119999912e-03,-7.000959012659999960e-03,-6.531444843860000071e-03,1.000000000000000000e+00
2.999545359999999938e-01,-2.327720624639999958e+00,-1.484884793900000111e-01,-9.531399811189999127e+00,-8.864276111130000094e-03,-2.771421801299999918e-03,-2.928526140750000069e-03,1.000000000000000000e+00
3.050569229999999799e-01,-2.317011306840000007e+00,-1.292288393179999995e-01,-9.501935816299999615e+00,2.953423652800000413e-03,-9.411979466680001072e-03,-9.253863245249999104e-04,1.000000000000000000e+00
3.102347289999999869e-01,-2.363191604859999906e+00,-1.160303898480000012e-01,-9.504497775739999099e+00,-1.416569296270000014e-02,-5.889242049309999921e-03,5.207289941609999535e-03,1.000000000000000000e+00
3.150546100000000127e-01,-2.315703877499999841e+00,-1.458392617900000077e-01,-9.507073763710000236e+00,-2.364418003709999831e-03,1.095386501399999921e-02,-5.800177343189999099e-03,1.000000000000000000e+00
3.200657239999999959e-01,-2.364855008030000150e+00,-1.493659563449999950e-01,-9.506732987450000394e+00,7.978946901859998789e-03,6.425019819289999904e-04,2.733110217380000252e-03,1.000000000000000000e+00
3.250382920000000064e-01,-2.382662759660000074e+00,-1.721224803560000016e-01,-9.528943065689999159e+00,3.372959326949999653e-03,-1.170539390300000086e-02,1.524827908720000243e-02,1.000000000000000000e+00
3.300966089999999853e-01,-2.275504407450000155e+00,-1.450019524489999934e-01,-9.526475214269998659e+00,-1.519775483759999843e-03,-1.147026196120000006e-04,9.956142865120001101e-03,1.000000000000000000e+00
3.350450489999999837e-01,-2.384662409050000154e+00,-1.399028940110000063e-01,-9.521684472860000525e+00,1.217368757349999910e-03,4.636843223120000208e-04,1.766611449420000049e-02,1.000000000000000000e+00
3.401415649999999791e-01,-2.299241695260000107e+00,-1.755575145719999730e-01,-9.510075868130000387e+00,-7.932647131380000547e-04,4.832104779779999512e-03,-8.084381930530000135e-03,1.000000000000000000e+00
3.452305270000000093e-01,-2.391450023360000010e+00,-1.314904549739999984e-01,-9.516627773989998929e+00,-2.584886504340000099e-03,1.301746442909999975e-02,-2.938763238489999936e-03,1.000000000000000000e+00
3.500589159999999977e-01,-2.343576949940000098e+00,-1.291256164059999823e-01,-9.503379585359999382e+00,-1.051548589020000028e-02,5.337798036629999750e-03,-3.863349091260000288e-03,1.000000000000000000e+00
3.550569880000000178e-01,-2.354907029990000122e+00,-1.482889747629999866e-01,-9.518739651580000682e+00,-6.362917833029999200e-03,1.176259014759999978e-02,8.101686835290000015e-04,1.000000000000000000e+00
3.600782120000000086e-01,-2.333944029199999992e+00,-1.638362067159999935e-01,-9.527074933730000694e+00,-2.304361667480000087e-03,1.216865982860000119e-02,-3.513856325300000142e-03,1.000000000000000000e+00
3.650804830000000112e-01,-2.326911207949999838e+00,-1.434377170729999873e-01,-9.498003737550000380e+00,-1.385889109219999929e-02,9.000110439959999389e-03,-8.450136519969999368e-04,1.000000000000000000e+00
3.700535110000000016e-01,-2.304322944049999933e+00,-1.400623132230000012e-01,-9.517325693130000985e+00,-1.507679233329999903e-03,-1.337322406470000009e-02,-6.031402852389999673e-03,1.000000000000000000e+00
3.750778390000000240e-01,-2.341821192319999856e+00,-1.544167460610000042e-01,-9.535671497160000953e+00,3.936394117769999659e-03,-7.468000985680000106e-03,-3.224484622480000388e-03,1.000000000000000000e+00
3.802071539999999916e-01,-2.349259233359999754e+00,-1.291795020179999920e-01,-9.507132215900000460e+00,1.586139388379999987e-02,8.385256864129999113e-03,1.794257899749999823e-03,1.000000000000000000e+00
3.850731989999999771e-01,-2.320585073670000220e+00,-1.577738196709999874e-01,-9.511753445960000164e+00,1.927009783690000191e-03,9.084277786309999728e-03,-6.829269230369999777e-03,1.000000000000000000e+00
3.900433110000000037e-01,-2.353712997899999770e+00,-1.361091003509999897e-01,-9.492135722289999578e+00,-7.586361374709999807e-03,-1.489053480329999984e-02,-1.055652555079999826e-02,1.000000000000000000e+00
3.952084550000000140e-01,-2.382324175359999963e+00,-1.253845301810000146e-01,-9.485375142120000547e+00,9.542671032250000379e-03,-7.971888408060000611e-03,5.890816450119999541e-03,1.000000000000000000e+00
3.999907650000000259e-01,-2.360480300079999871e+00,-1.351868709400000090e-01,-9.522034601469998805e+00,1.969502540310000011e-03,-4.201671108600000225e-03,6.798353046180000830e-03,1.000000000000000000e+00
4.051974500000000146e-01,-2.339167462940000330e+00,-1.566967467569999883e-01,-9.537131632839999540e+00,-2.179596200590000130e-02,2.104247454550000132e-03,-7.629930973050000863e-03,1.000000000000000000e+00
4.101868630000000127e-01,-2.378310263539999969e+00,-1.760229218600000145e-01,-9.564873041729999414e+00,1.797901000829999884e-03,4.762911237779999564e-03,5.632247775789999897e-03,1.000000000000000000e+00
4.151834509999999812e-01,-2.306392736059999837e+00,-1.459252321729999913e-01,-9.519984683210001464e+00,-5.491578485820000248e-05,5.630042869600000114e-04,-1.380186155439999847e-02,1.000000000000000000e+00
4.201171189999999833e-01,-2.348091650890000270e+00,-1.468234322549999971e-01,-9.475417811729998974e+00,3.490533563309999648e-04,6.012420635669999585e-04,1.500406535339999896e-03,1.000000000000000000e+00
4.250650120000000198e-01,-2.330136015220000356e+00,-1.325718296030000132e-01,-9.482368361519998956e+00,1.334693841640000045e-02,1.299636624750000018e-02,2.229212084790000055e-03,1.000000000000000000e+00
4.300380340000000134e-01,-2.335628329029999950e+00,-1.542525319430000097e-01,-9.517707970449999166e+00,1.659015892069999913e-03,-4.273602738980000065e-03,6.471970118580000052e-04,1.000000000000000000e+00
4.349675650000000005e-01,-2.370057398980000229e+00,-1.758965555339999931e-01,-9.548311198500000430e+00,1.626136898990000051e-02,-5.222592037170000444e-03,1.212890818720000104e-02,1.000000000000000000e+00
4.400707620000000042e-01,-2.352280480880000191e+00,-1.400413069669999844e-01,-9.537222818260000068e+00,-7.796984165909999140e-03,-7.044948171819998863e-03,3.876379923900000451e-03,1.000000000000000000e+00
4.450348029999999788e-01,-2.336129410419999886e+00,-1.460763036820000027e-01,-9.525591417170000241e+00,1.882051583380000160e-03,9.558828547600000183e-03,1.419973466550000091e-02,1.000000000000000000e+00
4.500313919999999746e-01,-2.338688154990000267e+00,-1.242591063479999980e-01,-9.494784775499999441e+00,5.076533183460000057e-03,-4.856078419829999542e-03,5.917202681299999802e-03,1.000000000000000000e+00
4.550376230000000022e-01,-2.359330253259999566e+00,-1.495559533579999822e-01,-9.532692189089999601e+00,1.241517718879999767e-02,1.118005160239999955e-02,6.679484620689999687e-03,1.000000000000000000e+00
4.601900749999999762e-01,-2.339361378069999997e+00,-1.444891532220000108e-01,-9.492488188989998577e+00,-9.442250244319999250e-03,7.457314990459999217e-03,2.847158117219999573e-03,1.000000000000000000e+00
4.651790190000000269e-01,-2.350435291409999738e+00,-1.411447198980000095e-01,-9.515388003069999101e+00,-4.715228918939999743e-03,-1.983462274070000100e-02,8.318547159430001239e-03,1.000000000000000000e+00
4.700490440000000270e-01,-2.314173014670000139e+00,-1.125148834069999992e-01,-9.502696279280000269e+00,2.218134002760000206e-03,-4.745058715340000691e-03,-7.872886490080000400e-04,1.000000000000000000e+00
4.751830980000000260e-01,-2.319741170190000368e+00,-1.649576484940000198e-01,-9.514292024519999558e+00,-9.250750765200000877e-03,-4.031164571639999500e-03,-6.281875539569999924e-03,1.000000000000000000e+00
4.800532270000000268e-01,-2.350830428200000100e+00,-1.389345695680000159e-01,-9.533401798659999926e+00,-1.738105900589999699e-03,8.602820336819999580e-03,1.212077913809999881e-03,1.000000000000000000e+00
4.850379470000000248e-01,-2.340506602590000096e+00,-1.337875255360000126e-01,-9.485902380860000704e+00,8.968456648290001193e-03,-5.200126208359999620e-03,6.601765751839999870e-03,1.000000000000000000e+00
4.900090189999999901e-01,-2.324516860159999698e+00,-1.365421762729999988e-01,-9.528859479059999416e+00,5.682514165529999701e-04,-7.385292556139999402e-04,4.365641623739999720e-03,1.000000000000000000e+00
4.950585189999999747e-01,-2.299492601279999882e+00,-1.591692378179999923e-01,-9.526684473110000440e+00,-9.775422513480000030e-04,1.324349083009999928e-02,-4.101036582140000011e-03,1.000000000000000000e+00
5.000263109999999456e-01,-2.381147386659999921e+00,-1.519506573420000006e-01,-9.535024431429999225e+00,1.166521850970000072e-02,-2.505499403920000319e-03,7.149943150580000475e-03,1.000000000000000000e+00
5.049574140000000488e-01,-2.304770687820000052e+00,-1.484216612319999851e-01,-9.533119474590000308e+00,-8.078905753789999977e-03,-6.555440835649999770e-03,-1.257784478370000195e-02,1.000000000000000000e+00
5.101146810000000142e-01,-2.383926203729999749e+00,-1.439073804120000188e-01,-9.561748772219999637e+00,-7.848023436960000279e-03,-1.930763246489999906e-03,7.438939996060000420e-03,1.000000000000000000e+00
5.149685800000000091e-01,-2.342089926259999899e+00,-1.399920609979999897e-01,-9.520133736289999149e+00,8.998158387840000591e-03,-1.000154577200000096e-02,8.046258240939999432e-03,1.000000000000000000e+00
5.199981890000000551e-01,-2.376427810800000096e+00,-1.303959925350000049e-01,-9.525159455499998984e+00,1.884819194669999989e-02,-7.935643196110000672e-03,8.541341871020000087e-03,1.000000000000000000e+00
5.250188409999999584e-01,-2.284610235580000204e+00,-1.388750122680000032e-01,-9.515120292040000649e+00,1.869870722290000245e-02,9.473634883759999084e-03,-3.668983466919999853e-03,1.000000000000000000e+00
5.300458099999999506e-01,-2.343422343899999927e+00,-1.519380901209999857e-01,-9.522672314860001208e+00,-1.619321480389999957e-02,-5.121484398840000021e-03,1.785873668269999989e-03,1.000000000000000000e+00
5.349605830000000450e-01,-2.322716971140000197e+00,-1.219847956069999989e-01,-9.498939557089999042e+00,1.268794946370000072e-02,-6.988552398979999518e-03,-4.866626113649999766e-03,1.000000000000000000e+00
5.398802529999999766e-01,-2.348674711470000176e+00,-1.338998633369999913e-01,-9.497900277170000294e+00,-9.233982302249999288e-03,-8.630177006130000314e-03,5.890307016669999590e-03,1.000000000000000000e+00
5.449726150000000491e-01,-2.362818241509999861e+00,-1.504380334219999893e-01,-9.503602872729999262e+00,-2.363425446670000193e-03,-2.305190078909999992e-03,5.319379270079999979e-04,1.000000000000000000e+00
5.500802270000000327e-01,-2.357322566699999733e+00,-1.590980905440000093e-01,-9.532828382689999103e+00,-1.030967850239999928e-02,9.875132702290000467e-03,3.850125940519999804e-03,1.000000000000000000e+00
5.549549849999999562e-01,-2.305255840990000138e+00,-1.138062475250000011e-01,-9.513491814059999996e+00,-6.324021611359999934e-03,1.640976872299999747e-03,-8.607842959459998528e-03,1.000000000000000000e+00
5.601047519999999835e-01,-2.360615032370000144e+00,-1.533073783139999868e-01,-9.542974513649999935e+00,7.167729549109999945e-03,-3.445749403910000185e-03,6.183005869390000193e-03,1.000000000000000000e+00
5.650136970000000369e-01,-2.323060085479999870e+00,-1.375939229479999915e-01,-9.518889289189999658e+00,6.600597873330000045e-03,-4.231879953289999913e-03,-4.111268091950000085e-03,1.000000000000000000e+00
5.700653449999999456e-01,-2.370038402020000046e+00,-1.349939969829999920e-01,-9.498280800919999933e+00,4.264944698660000193e-03,-7.068523671479999375e-03,3.496966091920000047e-03,1.000000000000000000e+00
5.750012629999999847e-01,-2.337837383380000134e+00,-1.137878990179999883e-01,-9.513352113319999859e+00,3.863997757429999888e-03,-5.399549379939999616e-03,5.211278796199999772e-03,1.000000000000000000e+00
5.800279099999999799e-01,-2.348115324020000116e+00,-1.330681526199999909e-01,-9.549658521459999605e+00,5.210891249589999323e-04,-4.857332445680000513e-03,2.805225783960000382e-03,1.000000000000000000e+00
5.850077479999999941e-01,-2.299309645929999757e+00,-1.508588526500000138e-01,-9.523518702549999659e+00,1.015500724320000069e-02,3.208354115489999575e-03,4.177640657869999188e-04,1.000000000000000000e+00
5.900232010000000527e-01,-2.299299562929999929e+00,-1.361524006369999873e-01,-9.490236610669999351e+00,-1.250066852659999933e-04,7.118152454500000122e-03,-2.254620566960000017e-02,1.000000000000000000e+00
5.951715389999999717e-01,-2.431622167009999558e+00,-1.576152498420000103e-01,-9.512776359260001868e+00,-1.335982605810000050e-02,-5.279765464370000201e-04,1.613239059220000033e-03,1.000000000000000000e+00
6.000749239999999540e-01,-2.368627366180000138e+00,-1.266950465239999879e-01,-9.506346033949998997e+00,9.452029131350001001e-03,-7.504733745010000283e-03,2.458398463199999717e-03,1.000000000000000000e+00
6.050061580000000161e-01,-2.332111114689999987e+00,-1.481706182130000105e-01,-9.505581479319999971e+00,-1.145450212060000056e-02,-4.052840173239999864e-03,-5.119420588020001141e-03,1.000000000000000000e+00
6.100644939999999572e-01,-2.358163255310000039e+00,-1.708732840119999985e-01,-9.524039511559999838e+00,7.407716941090000153e-03,-1.094125444070000001e-03,-7.557597011329999538e-03,1.000000000000000000e+00
6.152059229999999879e-01,-2.356672432229999892e+00,-1.636651244650000059e-01,-9.506830602599999125e+00,-1.234798319639999857e-02,1.954090315849999707e-03,3.080086316909999870e-04,1.000000000000000000e+00
6.200533409999999801e-01,-2.340100359870000091e+00,-1.521513127470000004e-01,-9.544351062700000554e+00,-5.452542565759999939e-03,1.063457224520000105e-03,7.697280496359999898e-03,1.000000000000000000e+00
6.250908309999999579e-01,-2.296217817400000083e+00,-1.220444533730000031e-01,-9.494936751190000024e+00,-1.007462106650000057e-02,1.817791722710000030e-02,9.614669252189999519e-04,1.000000000000000000e+00
6.300046719999999878e-01,-2.354486028100000183e+00,-1.529451117389999948e-01,-9.509019052560001128e+00,2.767642959949999978e-03,1.630862243470000060e-05,2.917552134020000298e-03,1.000000000000000000e+00
6.350376859999999901e-01,-2.332163429389999987e+00,-1.447333098420000019e-01,-9.522203528300000386e+00,1.324825733900000108e-02,-8.915315847839998557e-04,-6.458802148699999829e-03,1.000000000000000000e+00
6.400782299999999703e-01,-2.387010433479999971e+00,-1.206830744920000115e-01,-9.500322535880000530e+00,-5.454494617879999604e-03,-2.763256430629999934e-03,1.987019320950000108e-03,1.000000000000000000e+00
6.450827599999999773e-01,-2.374026010350000160e+00,-1.325098794160000093e-01,-9.488582413730000553e+00,-4.525008145719999937e-03,5.346817895770000946e-03,8.612946607169999838e-03,1.000000000000000000e+00
6.501791260000000516e-01,-2.367399870209999868e+00,-1.275530607260000060e-01,-9.475958494480000383e+00,-1.386615633960000017e-02,2.443957142530000029e-03,-8.927020244300000072e-04,1.000000000000000000e+00
6.550540750000000134e-01,-2.361528201699999663e+00,-1.327804491189999991e-01,-9.512927165910001648e+00,3.337574424220000110e-03,-5.343483295289999484e-03,7.864864543080000298e-03,1.000000000000000000e+00
6.601048659999999568e-01,-2.341909893510000007e+00,-1.185107993539999960e-01,-9.515282789129999585e+00,1.163438661019999950e-03,-8.828614372760001071e-04,4.293500445780000160e-03,1.000000000000000000e+00
6.651839109999999611e-01,-2.353266130920000254e+00,-1.433193148580000076e-01,-9.493760693150001373e+00,-8.393017575140000741e-03,7.241735234860000384e-03,8.779218420389998945e-03,1.000000000000000000e+00
6.700645520000000355e-01,-2.321786850679999681e+00,-1.577551880349999935e-01,-9.511611991660000598e+00,-1.843328936959999856e-04,6.324483547359999874e-04,-1.709797652440000126e-03,1.000000000000000000e+00
6.750191690000000300e-01,-2.347147648039999979e+00,-1.495525558249999887e-01,-9.524866610030001013e+00,-2.013885648919999747e-03,9.441632777450000361e-03,2.001196378839999960e-03,1.000000000000000000e+00
6.801522519999999572e-01,-2.326733805559999979e+00,-1.270826028039999944e-01,-9.529351061970000814e+00,-2.591959200799999908e-03,1.124013960360000126e-02,8.294136263430000600e-03,1.000000000000000000e+00
6.851668050000000454e-01,-2.322065667619999996e+00,-1.317833461069999879e-01,-9.526195812810000163e+00,6.410510279239999519e-03,9.610909968610000312e-03,-6.383245345210000624e-04,1.000000000000000000e+00
6.900462339999999806e-01,-2.374034632050000315e+00,-1.434105824709999977e-01,-9.515167053789999940e+00,-3.610308980570000204e-03,4.753155168150000227e-03,-7.556696422399999426e-03,1.000000000000000000e+00
6.951080069999999722e-01,-2.348410799840000340e+00,-1.594391590670000136e-01,-9.555369300319998871e+00,7.692980114369999886e-03,-6.179418414830000318e-04,3.383967792619999894e-03,1.000000000000000000e+00
7.000149549999999943e-01,-2.319296056779999837e+00,-1.376976847170000018e-01,-9.518452066810001000e+00,-4.659246653319999362e-03,5.719475448130000028e-03,-2.119015669449999910e-03,1.000000000000000000e+00
7.049902120000000050e-01,-2.373306610040000209e+00,-1.399238363340000180e-01,-9.507245613139998497e+00,7.905616075730001122e-04,1.324639469389999984e-02,1.198504492640000037e-02,1.000000000000000000e+00
7.100162549999999850e-01,-2.281429559719999833e+00,-1.282988741249999898e-01,-9.524978253710001397e+00,9.585885331030000872e-03,-2.234589774159999711e-04,-4.215774126350000164e-03,1.000000000000000000e+00
7.151671069999999686e-01,-2.338190142340000222e+00,-1.318506848550000110e-01,-9.531513792960000231e+00,-1.712615485300000124e-04,1.287291944029999961e-02,-1.884843106380000273e-03,1.000000000000000000e+00
7.201916419999999652e-01,-2.323287902890000201e+00,-1.114407239700000024e-01,-9.504584284979999964e+00,-3.575464943420000093e-03,7.969636470079999660e-03,-8.463715203110000734e-04,1.000000000000000000e+00
7.249845089999999992e-01,-2.362451307890000241e+00,-1.555284153640000000e-01,-9.527179563149999808e+00,-4.856276791539999697e-05,2.184344455599999957e-03,3.293874906380000155e-03,1.000000000000000000e+00
7.300714969999999582e-01,-2.360341329999999793e+00,-1.411705393260000163e-01,-9.518834928649999583e+00,2.799924835560000172e-02,7.632079068570000969e-04,4.658774472770000306e-03,1.000000000000000000e+00
7.351737280000000263e-01,-2.332596560109999828e+00,-1.507596757249999864e-01,-9.520443532889999005e+00,1.298475358639999966e-02,6.001621950419999164e-04,3.365918528289999823e-04,1.000000000000000000e+00
7.401184269999999676e-01,-2.333565697410000084e+00,-1.373767639329999957e-01,-9.484829783200000364e+00,1.085092779249999945e-02,1.178754959260000165e-02,-2.109329914669999962e-03,1.000000000000000000e+00
7.450449160000000015e-01,-2.300188766849999844e+00,-1.604646113909999894e-01,-9.532961069160000633e+00,1.799986232069999883e-03,3.114056773480000130e-03,-1.146140787749999959e-02,1.000000000000000000e+00
7.500526469999999613e-01,-2.390365150729999666e+00,-1.790581431040000060e-01,-9.502757654069998949e+00,-6.237070076169999935e-03,5.803305655719999921e-03,4.130206070840000270e-05,1.000000000000000000e+00
7.549786640000000215e-01,-2.318015223179999751e+00,-1.589795056659999983e-01,-9.506205164179998945e+00,4.682495724409999928e-03,-2.163534518329999958e-03,-9.322742000219999547e-03,1.000000000000000000e+00
7.600245450000000513e-01,-2.350582590920000214e+00,-1.411075296930000000e-01,-9.501641217260001326e+00,1.627303194249999849e-03,-4.887045361100000179e-03,-7.086244877430001058e-04,1.000000000000000000e+00
7.649877600000000166e-01,-2.331102668300000236e+00,-1.341160177050000069e-01,-9.518394783670000692e+00,1.724819280209999653e-02,3.094402607530000269e-03,-1.991897122930000232e-03,1.000000000000000000e+00
7.700566639999999463e-01,-2.375350536950000091e+00,-1.314392636429999872e-01,-9.498317041279999984e+00,-5.317450501020000268e-03,-7.934611290689999250e-03,1.643679803240000008e-03,1.000000000000000000e+00
7.750607710000000372e-01,-2.337506105600000161e+00,-1.685755284640000073e-01,-9.514552136760000778e+00,6.081633735449999863e-03,1.739136315879999742e-02,3.349231788889999589e-03,1.000000000000000000e+00
7.801849539999999861e-01,-2.358810174909999891e+00,-1.580698617410000173e-01,-9.544000349570000097e+00,6.612582947130000608e-04,-5.184847861529999491e-03,8.028855547310000812e-03,1.000000000000000000e+00
7.850162250000000119e-01,-2.305528228190000029e+00,-1.174688708190000097e-01,-9.521891978130000211e+00,1.019568089400000113e-02,8.750105276700000795e-03,-9.821244515480000506e-03,1.000000000000000000e+00
7.900032740000000331e-01,-2.361728838839999955e+00,-1.340265675890000008e-01,-9.515485618219999608e+00,1.283912733199999920e-02,-1.203556917610000207e-02,-4.636294674130000092e-03,1.000000000000000000e+00
7.951416869999999859e-01,-2.384544627889999990e+00,-1.398333359060000003e-01,-9.503233454889999265e+00,8.978508412839999661e-03,-1.328327879309999966e-02,7.271457463499999933e-03,1.000000000000000000e+00
8.000798919999999592e-01,-2.343540271190000190e+00,-1.601138069259999963e-01,-9.501320314750000051e+00,-6.760847754779999302e-03,-7.033522706479999886e-03,9.089707396919999294e-03,1.000000000000000000e+00
8.052180380000000248e-01,-2.344484274050000039e+00,-1.588327358730000083e-01,-9.496174768550000422e+00,-1.431769318879999933e-02,-4.854747094210000338e-04,4.695816896859999687e-03,1.000000000000000000e+00
8.101783989999999935e-01,-2.289185872929999643e+00,-1.530111261799999844e-01,-9.498285477099999596e+00,1.916249049829999796e-03,-1.164204208180000212e-03,-1.259615924210000064e-02,1.000000000000000000e+00
8.151794940000000045e-01,-2.387255055890000310e+00,-1.780121229159999929e-01,-9.513885781810001774e+00,-6.123535335060000841e-03,1.372322440149999906e-02,4.025109112259999712e-03,1.000000000000000000e+00
8.200439229999999524e-01,-2.340109566090000204e+00,-1.527841124909999904e-01,-9.480958494719999408e+00,1.980568049480000217e-03,-1.317910570649999911e-02,1.742718974130000060e-03,1.000000000000000000e+00
8.249690699999999710e-01,-2.376562104700000067e+00,-1.565331902260000130e-01,-9.506823588339999631e+00,3.250870504420000232e-04,7.309687789530000014e-04,1.187871582809999979e-02,1.000000000000000000e+00
8.301909349999999632e-01,-2.308605297540000212e+00,-1.579460526990000002e-01,-9.529687162050000993e+00,1.711696852000000029e-03,8.678995072839999349e-06,-9.018152020870001673e-03,1.000000000000000000e+00
8.350041110000000488e-01,-2.341152791540000333e+00,-1.638204976900000109e-01,-9.512376546289999624e+00,-8.245142176750000496e-03,1.424555666740000054e-04,-2.363874111320000276e-03,1.000000000000000000e+00
8.400258769999999764e-01,-2.341224103209999630e+00,-1.781050070980000066e-01,-9.515706567500000546e+00,-5.306648556140000118e-03,-3.127011004839999999e-04,1.764481188729999980e-03,1.000000000000000000e+00
8.449938190000000349e-01,-2.378528144080000128e+00,-1.781920825930000118e-01,-9.538655481410000192e+00,1.367700286209999963e-02,1.555075682700000038e-02,9.022057056430001290e-03,1.000000000000000000e+00
8.500247309999999779e-01,-2.335030947649999966e+00,-1.662816453729999977e-01,-9.535272853230001289e+00,-4.708843305709999733e-03,2.906731795520000206e-03,-3.968574106690000471e-03,1.000000000000000000e+00
8.550323090000000459e-01,-2.360176348700000037e+00,-1.558287865499999869e-01,-9.558436871199999629e+00,7.547372486439999500e-03,2.412434667350000107e-03,3.235727315769999866e-03,1.000000000000000000e+00
8.599784940000000377e-01,-2.346523817050000016e+00,-1.805673238239999812e-01,-9.530810613130000775e+00,-2.285613445569999874e-03,6.172065623099999131e-04,3.314298810439999642e-03,1.000000000000000000e+00
8.649870090000000289e-01,-2.334279398640000114e+00,-1.613100492389999974e-01,-9.494678392510000009e+00,-6.028519477699999761e-03,-2.735351398590000344e-02,9.564400650559998912e-03,1.000000000000000000e+00
8.700030539999999979e-01,-2.326533314550000231e+00,-1.688655426529999948e-01,-9.544615851119999661e+00,-1.077482244000000158e-03,-4.662124905739999624e-03,9.898723103110001337e-03,1.000000000000000000e+00
8.749802319999999689e-01,-2.320701685790000468e+00,-1.697063225919999974e-01,-9.515211477460001177e+00,-4.758583381770000419e-03,7.444986142220000325e-03,-6.127087399359999742e-03,1.000000000000000000e+00
8.800361930000000221e-01,-2.369168633450000172e+00,-1.734737853669999774e-01,-9.536759876919999712e+00,8.527857135049999844e-04,-1.297419611359999954e-02,4.327488131819999355e-03,1.000000000000000000e+00
8.849576529999999552e-01,-2.342439178079999795e+00,-1.864062043120000012e-01,-9.514345216010001494e+00,-2.006955444809999795e-02,-3.839122131470000185e-03,7.179357111449999329e-03,1.000000000000000000e+00
8.899916719999999559e-01,-2.322979275329999815e+00,-1.974036000739999852e-01,-9.547695696950000865e+00,-3.688018303360000253e-03,9.935068897899999169e-03,5.820102524010000496e-04,1.000000000000000000e+00
8.951561120000000038e-01,-2.338896683170000212e+00,-1.793906447280000094e-01,-9.525344164410000758e+00,-7.435889448969999413e-03,1.008736900989999977e-02,5.330380983650000008e-03,1.000000000000000000e+00
9.000030890000000339e-01,-2.342024021409999879e+00,-1.839966406859999959e-01,-9.501870934369998523e+00,-1.097153034059999976e-02,-6.771645043050000812e-03,1.899078302090000114e-02,1.000000000000000000e+00
9.050320240000000460e-01,-2.329146273529999700e+00,-1.770681383309999912e-01,-9.540275776090000548e+00,-9.166229516270000405e-03,-7.422792259600000456e-03,8.395201526579999796e-03,1.000000000000000000e+00
9.101787199999999967e-01,-2.292631191079999908e+00,-1.412244797370000027e-01,-9.509216036430000685e+00,-8.912054821850000363e-03,3.270305227489999755e-03,-5.229014903310000295e-03,1.000000000000000000e+00
9.151934779999999492e-01,-2.353947391180000182e+00,-1.541717765910000093e-01,-9.496943414840000486e+00,-5.582478363070000373e-03,3.644957207139999916e-03,8.050623349850001206e-03,1.000000000000000000e+00
9.200469610000000520e-01,-2.346147969470000039e+00,-1.437073917270000056e-01,-9.535620643759999737e+00,-9.431662037969999052e-03,-8.129137568179999399e-03,3.964180126789999814e-03,1.000000000000000000e+00
9.249776750000000547e-01,-2.336484799720000005e+00,-1.350485584479999834e-01,-9.489688913660000225e+00,-6.744564976539999673e-03,-1.219014078379999921e-02,4.238044843079999749e-03,1.000000000000000000e+00
9.301592960000000243e-01,-2.375227933490000165e+00,-1.734829550539999932e-01,-9.536829435019999579e+00,3.194910008459999652e-03,3.192759584639999482e-03,1.900387182829999660e-02,1.000000000000000000e+00
9.351460499999999509e-01,-2.336015867040000415e+00,-1.241565592889999903e-01,-9.483883442260001573e+00,-1.051279134119999844e-03,-1.019989140330000016e-02,-3.856222610919999780e-04,1.000000000000000000e+00
9.401505439999999769e-01,-2.400679770130000001e+00,-1.362641904480000055e-01,-9.506595040280000575e+00,-5.392810795459999570e-03,-9.327395819130000201e-04,1.550415251399999902e-02,1.000000000000000000e+00
9.449995660000000131e-01,-2.333472320040000270e+00,-1.377447569949999950e-01,-9.524401330610000826e+00,-1.818560995159999860e-02,-5.623294506219999982e-03,1.661216653879999880e-02,1.000000000000000000e+00
9.501519040000000471e-01,-2.345063681370000097e+00,-1.636232946179999870e-01,-9.497505140369998600e+00,-5.254482850430000282e-03,-1.000452041629999907e-02,1.552458386870000061e-02,1.000000000000000000e+00
9.550190309999999627e-01,-2.363845100340000283e+00,-1.721089998189999914e-01,-9.534320082549999853e+00,-1.636373437939999884e-02,-1.503294892609999961e-02,1.319135306400000133e-03,1.000000000000000000e+00
9.600455530000000515e-01,-2.357471912040000284e+00,-1.686797925560000189e-01,-9.536516715810000377e+00,3.024914767590000317e-03,6.991262547669999453e-03,9.694958571339999664e-04,1.000000000000000000e+00
9.648993390000000225e-01,-2.370083848600000209e+00,-1.314541598179999882e-01,-9.499544537249999365e+00,-1.332370191809999910e-02,5.629038438199999127e-03,2.527629258110000374e-03,1.000000000000000000e+00
9.700423809999999536e-01,-2.340911237859999883e+00,-1.355220029120000058e-01,-9.543434532380000945e+00,-4.894146230069999770e-03,-6.153949070720000957e-04,6.198031827810000782e-03,1.000000000000000000e+00
9.751411229999999986e-01,-2.314648377100000154e+00,-1.413218848299999941e-01,-9.528900395589998240e+00,-1.758748479190000089e-02,6.410527974369999681e-03,-6.600038148460000281e-03,1.000000000000000000e+00
9.800268819999999881e-01,-2.337254322790000227e+00,-1.293827512379999989e-01,-9.528642621439999516e+00,-1.927256211640000078e-02,2.791995648289999615e-03,-1.387351285670000191e-02,1.000000000000000000e+00
9.851500640000000475e-01,-2.356632830870000195e+00,-1.150203177559999956e-01,-9.511349541330000434e+00,-1.511348318309999918e-02,-6.992158479990000057e-03,-2.583371475340000105e-03,1.000000000000000000e+00
9.900545139999999966e-01,-2.342242632600000096e+00,-1.377974644299999885e-01,-9.535945637930000274e+00,-1.900195702909999659e-02,7.041510194540000385e-03,-3.733491525050000245e-03,1.000000000000000000e+00
9.949880309999999950e-01,-2.375831890729999785e+00,-1.219430205580000065e-01,-9.494072243310000658e+00,-7.197633385660000239e-05,-1.439028070309999975e-03,8.162552490829999910e-03,1.000000000000000000e+00
9.999809069999999744e-01,-2.310482635720000122e+00,-1.043312938239999987e-01,-9.512658870360001018e+00,-7.671405095609999149e-03,3.196902573110000159e-03,-3.381571499630000449e-03,1.000000000000000000e+00
1.005043479000000017e+00,-2.325807046099999997e+00,-1.187751859110000030e-01,-9.525001050060000196e+00,-2.037221565839999939e-03,-9.989162907000000494e-03,1.902283402160000018e-03,1.000000000000000000e+00
1.010025758999999912e+00,-2.372489594559999748e+00,-1.112711669559999922e-01,-9.503312949870000637e+00,-5.790900904689998997e-03,1.021713018420000035e-02,5.458658561109999523e-03,1.000000000000000000e+00
1.015143546000000008e+00,-2.334764844059999955e+00,-1.390051414529999974e-01,-9.536075401789998907e+00,-7.068767677990000185e-03,-3.218345111239999477e-03,2.926500281320000129e-03,1.000000000000000000e+00
1.019980265000000053e+00,-2.389951163100000109e+00,-1.104280580629999897e-01,-9.539384964730000860e+00,-4.827665630729999560e-03,-3.838846925650000151e-03,2.022397890690000311e-02,1.000000000000000000e+00
1.025034274000000023e+00,-2.284248854919999960e+00,-1.356504150650000018e-01,-9.553325227269999331e+00,-8.020582608880000297e-03,-9.913975372909999972e-03,1.090113772079999953e-03,1.000000000000000000e+00
1.030153679999999961e+00,-2.356719047849999971e+00,-1.148104743980000036e-01,-9.501952767429999724e+00,-4.593340679999999461e-03,1.362602040170000223e-02,-5.861429963260000875e-03,1.000000000000000000e+00
1.034999637999999944e+00,-2.365671585109999864e+00,-1.401188017840000188e-01,-9.528805118519999340e+00,-1.161872595550000019e-02,-2.984968246889999934e-03,5.535771138969999665e-03,1.000000000000000000e+00
1.040198635000000094e+00,-2.327026358769999970e+00,-1.389031058510000194e-01,-9.525270514660000742e+00,-1.777886785570000072e-02,-1.948178512979999904e-03,-2.146155107769999806e-03,1.000000000000000000e+00
1.045008399999999948e+00,-2.377106440709999990e+00,-1.437521259180000177e-01,-9.534846152250000983e+00,-2.009937353430000032e-02,8.057987317440000463e-03,1.687386445699999918e-02,1.000000000000000000e+00
1.050058715000000031e+00,-2.303252684469999867e+00,-1.170974619569999930e-01,-9.483408225959999882e+00,-9.299812372769998862e-04,-7.387944497169999418e-04,-7.570777088399999882e-03,1.000000000000000000e+00
1.054985137000000073e+00,-2.369263472120000102e+00,-8.383876922220000194e-02,-9.485101001349999450e+00,8.098257705569999326e-03,1.929349079730000027e-02,6.186123006049999880e-03,1.000000000000000000e+00
1.060021579999999908e+00,-2.318549476190000291e+00,-8.761999566080000412e-02,-9.502296466300000688e+00,8.018262684350000238e-03,1.939727924759999944e-02,3.180963685739999700e-03,1.000000000000000000e+00
1.065143377999999919e+00,-2.333384934010000133e+00,-6.958178257579999970e-02,-9.481980823500000710e+00,3.557565622029999937e-03,-9.558511897919999209e-03,4.863523878159999383e-03,1.000000000000000000e+00
1.070052543999999939e+00,-2.362073999010000147e+00,-1.281097447609999829e-01,-9.517986787389999037e+00,1.283165998760000051e-02,1.364286988970000005e-03,1.149138435720000254e-02,1.000000000000000000e+00
1.075142907999999897e+00,-2.317476878519999950e+00,-1.341675743619999972e-01,-9.533273203849999433e+00,1.303183147680000032e-03,3.998247906570000405e-03,-7.741670124229999526e-03,1.000000000000000000e+00
1.080046673000000013e+00,-2.362708205260000138e+00,-6.996007326969999607e-02,-9.527202359500000384e+00,5.102830007670000091e-03,-7.775114849209999700e-03,6.994518451389999947e-03,1.000000000000000000e+00
1.084947152000000026e+00,-2.359751401280000049e+00,-8.179712559309999798e-02,-9.525569205340000067e+00,-2.741307020190000398e-03,6.293207406999999989e-03,1.402889844030000104e-02,1.000000000000000000e+00
1.089971954999999992e+00,-2.336747103920000068e+00,-1.340403221199999995e-01,-9.520047811569998686e+00,-1.109131611879999972e-02,-1.309270504859999908e-03,2.810137113559999823e-03,1.000000000000000000e+00
1.095135632999999942e+00,-2.327485500709999933e+00,-1.065528697299999994e-01,-9.501417345380000157e+00,1.976347528399999970e-02,7.193663157520000830e-03,-8.606308139860000331e-03,1.000000000000000000e+00
1.100065188000000083e+00,-2.384228401540000153e+00,-1.015765882880000082e-01,-9.483073879439999132e+00,-2.794663887469999580e-03,8.210343308749999680e-03,4.333409015090000410e-04,1.000000000000000000e+00
1.105010094999999914e+00,-2.351901856830000082e+00,-1.363272640129999935e-01,-9.505960249510000182e+00,1.403766591100000065e-02,-1.080951653420000186e-02,1.212533796210000072e-03,1.000000000000000000e+00
1.110042089000000010e+00,-2.333641539119999830e+00,-1.279733228319999971e-01,-9.504691837010000199e+00,-1.594373956320000027e-03,-9.872837923469999014e-03,-9.687408804889998185e-03,1.000000000000000000e+00
1.114976814999999899e+00,-2.360684590479999567e+00,-1.424493179569999990e-01,-9.517278346860001292e+00,1.121442671870000012e-02,4.861325956880000257e-03,6.485530175270000537e-03,1.000000000000000000e+00
1.119997826999999946e+00,-2.318279134820000031e+00,-1.295627474480000041e-01,-9.544497777689999296e+00,-7.549327332529999837e-03,4.525772761550000099e-03,-4.386274144050000129e-03,1.000000000000000000e+00
1.124958238000000055e+00,-2.341844865449999702e+00,-1.221138653470000002e-01,-9.505400862060000122e+00,9.363563149239999142e-04,1.234864722939999979e-02,5.351747386159999825e-04,1.000000000000000000e+00
1.130038418999999905e+00,-2.367945521390000252e+00,-1.401325106480000027e-01,-9.542281855209999719e+00,-1.811615889890000157e-03,5.535607226190000438e-03,-1.568517647679999868e-03,1.000000000000000000e+00
1.135026794000000061e+00,-2.281279191459999911e+00,-1.245280594820000059e-01,-9.504538107749999298e+00,1.376585289840000052e-02,8.694875054059999012e-03,-2.144330926239999824e-02,1.000000000000000000e+00
1.139997249000000101e+00,-2.394170242099999957e+00,-1.054025215179999891e-01,-9.503951832289999402e+00,1.293983869250000043e-02,1.445101946589999985e-02,3.587275976319999685e-03,1.000000000000000000e+00
1.144972314000000102e+00,-2.347994620250000164e+00,-8.498794839050000105e-02,-9.485901211819999901e+00,-9.669092483820000347e-03,5.983942188319999259e-03,-2.248953096569999868e-04,1.000000000000000000e+00
1.150005865000000016e+00,-2.375420095059999959e+00,-1.255144036389999884e-01,-9.501870349849999897e+00,1.123421126979999964e-03,5.955455824729999695e-03,2.270058495920000089e-03,1.000000000000000000e+00
1.155008252000000013e+00,-2.325898669909999938e+00,-1.351597637370000049e-01,-9.500563358899999145e+00,1.636304659769999802e-03,-3.601388540119999579e-03,-4.305529873820000079e-04,1.000000000000000000e+00
1.160051533999999940e+00,-2.344560115759999785e+00,-1.804057035220000271e-01,-9.510638178189998015e+00,-8.472946472470000920e-03,-3.985550720239999616e-03,5.065393634140000342e-04,1.000000000000000000e+00
1.165066884000000025e+00,-2.369288606570000066e+00,-1.447006953470000024e-01,-9.512948208699999242e+00,5.452115088700000035e-03,6.718756631020000349e-03,8.243120275440000283e-03,1.000000000000000000e+00
1.170047416000000062e+00,-2.298640368370000076e+00,-1.450698848520000084e-01,-9.535814120499999547e+00,-2.861132845280000680e-03,-3.878466086459999868e-03,4.324374720449999758e-03,1.000000000000000000e+00
1.175149033000000065e+00,-2.315367192890000148e+00,-1.147864907340000046e-01,-9.478369647270000087e+00,-1.303935982290000024e-02,6.076785735789999587e-03,1.943469280380000219e-03,1.000000000000000000e+00
1.180148439000000105e+00,-2.361018352479999916e+00,-1.294079678779999909e-01,-9.531063126579999434e+00,4.533882252870000476e-03,6.035163998600000072e-03,7.393561303619999685e-03,1.000000000000000000e+00
1.185035046999999953e+00,-2.351182456510000129e+00,-1.054254274700000132e-01,-9.513040563160000573e+00,8.311286219400000315e-04,4.939071834089999932e-03,2.560556633399999841e-03,1.000000000000000000e+00
1.189962520999999995e+00,-2.267841910000000016e+00,-1.272173898979999940e-01,-9.536969720280000118e+00,6.800991483029999833e-03,1.013630907979999954e-02,-1.996347866950000036e-02,1.000000000000000000e+00
1.195123641999999986e+00,-2.368152149880000223e+00,-1.423289064480000032e-01,-9.515247717810000339e+00,2.911541145290000212e-03,3.650544211270000117e-03,-1.462054345759999929e-02,1.000000000000000000e+00
1.200025109000000034e+00,-2.377687163209999621e+00,-1.591674659860000118e-01,-9.534378534740000077e+00,-3.461805637930000148e-03,-4.242134280499999799e-03,-1.532481401229999997e-03,1.000000000000000000e+00
1.204983131000000096e+00,-2.337642737589999964e+00,-1.389867929459999984e-01,-9.535936285580000060e+00,-1.576198264959999956e-02,3.894469235090000647e-03,-5.037544760849999893e-03,1.000000000000000000e+00
1.210146933000000091e+00,-2.363724396569999886e+00,-1.199129029699999988e-01,-9.523484800280000329e+00,-6.329907104370000558e-03,-4.477658309040000000e-03,1.408231537789999925e-02,1.000000000000000000e+00
1.215017165999999982e+00,-2.312424709700000136e+00,-1.392034770370000063e-01,-9.552070258780000600e+00,9.614803828299999661e-03,-7.727491669360000114e-03,8.676586672659998903e-03,1.000000000000000000e+00
1.220030914999999938e+00,-2.343246256679999640e+00,-1.388400414189999987e-01,-9.521447741499999395e+00,-3.267595544460000397e-03,1.323428191240000155e-02,5.001670680939999426e-03,1.000000000000000000e+00
1.225044607999999924e+00,-2.333388002750000023e+00,-1.591594836090000076e-01,-9.526517884369999578e+00,-7.773947436360000018e-03,4.664936568590000339e-03,4.055405035609999966e-03,1.000000000000000000e+00
1.230151586999999935e+00,-2.290405623990000361e+00,-1.279962835819999922e-01,-9.500409045119999618e+00,-1.423240639270000225e-02,-2.923985011880000061e-03,-2.034123428169999984e-02,1.000000000000000000e+00
1.234989812000000020e+00,-2.367405861559999991e+00,-8.909016867810000406e-02,-9.532280685679999976e+00,6.971067748960000851e-03,-1.116079185160000035e-02,4.555808380249999623e-03,1.000000000000000000e+00
1.239979179000000098e+00,-2.335364125129999913e+00,-5.323614395399999671e-02,-9.517858192569999431e+00,5.089942831549999942e-03,-1.294740010049999848e-02,6.721481680870000641e-03,1.000000000000000000e+00
1.245111234999999983e+00,-2.295938123670000053e+00,-6.884645860520000049e-02,-9.521101704539999488e+00,1.566503010689999920e-02,4.850435070690000024e-03,5.734261125329999896e-03,1.000000000000000000e+00
1.250164730999999918e+00,-2.297588082839999934e+00,-7.977046947049999670e-02,-9.549436987660000042e+00,6.768311839549999778e-03,4.626046866180000099e-03,1.797514734790000169e-03,1.000000000000000000e+00
1.254959157999999908e+00,-2.334395280099999859e+00,-1.164297096299999890e-01,-9.544214869099999277e+00,1.608565915380000049e-03,4.417334217580000215e-03,-7.458862848579999802e-03,1.000000000000000000e+00
1.260153011999999961e+00,-2.354113395399999753e+00,-8.868893093339999534e-02,-9.491342526089999510e+00,1.800103671850000059e-02,8.645632769910000653e-04,4.011978395280000817e-03,1.000000000000000000e+00
1.265130014999999997e+00,-2.280660621170000013e+00,-1.042418802410000067e-01,-9.500835746099999923e+00,-9.773281635720000929e-04,3.323195967820000499e-03,-2.088773809370000206e-02,1.000000000000000000e+00
1.269967947000000041e+00,-2.381392009070000260e+00,-1.389959991660000005e-01,-9.527091300339998625e+00,5.784239619970000731e-03,-4.580209497359999556e-03,1.012744568289999925e-02,1.000000000000000000e+00
1.275148020000000049e+00,-2.318934968379999795e+00,-1.232802148460000052e-01,-9.514131281000000939e+00,7.501570973550000104e-03,1.672017201779999948e-02,-1.068302989010000079e-02,1.000000000000000000e+00
1.279972928999999926e+00,-2.360587267590000149e+00,-1.292371870219999885e-01,-9.506363569610000397e+00,-3.071551909670000406e-03,2.144424617290000001e-02,6.855765823270001209e-04,1.000000000000000000e+00
1.284982078000000083e+00,-2.315733834250000012e+00,-1.484670530099999886e-01,-9.520001049819999395e+00,1.151558384300000078e-02,1.197299826889999981e-02,5.979994311930000254e-04,1.000000000000000000e+00
1.289961109999999911e+00,-2.309751106579999824e+00,-2.314550140889999885e-01,-9.491718958189999000e+00,-2.700358629230000061e-03,-3.207207191740000618e-04,-6.845233030619999638e-03,1.000000000000000000e+00
1.294957724000000088e+00,-2.412175123739999982e+00,-2.325560158670000044e-01,-9.498838434799999675e+00,2.095356350760000080e-03,7.463415153320000078e-03,1.656516827640000175e-02,1.000000000000000000e+00
1.300039546999999907e+00,-2.265498415609999761e+00,-2.081087531569999760e-01,-9.530908812799999907e+00,-2.350512892009999980e-02,-5.914441309869999767e-03,1.337532186880000190e-03,1.000000000000000000e+00
1.304942722000000055e+00,-2.371372573229999947e+00,-1.935638757799999776e-01,-9.531170094089999267e+00,-8.132713846860000276e-03,1.686224527660000125e-02,1.168046379459999938e-03,1.000000000000000000e+00
1.309982841000000064e+00,-2.378341681590000256e+00,-2.003530427299999861e-01,-9.634478492869998689e+00,-2.311853459100000202e-03,-2.474980195980000346e-03,-2.971674082800000467e-03,1.000000000000000000e+00
1.315006431999999892e+00,-2.424721009320000231e+00,-1.229511198889999962e-01,-9.499370349719999496e+00,8.405156433580000461e-03,5.927482619880000171e-03,1.503078034150000025e-03,1.000000000000000000e+00
1.319981888999999908e+00,-2.363927664050000210e+00,-9.574458506600000418e-02,-9.497363101550000408e+00,-5.504116415979999448e-03,1.706236414610000016e-02,-9.992187842730001265e-04,1.000000000000000000e+00
1.325014904999999965e+00,-2.302584283690000344e+00,-8.518516972930001430e-02,-9.496315638330001363e+00,-1.953523140399999764e-03,4.485604818910000381e-03,-1.272871810939999945e-02,1.000000000000000000e+00
1.330034965999999930e+00,-2.392554915859999909e+00,-7.454193943360000463e-02,-9.515803013610000249e+00,7.931891828779999432e-03,6.050129421060000678e-03,6.223372183739999362e-03,1.000000000000000000e+00
1.334966973000000001e+00,-2.333457268600000134e+00,-1.362619162929999961e-01,-9.499891743250000076e+00,5.135200452060000031e-03,1.392234675589999922e-02,-4.220488015560000007e-03,1.000000000000000000e+00
1.339953736000000006e+00,-2.354186168370000054e+00,-1.714127063850000021e-01,-9.562593990879999950e+00,-1.300344709309999994e-03,1.239534653720000129e-02,1.199799031020000115e-02,1.000000000000000000e+00
1.344980572000000096e+00,-2.297943910540000356e+00,-1.352778371589999917e-01,-9.513719193069999136e+00,2.479495853190000210e-02,1.060251612219999945e-02,-4.362518899140000427e-03,1.000000000000000000e+00
1.350144545000000029e+00,-2.341166673930000108e+00,-1.484533167450000080e-01,-9.515439440989998943e+00,1.181915309279999923e-02,1.156583800910000043e-02,1.218475401400000158e-02,1.000000000000000000e+00
1.355165527000000036e+00,-2.278584983940000086e+00,-1.890829309739999742e-01,-9.543337501739998174e+00,1.374929770829999738e-02,1.451435126360000119e-02,-1.087006647140000004e-02,1.000000000000000000e+00
1.359974851000000040e+00,-2.340883911470000189e+00,-1.150111572020000028e-01,-9.506822419289999715e+00,5.736842285839999916e-03,2.096011303369999966e-04,-3.333126660440000055e-03,1.000000000000000000e+00
1.364954752999999910e+00,-2.357341709790000017e+00,-1.712602009699999983e-01,-9.555862636799998810e+00,2.448530308900000174e-02,8.543150499460000491e-03,1.084124902259999898e-03,1.000000000000000000e+00
1.369943903000000018e+00,-2.353707883330000250e+00,-1.377802119009999826e-01,-9.545842762560001304e+00,-5.135777755640000448e-04,5.348444916310000907e-03,-8.874271064999999722e-03,1.000000000000000000e+00
1.374928021999999972e+00,-2.353423659570000215e+00,-1.162508733310000097e-01,-9.525025599980001090e+00,7.055678404869999629e-03,8.646213449540000526e-03,-1.022957917300000054e-02,1.000000000000000000e+00
1.379926264999999930e+00,-2.341286647050000003e+00,-1.409871729830000087e-01,-9.486239649989999023e+00,7.797393482180000474e-03,3.401745576409999448e-03,-4.501761868600000042e-03,1.000000000000000000e+00
1.385050094999999981e+00,-2.324181344599999921e+00,-1.577867339509999856e-01,-9.507302896289999694e+00,1.249987538900000118e-02,1.485772430899999930e-03,-1.254317630080000086e-02,1.000000000000000000e+00
1.390002162000000041e+00,-2.355323647970000156e+00,-1.793447962920000083e-01,-9.516080661510001093e+00,1.119158044460000050e-02,8.062941022220000697e-03,5.475125275550000309e-03,1.000000000000000000e+00
1.394982653000000017e+00,-2.325649955849999895e+00,-1.754718638489999871e-01,-9.489273903119999076e+00,1.173008698969999972e-02,-3.196182427929999698e-03,-1.938452245669999982e-03,1.000000000000000000e+00
1.399965531999999957e+00,-2.321150890859999816e+00,-1.519559180389999931e-01,-9.513801026139999450e+00,1.096254959700000003e-02,1.161699183289999909e-03,-2.946154447270000424e-03,1.000000000000000000e+00
1.404899775999999934e+00,-2.322704550040000093e+00,-1.495153108210000026e-01,-9.520033783049999698e+00,4.855324514210000372e-03,-4.971516318619999784e-03,-1.962050423029999824e-02,1.000000000000000000e+00
1.410000039999999899e+00,-2.358020924229999871e+00,-1.544423188940000080e-01,-9.530202710359999330e+00,4.452170804140000333e-03,-6.689692381769999849e-04,-6.753837689760000366e-03,1.000000000000000000e+00
1.415099091999999947e+00,-2.342585162429999812e+00,-1.768916127200000077e-01,-9.514418281250000220e+00,1.859143609180000231e-03,6.876659579580000556e-03,-3.749319352209999970e-03,1.000000000000000000e+00
1.420009349999999948e+00,-2.336682221989999864e+00,-1.580767846729999870e-01,-9.532909631229999903e+00,1.518085133279999978e-02,6.200377829370000600e-03,4.305620677770000300e-03,1.000000000000000000e+00
1.425005287000000065e+00,-2.320280830029999741e+00,-1.765499779420000026e-01,-9.482847084950000394e+00,8.285908028479999424e-03,-7.360818795860000173e-03,-1.377529837189999870e-02,1.000000000000000000e+00
1.429986133000000104e+00,-2.351649927890000047e+00,-1.506702712759999951e-01,-9.508619824109999286e+00,1.310268789529999908e-02,1.195257063960000082e-04,-6.535422988239999315e-03,1.000000000000000000e+00
1.434956053999999925e+00,-2.346971853079999892e+00,-1.316513811570000081e-01,-9.509958963749999938e+00,4.174819681790000077e-03,2.405469305809999903e-02,-1.522185164499999894e-03,1.000000000000000000e+00
1.439940653000000070e+00,-2.332040972059999717e+00,-1.639167794050000182e-01,-9.526481059489999126e+00,2.920189872380000388e-03,1.015920564530000021e-02,-3.193397540600000258e-03,1.000000000000000000e+00
1.444963419000000027e+00,-2.374231323660000115e+00,-1.825940073460000090e-01,-9.506942830799999911e+00,1.333189010620000094e-02,1.145958248529999925e-02,-9.710269048809999984e-03,1.000000000000000000e+00
1.450163496999999913e+00,-2.385080196070000103e+00,-1.914328733669999894e-01,-9.550901214999999667e+00,3.672380466009999948e-03,1.911630667750000012e-02,8.081887848680000680e-03,1.000000000000000000e+00
1.454988777000000066e+00,-2.326998593979999974e+00,-1.303886768779999872e-01,-9.504953118290000447e+00,6.984502077100000067e-03,2.866565715520000193e-03,-1.345036434940000223e-03,1.000000000000000000e+00
1.460049288000000001e+00,-2.343861758229999648e+00,-8.079355630739999683e-02,-9.538134672400000014e+00,-4.946111002940000454e-04,1.193453744050000133e-02,8.559201844040000007e-03,1.000000000000000000e+00
1.464986890000000042e+00,-2.301839895059999641e+00,-3.068252667059999730e-02,-9.520591416930001216e+00,1.528608705850000027e-02,6.460473872720000864e-03,-3.135199658570000155e-03,1.000000000000000000e+00
1.470037148999999932e+00,-2.339382859250000113e+00,-1.059562555440000109e-01,-9.556079494419998710e+00,3.231333568689999901e-03,1.449605636299999833e-02,8.524044416839999735e-03,1.000000000000000000e+00
1.475120299999999940e+00,-2.278085071600000067e+00,-1.251368116310000167e-01,-9.561541266949999951e+00,2.259857393800000086e-02,5.561211146410000592e-04,3.403695533049999958e-03,1.000000000000000000e+00
1.480028359999999932e+00,-2.341304474970000271e+00,-1.543815468839999927e-01,-9.524168690890000732e+00,3.715834766630000258e-02,1.760899834330000024e-02,6.542590446770000373e-03,1.000000000000000000e+00
1.484995172000000085e+00,-2.307571570579999953e+00,-1.831706747229999988e-01,-9.554788285560000816e+00,1.389013975860000152e-02,8.035753853619998985e-03,-1.085270661860000124e-02,1.000000000000000000e+00
1.489943637999999959e+00,-2.325219747740000287e+00,-1.530695783690000089e-01,-9.506530158350001258e+00,1.790222339329999857e-02,1.249362435189999877e-02,-1.161217875779999888e-02,1.000000000000000000e+00
1.494899181999999938e+00,-2.363848607470000029e+00,-1.271990139910000039e-01,-9.541286998949999543e+00,3.788613155480000105e-02,-2.418104792010000031e-03,6.874877959489999329e-03,1.000000000000000000e+00
1.499948725999999954e+00,-2.301988071359999832e+00,-1.391679399330000011e-01,-9.548456744450000144e+00,2.506419830020000308e-02,-8.542951196430000754e-03,-4.457787144929999806e-03,1.000000000000000000e+00
1.504972248000000068e+00,-2.354257918430000096e+00,-1.603499537689999921e-01,-9.527631398569999632e+00,3.588510304689999930e-02,6.047821603720000307e-03,4.007164388899999569e-03,1.000000000000000000e+00
1.510000738000000009e+00,-2.327536354119999817e+00,-1.709208677470000215e-01,-9.522080778699999470e+00,2.473044767980000017e-02,3.035391680900000055e-02,-1.342396624389999987e-02,1.000000000000000000e+00
1.514955626999999971e+00,-2.354613600000000417e+00,-1.757951409859999925e-01,-9.520705398700000543e+00,2.791453525419999859e-02,6.064319051800000360e-03,1.205053413290000080e-03,1.000000000000000000e+00
1.520006651999999958e+00,-2.308100416759999884e+00,-1.674744353540000008e-01,-9.525261162299999640e+00,2.875093929470000018e-02,1.330899447200000092e-02,-1.269697304819999983e-02,1.000000000000000000e+00
1.525020924000000111e+00,-2.316345974799999929e+00,-1.403733245340000046e-01,-9.546341944260001711e+00,2.862003818150000295e-02,1.068684365599999880e-02,-1.183188147839999912e-02,1.000000000000000000e+00
1.529954647999999917e+00,-2.364319001460000180e+00,-1.400683593710000119e-01,-9.523964692749999017e+00,1.756037771699999958e-02,2.181762270629999598e-02,-2.332273405050000210e-03,1.000000000000000000e+00
1.534958837000000020e+00,-2.291414362640000313e+00,-1.589669384449999834e-01,-9.493852463080001414e+00,8.802401833239999196e-03,7.966019213199998852e-03,-1.181920338420000202e-02,1.000000000000000000e+00
1.539978799000000009e+00,-2.364151097549999747e+00,-1.746356322200000033e-01,-9.527626722389999969e+00,3.617998212580000178e-02,1.628651097419999902e-02,3.405860392380000157e-03,1.000000000000000000e+00
1.544975130000000085e+00,-2.317323587659999795e+00,-1.341114328609999962e-01,-9.518359712349999668e+00,1.104054600000000178e-02,-1.771546201779999755e-03,-5.513364449140000130e-03,1.000000000000000000e+00
1.549995030000000051e+00,-2.322621986329999721e+00,-1.578830339320000109e-01,-9.512492866149999671e+00,1.935865730049999775e-02,9.155198000370000713e-03,-7.036305032670000029e-03,1.000000000000000000e+00
1.554954125000000076e+00,-2.331502481270000260e+00,-1.867558762660000149e-01,-9.544862519349999630e+00,2.376510016619999902e-02,7.279464043680000619e-04,2.394378418099999892e-03,1.000000000000000000e+00
1.560041706000000028e+00,-2.309399662790000196e+00,-1.829643567619999855e-01,-9.522017650339998696e+00,2.199075557290000246e-02,5.251408554610000230e-03,-3.040473908190000334e-03,1.000000000000000000e+00
1.565004944000000009e+00,-2.287717261690000115e+00,-1.675593554250000006e-01,-9.519220713099999287e+00,2.559874020520000112e-02,1.143367495390000023e-02,-7.806968875230000521e-03,1.000000000000000000e+00
1.570002432999999975e+00,-2.337664072640000423e+00,-1.772733968450000142e-01,-9.549637478670000235e+00,1.158558204770000245e-02,6.395876407620000245e-03,3.616910660640000261e-03,1.000000000000000000e+00
1.575009614000000058e+00,-2.331717439190000185e+00,-1.591640501859999945e-01,-9.531009935089999274e+00,7.682818453760000173e-03,3.208007663489999620e-03,-3.067594254390000261e-03,1.000000000000000000e+00
1.579998057999999928e+00,-2.303836475709999831e+00,-9.968752313860000658e-02,-9.512444935350000463e+00,2.115084975960000030e-02,1.499175652860000076e-02,-1.487100031230000020e-03,1.000000000000000000e+00
1.584923741999999969e+00,-2.296932541539999928e+00,-8.310115739630000165e-02,-9.521975564759999955e+00,2.562670223409999753e-02,-9.941942989829999702e-03,-5.748009309170000469e-03,1.000000000000000000e+00
1.590009891000000009e+00,-2.291737310979999886e+00,-1.304609566630000050e-01,-9.499931490739998097e+00,2.833691984420000018e-02,2.510631922629999891e-03,-1.667406596239999830e-02,1.000000000000000000e+00
1.595117244999999961e+00,-2.339736641130000017e+00,-1.649112338029999902e-01,-9.504932660030000591e+00,1.675805263219999966e-02,1.552214287220000065e-02,-1.561650354419999963e-02,1.000000000000000000e+00
1.600017071999999985e+00,-2.355740996599999804e+00,-1.828577728489999832e-01,-9.506720712489999059e+00,2.074925787749999986e-02,8.247479796410000716e-03,6.259832531210000363e-03,1.000000000000000000e+00
1.604969356000000014e+00,-2.292465625259999751e+00,-1.626690443659999930e-01,-9.509331187249999928e+00,2.229113318029999832e-02,2.003905829039999951e-04,-2.744553610679999894e-03,1.000000000000000000e+00
1.610133433999999975e+00,-2.321332531039999925e+00,-1.461434415010000043e-01,-9.524895836120000681e+00,1.853681541979999847e-02,6.902124732729999980e-05,1.863031880929999972e-03,1.000000000000000000e+00
1.615119420000000083e+00,-2.295664859690000004e+00,-1.687028081049999906e-01,-9.514406006289998885e+00,2.253014966850000120e-02,3.825746010989999803e-03,5.340320058169999162e-04,1.000000000000000000e+00
1.619934750000000090e+00,-2.332553305490000284e+00,-1.612790878450000021e-01,-9.491099949510001466e+00,1.536093372850000013e-02,-4.651525057850000068e-03,5.905278958380000276e-03,1.000000000000000000e+00
1.624930323000000065e+00,-2.314043981470000233e+00,-2.289834911430000119e-01,-9.485459313270000692e+00,1.076850388199999953e-02,3.244960680599999828e-03,-4.809821955860000241e-03,1.000000000000000000e+00
1.629953003000000011e+00,-2.315268993220000127e+00,-2.280647688630000058e-01,-9.505355853870000260e+00,1.818362250920000159e-02,1.326712593439999949e-02,-8.877341169860000379e-04,1.000000000000000000e+00
1.634965785999999976e+00,-2.295417460799999976e+00,-2.354666791490000188e-01,-9.529610005160000341e+00,-2.657937351609999770e-03,-4.188076592979999950e-03,7.454666774720000158e-04,1.000000000000000000e+00
1.639997490999999918e+00,-2.347812687819999855e+00,-2.139085985420000058e-01,-9.529746783289999357e+00,8.279302157460000436e-03,1.188754756000000128e-02,7.920804433520001187e-03,1.000000000000000000e+00
1.644953813000000098e+00,-2.249394837550000137e+00,-2.175156283249999878e-01,-9.509957794710000911e+00,4.646133631470000629e-03,2.438639756290000068e-03,-5.194661207500000412e-03,1.000000000000000000e+00
1.650151898999999922e+00,-2.309485587509999771e+00,-2.317003671519999863e-01,-9.509185056769998923e+00,1.432488393040000016e-02,-5.756825674329999962e-03,6.207881961020000287e-04,1.000000000000000000e+00
1.654982608000000077e+00,-2.309190988479999707e+00,-2.160958429210000087e-01,-9.498185523849999257e+00,-4.433728172440000491e-04,-1.000635558739999950e-03,-2.802424132820000306e-04,1.000000000000000000e+00
1.660009647000000088e+00,-2.297693881299999852e+00,-1.779949891180000188e-01,-9.492583466060001030e+00,-9.818530641499999614e-03,-1.463596126999999877e-03,-5.501837469640000373e-03,1.000000000000000000e+00
1.665147490999999924e+00,-2.308446015329999934e+00,-2.176301946149999944e-01,-9.542030510800000087e+00,2.011431381109999791e-02,-9.085882920770000596e-04,-1.173716038470000098e-02,1.000000000000000000e+00
1.670049311000000092e+00,-2.343733017289999943e+00,-2.008340311800000111e-01,-9.533250407489999745e+00,-1.127010444179999977e-03,6.527908146379999936e-03,-9.591061621899999931e-03,1.000000000000000000e+00
1.674952650000000043e+00,-2.345807777730000154e+00,-1.698634311159999966e-01,-9.521977902849998898e+00,-8.447230793540001087e-03,2.610030584040000119e-03,1.203477149830000075e-03,1.000000000000000000e+00
1.679989240999999911e+00,-2.261097696440000249e+00,-1.558712557190000125e-01,-9.546502103250000815e+00,2.092290669680000052e-04,1.153158862139999803e-02,-2.134818583730000233e-02,1.000000000000000000e+00
1.684970587000000020e+00,-2.339772881480000066e+00,-2.020463478460000073e-01,-9.515587325029999377e+00,2.957788296039999629e-03,1.264690794049999970e-02,3.806481370699999790e-03,1.000000000000000000e+00
1.689972460999999981e+00,-2.291968343259999763e+00,-1.425571439799999951e-01,-9.515869649099998995e+00,1.630465872589999948e-02,-1.359177054839999987e-03,2.025214256720000300e-03,1.000000000000000000e+00
1.694931729000000109e+00,-2.301674329240000372e+00,-1.594266101129999946e-01,-9.547492867860000842e+00,1.297753537069999815e-03,1.894110441209999676e-02,-2.919090911750000204e-03,1.000000000000000000e+00
1.700047568000000009e+00,-2.283581330920000152e+00,-1.383822055160000009e-01,-9.573822071860000449e+00,-1.691516675060000113e-02,-2.845352515579999911e-03,2.566565992310000047e-03,1.000000000000000000e+00
1.705015112000000110e+00,-2.333319029170000114e+00,-1.297438853009999782e-01,-9.561476385019998858e+00,1.188492588699999880e-02,-4.998622927810000144e-03,4.217922687529999763e-03,1.000000000000000000e+00
1.710055944999999911e+00,-2.327541907070000082e+00,-6.421177997530000403e-02,-9.543242809199998788e+00,2.497402764859999943e-02,-1.853309571739999995e-02,9.589076042180001008e-03,1.000000000000000000e+00
1.715011027000000077e+00,-2.272946978050000233e+00,-5.746673072840000757e-02,-9.587500468600000048e+00,9.241077117620000864e-03,2.052732743319999990e-03,-1.166154909879999965e-02,1.000000000000000000e+00
1.719985724000000049e+00,-2.314076568559999547e+00,-6.448230401229999853e-02,-9.576500935680000381e+00,1.869514025749999947e-02,1.910329610109999868e-02,-1.563993096349999834e-02,1.000000000000000000e+00
1.725360636000000003e+00,-2.346782029590000374e+00,-9.775359593400000102e-02,-9.578247487080000511e+00,1.136106252670000122e-02,-7.379486691210000032e-03,-9.935012087229999275e-03,1.000000000000000000e+00
1.729887573000000067e+00,-2.302355004979999897e+00,-1.002446272980000025e-01,-9.581312719870000549e+00,3.552683442829999982e-02,-4.671283997600000903e-03,-1.470529008660000081e-02,1.000000000000000000e+00
1.734896804999999986e+00,-2.369594311509999773e+00,-1.561749696389999886e-01,-9.598956513110001865e+00,3.061108104880000055e-02,-1.859656535089999983e-03,-3.369698300959999941e-03,1.000000000000000000e+00
1.739959840999999896e+00,-2.325474014759999708e+00,-1.382640407619999956e-01,-9.582952303769999958e+00,3.759615123269999942e-02,8.491367101670000209e-03,-4.595844075079999480e-03,1.000000000000000000e+00
1.744958323999999950e+00,-2.323039334959999813e+00,-1.384726511449999864e-01,-9.613511108169999986e+00,3.999451920390000026e-02,2.071305178110000120e-03,-1.503963489090000098e-02,1.000000000000000000e+00
1.750148800999999921e+00,-2.387419598799999765e+00,-6.538842253920000569e-02,-9.562080780660000556e+00,4.534072428940000288e-02,-4.968006629500000375e-03,-4.187835380429999997e-03,1.000000000000000000e+00
1.754991173999999932e+00,-2.345250143849999969e+00,-6.760655981299999728e-02,-9.547469486980000752e+00,5.714624375099999765e-02,-1.042045094070000177e-02,-1.971437036990000141e-02,1.000000000000000000e+00
1.760013233000000010e+00,-2.378859860249999958e+00,-5.480027429840000214e-02,-9.573072130269999036e+00,5.025709420440000602e-02,-1.948887947949999914e-04,-1.010355073960000037e-02,1.000000000000000000e+00
1.764971236000000054e+00,-2.314786762659999830e+00,-1.319482543449999878e-01,-9.551218025860000793e+00,6.582234054799999956e-02,-3.075015265490000163e-03,-3.010195121170000307e-02,1.000000000000000000e+00
1.769962460999999987e+00,-2.318627802129999971e+00,-1.994372978579999900e-01,-9.485995319839998885e+00,6.751447170969999967e-02,1.484631001950000029e-02,-1.199836563320000153e-02,1.000000000000000000e+00
1.774945441999999929e+00,-2.314064585859999745e+00,-2.661988308150000093e-01,-9.516782087770000231e+00,5.182373896240000805e-02,-5.013358779249999474e-03,-1.268335990610000054e-02,1.000000000000000000e+00
1.779963127999999895e+00,-2.302352520759999965e+00,-2.973849733260000017e-01,-9.538607550610000985e+00,5.028046295049999614e-02,1.210798509420000016e-03,-9.255219250920000348e-03,1.000000000000000000e+00
1.784963536000000017e+00,-2.297071950009999863e+00,-2.804191706789999627e-01,-9.501794362000000049e+00,4.989271983500000174e-02,1.426053419710000131e-02,-7.713175378740000365e-03,1.000000000000000000e+00
1.789945080000000077e+00,-2.338390925609999726e+00,-2.802540797779999870e-01,-9.491624265639998725e+00,6.092930957669999426e-02,1.578349806370000011e-02,3.932405263190000104e-03,1.000000000000000000e+00
1.794987340000000042e+00,-2.299542285640000294e+00,-2.351066684639999960e-01,-9.502356672060001230e+00,4.967540875080000279e-02,6.570397876199999231e-03,-9.978079237040001284e-03,1.000000000000000000e+00
1.799980587000000076e+00,-2.315659161579999736e+00,-2.387824526339999975e-01,-9.505378650229999948e+00,5.042283609509999598e-02,5.062732845540000338e-03,-4.115688614550000457e-03,1.000000000000000000e+00
1.805021433000000064e+00,-2.301589573559999824e+00,-2.101618497620000026e-01,-9.492755315500000179e+00,3.815200924869999871e-02,1.427874900399999985e-03,-2.944346051659999875e-04,1.000000000000000000e+00
1.810150154000000011e+00,-2.303314789919999939e+00,-2.517389283079999873e-01,-9.493175002210000102e+00,3.850252181290000214e-02,-6.085589993750000013e-04,-3.867374733090000408e-03,1.000000000000000000e+00
1.814999406000000093e+00,-2.283557950050000063e+00,-2.814984538160000271e-01,-9.487575867030001220e+00,4.586973413829999874e-02,6.651719100770000365e-03,-7.377438247200000104e-03,1.000000000000000000e+00
1.820012957999999959e+00,-2.344505609100000054e+00,-3.384553444589999960e-01,-9.488372570370000147e+00,3.620921075340000073e-02,-1.339293085040000133e-04,-4.162059631199999891e-04,1.000000000000000000e+00
1.824948076000000086e+00,-2.282091969150000121e+00,-3.304350100130000190e-01,-9.515270514170000027e+00,3.048758022490000510e-02,1.869529113170000090e-02,-1.487262360749999970e-02,1.000000000000000000e+00
1.829970403999999995e+00,-2.314864650200000096e+00,-2.637468162869999744e-01,-9.502870466799999249e+00,2.900663763280000168e-02,8.260853588580001003e-03,-8.397024124860000271e-03,1.000000000000000000e+00
1.834943463000000108e+00,-2.320566807359999650e+00,-2.488862605569999997e-01,-9.569960135730001483e+00,1.366562768820000183e-02,-6.017885170879999981e-03,4.061280749739999696e-03,1.000000000000000000e+00
1.839946105000000109e+00,-2.307209751529999853e+00,-2.428788551020000241e-01,-9.568429272899999560e+00,2.350896969440000039e-02,2.200989797710000209e-02,3.056696848940000134e-03,1.000000000000000000e+00
1.844949409999999901e+00,-2.330648494790000136e+00,-2.566543555420000011e-01,-9.527771099299998880e+00,2.339516766369999917e-02,1.616891101000000192e-02,-6.796875037249999925e-03,1.000000000000000000e+00
1.850000219000000001e+00,-2.370912408370000168e+00,-2.279764147260000262e-01,-9.516940493210000795e+00,2.680597454309999877e-02,7.460392080250000807e-03,-1.362912589680000119e-03,1.000000000000000000e+00
1.854985883999999974e+00,-2.282267325719999906e+00,-2.197635533819999876e-01,-9.506716620829999798e+00,2.220609784129999945e-02,1.521916873750000024e-02,-1.236912887540000082e-02,1.000000000000000000e+00
1.860007935999999917e+00,-2.341285185739999886e+00,-2.151931036609999737e-01,-9.533803949719999338e+00,3.934223204850000044e-02,-4.205750301480000106e-03,-5.797483026980000492e-08,1.000000000000000000e+00
1.864995367999999987e+00,-2.284999088770000242e+00,-2.268926198110000070e-01,-9.504381455880000829e+00,1.426314190029999950e-02,2.888388931749999618e-03,-7.842162624000000720e-03,1.000000000000000000e+00
1.870014005999999895e+00,-2.327734507040000178e+00,-2.484896259219999959e-01,-9.529056462929998972e+00,2.495761774480000084e-02,4.178842529649999527e-03,2.232474042099999618e-03,1.000000000000000000e+00
1.875124752999999922e+00,-2.318056578109999766e+00,-2.577612025389999784e-01,-9.504848488869999557e+00,3.494492918250000080e-02,1.502364408220000077e-03,2.450029132890000055e-03,1.000000000000000000e+00
1.880019510999999977e+00,-2.353863658419999894e+00,-3.101006259819999999e-01,-9.517888003189998614e+00,2.266705408690000006e-02,1.575498655440000020e-02,5.227149464190000185e-03,1.000000000000000000e+00
1.884992777999999980e+00,-2.247099712350000278e+00,-2.923445497400000148e-01,-9.497489942799999696e+00,2.093930169940000016e-02,5.178942345079999912e-03,-9.045527316629999384e-03,1.000000000000000000e+00
1.889943281999999947e+00,-2.343909835159999844e+00,-2.649017036770000000e-01,-9.509285594539999664e+00,1.863204874099999922e-02,8.503908291459999491e-03,-5.911083426330000085e-04,1.000000000000000000e+00
1.894950915999999985e+00,-2.308191748309999625e+00,-3.316839140949999765e-01,-9.529086273549999930e+00,1.659203134480000119e-02,1.245723385359999956e-02,-1.031433977189999927e-02,1.000000000000000000e+00
1.899966202999999965e+00,-2.349857783780000098e+00,-3.281113893709999840e-01,-9.524621695360000473e+00,2.163213305180000309e-02,4.213868174700000080e-03,6.120986305180000329e-03,1.000000000000000000e+00
1.904945698999999992e+00,-2.247246573480000009e+00,-2.718188078550000109e-01,-9.468564292569999097e+00,2.805369906130000118e-02,-4.428211599590000519e-03,-1.579830050470000177e-02,1.000000000000000000e+00
1.909989771000000003e+00,-2.273947971790000189e+00,-2.672048112539999742e-01,-9.475262913430000822e+00,1.654501631859999974e-02,4.737007897350000406e-03,-1.187359541650000010e-02,1.000000000000000000e+00
1.914960422999999912e+00,-2.320790825380000033e+00,-3.340224765779999938e-01,-9.516505608919999304e+00,1.492185890670000119e-02,3.517850767820000172e-03,-5.415937397630000115e-03,1.000000000000000000e+00
1.919963744999999999e+00,-2.288982897709999964e+00,-3.292973842849999944e-01,-9.503415241200000807e+00,-2.686034888030000133e-03,-1.026109233499999940e-02,5.623070523140000915e-03,1.000000000000000000e+00
1.924966119000000031e+00,-2.283980851639999976e+00,-3.218644212730000231e-01,-9.480039626310000855e+00,-7.127674762160000552e-03,-6.599714979530000095e-03,7.844413630660000952e-04,1.000000000000000000e+00
1.929944316000000049e+00,-2.234765569829999965e+00,-3.340799423860000283e-01,-9.492427398720000298e+00,-2.015468198810000007e-03,2.184126153590000216e-02,1.239937962959999918e-03,1.000000000000000000e+00
1.934942989999999918e+00,-2.287345359630000186e+00,-3.492372891059999929e-01,-9.479968899159999296e+00,-9.652554988859999782e-03,9.701852686699999340e-03,3.317901864650000089e-04,1.000000000000000000e+00
1.939945086000000041e+00,-2.263245668249999731e+00,-3.528534337759999806e-01,-9.482536703819999246e+00,-1.184128038590000036e-02,9.332915768030001363e-03,-9.236858226360000756e-03,1.000000000000000000e+00
1.944948243000000021e+00,-2.271647001369999863e+00,-3.363828490339999533e-01,-9.498519870370000007e+00,-1.793866418300000057e-02,1.349598169330000139e-04,-8.308976888660000656e-03,1.000000000000000000e+00
1.950090617999999942e+00,-2.291669798700000094e+00,-2.781311145410000352e-01,-9.501386950239998797e+00,-2.254822291429999653e-02,-1.047544553879999930e-02,3.914391621949999886e-03,1.000000000000000000e+00
1.954920498999999978e+00,-2.303858687540000005e+00,-2.567152006170000389e-01,-9.511519052680000641e+00,-8.846662007270000502e-03,-5.293439142409999201e-03,9.092984721060000039e-03,1.000000000000000000e+00
1.960022839999999933e+00,-2.261926256220000209e+00,-2.518937352769999860e-01,-9.497695694510001729e+00,-9.331128560010001211e-03,1.716450043019999983e-02,8.820313960310000121e-04,1.000000000000000000e+00
1.965098349000000022e+00,-2.317451305690000130e+00,-2.544465432990000164e-01,-9.534660858809999695e+00,-2.144339121880000157e-02,-4.186513833700000525e-04,1.649463083600000125e-04,1.000000000000000000e+00
1.969883180000000067e+00,-2.323534863390000371e+00,-1.912312133150000093e-01,-9.504794712860000772e+00,-1.153532601889999988e-02,-9.929814375939999965e-03,1.470518019049999944e-02,1.000000000000000000e+00
1.974996838000000032e+00,-2.267153050950000193e+00,-1.950559775019999886e-01,-9.533463757979999897e+00,-1.111615635449999910e-02,4.916429519649999184e-03,1.644660485909999999e-03,1.000000000000000000e+00
1.979942960999999890e+00,-2.293652643080000164e+00,-1.832097646240000155e-01,-9.530570374630000785e+00,-1.026278641070000122e-02,-1.850457675759999837e-02,1.257047150279999928e-02,1.000000000000000000e+00
1.984934887999999953e+00,-2.264681400140000189e+00,-1.736068554280000287e-01,-9.524400161560000910e+00,-1.105421595279999954e-02,5.987450480459999107e-03,3.929511643949999342e-03,1.000000000000000000e+00
1.989940287000000030e+00,-2.315950838000000012e+00,-1.639431924879999891e-01,-9.516652908439999337e+00,1.426770538089999936e-02,-8.527963422239999425e-03,9.928713552649999149e-03,1.000000000000000000e+00
1.994958836999999985e+00,-2.270661789730000102e+00,-1.721504278079999950e-01,-9.498976966489999896e+00,-8.414760231970000795e-03,-1.756492629649999970e-02,-2.324154833329999774e-03,1.000000000000000000e+00
1.999978456000000016e+00,-2.309606729670000025e+00,-2.045625501839999916e-01,-9.534444001189999796e+00,-6.451287190429999671e-04,-6.467509549109999416e-03,3.741171909500000219e-03,1.000000000000000000e+00
2.004842957000000148e+00,-2.273243915170000129e+00,-2.270967092819999866e-01,-9.521534250739998484e+00,-3.622713265939999684e-03,3.842846490440000591e-04,-2.190484432500000144e-03,1.000000000000000000e+00
2.010015867999999983e+00,-2.355956685180000232e+00,-2.195846896840000229e-01,-9.496441310529998958e+00,1.267929561440000151e-02,-3.388710320000000095e-03,1.157638430599999997e-02,1.000000000000000000e+00
2.014965923000000103e+00,-2.272143844979999994e+00,-2.508143973420000061e-01,-9.520828148290000570e+00,2.285088226199999753e-02,4.278184380380000047e-03,-4.259814508259999848e-03,1.000000000000000000e+00
2.020312923000000094e+00,-2.332071513329999846e+00,-2.434274106290000017e-01,-9.493343344519999505e+00,-7.216654252260000513e-03,-6.011859513820000042e-03,8.727672509850001314e-03,1.000000000000000000e+00
2.024936986000000161e+00,-2.232014079159999831e+00,-2.223657900360000161e-01,-9.520656298860000533e+00,-1.121000200510000044e-02,4.718432202939999709e-03,-1.330439187590000058e-02,1.000000000000000000e+00
2.029675484000000196e+00,-2.292503911440000319e+00,-2.342040388030000031e-01,-9.506775657539998647e+00,7.735820952800000379e-03,4.375084303319999764e-03,4.577934741970000714e-03,1.000000000000000000e+00
2.034677825999999801e+00,-2.256673011859999800e+00,-2.330593988119999960e-01,-9.519381456619999682e+00,2.716602524739999969e-03,4.316987004129999722e-03,-4.967853892590000549e-03,1.000000000000000000e+00
2.039682330000000210e+00,-2.237985408660000175e+00,-2.246447678190000019e-01,-9.494251107010001078e+00,3.007637569679999534e-04,-8.165448904039999609e-03,-5.635940469799999991e-03,1.000000000000000000e+00
2.044733126000000123e+00,-2.315956975479999791e+00,-2.480704506619999805e-01,-9.485097494219999703e+00,-3.828602144489999786e-03,-6.220026873050000377e-03,1.548475818710000080e-03,1.000000000000000000e+00
2.049783310000000025e+00,-2.300011364459999985e+00,-2.793700634849999864e-01,-9.524501868370000679e+00,-8.361049927770000320e-03,-1.048704423010000074e-02,5.170723423359999300e-03,1.000000000000000000e+00
2.054624694000000140e+00,-2.322843081729999870e+00,-3.124718851580000067e-01,-9.519039511309999924e+00,-1.242416631429999786e-02,-1.596687734129999953e-02,-1.791481394319999979e-03,1.000000000000000000e+00
2.059682377000000120e+00,-2.342462412829999785e+00,-2.637152886370000004e-01,-9.511656999839999571e+00,-5.504805129020000180e-03,-1.607334986329999812e-02,1.203238219019999930e-02,1.000000000000000000e+00
2.064921083000000213e+00,-2.295670997170000227e+00,-2.936719258859999959e-01,-9.543215336669998550e+00,-3.571507520969999586e-03,-1.941813854499999971e-03,-5.614634603260000405e-03,1.000000000000000000e+00
2.069891655000000164e+00,-2.331070081200000033e+00,-2.721574834909999963e-01,-9.523625670060001269e+00,-4.072366748010000301e-03,-1.235523261129999918e-02,4.143038764599999563e-03,1.000000000000000000e+00
2.074887935000000017e+00,-2.283494091029999673e+00,-3.082078710380000142e-01,-9.565169394319999796e+00,-1.353701110929999944e-02,-2.418554015459999790e-02,-9.488585405049999519e-03,1.000000000000000000e+00
2.079899928000000120e+00,-2.352222028689999966e+00,-2.486521047410000240e-01,-9.553802197130000451e+00,-1.291458588089999977e-02,-2.545090951030000090e-02,1.425906736400000055e-02,1.000000000000000000e+00
2.084925961000000161e+00,-2.302598312209999776e+00,-2.533851246130000012e-01,-9.561362403260000420e+00,-4.625853616739999431e-03,-5.579004995520000891e-03,-1.600512769070000182e-04,1.000000000000000000e+00
2.089916205000000193e+00,-2.340399927340000463e+00,-2.285250067850000122e-01,-9.576920622390000304e+00,-8.280286565420000300e-03,-2.905783476310000012e-03,2.436729380860000113e-03,1.000000000000000000e+00
2.094925513000000183e+00,-2.354842732579999875e+00,-1.722368822489999951e-01,-9.529812834260001253e+00,-2.555213170130000121e-03,-1.119346590710000025e-03,1.597886160020000126e-02,1.000000000000000000e+00
2.099919081999999992e+00,-2.260167283719999975e+00,-2.095599931450000120e-01,-9.577555413169999809e+00,-3.629907732829999734e-03,1.647852361200000245e-03,-1.363542024049999891e-02,1.000000000000000000e+00
2.104992091999999815e+00,-2.397407032070000277e+00,-1.982495859110000036e-01,-9.527337968580001260e+00,8.844054304059999899e-03,-1.599487103519999995e-02,2.485205186530000093e-03,1.000000000000000000e+00
2.109961197000000066e+00,-2.305466707259999914e+00,-2.292913880480000055e-01,-9.523550266730000047e+00,-4.955929238349999870e-03,-5.474702920760000056e-03,-7.169525139029999695e-03,1.000000000000000000e+00
2.114918502000000089e+00,-2.287244091220000275e+00,-2.574707316920000211e-01,-9.478214748970000159e+00,-4.170289263130000194e-03,-8.539332076909999375e-03,-2.262068167329999921e-02,1.000000000000000000e+00
2.119876952999999897e+00,-2.318417958770000009e+00,-3.053373205699999593e-01,-9.511282905830000800e+00,-2.396055730060000100e-03,-3.045635856690000198e-02,-2.200452983379999963e-02,1.000000000000000000e+00
2.124906456999999804e+00,-2.352447800270000222e+00,-3.109480000589999737e-01,-9.476367075280000662e+00,-1.692964881659999796e-02,-1.323439087720000226e-02,-8.919574320319999250e-03,1.000000000000000000e+00
2.129986854999999846e+00,-2.303201392670000125e+00,-3.316710180810000241e-01,-9.529078090239998744e+00,-3.361184149980000341e-03,-5.665347911419999632e-03,-1.447857543829999920e-02,1.000000000000000000e+00
2.134911439000000133e+00,-2.357550968630000021e+00,-2.704776589119999852e-01,-9.470853280289999176e+00,-2.358486875890000375e-02,-6.146857514979999978e-03,3.988359123469999330e-03,1.000000000000000000e+00
2.139984870999999789e+00,-2.338166030809999629e+00,-2.896409716030000081e-01,-9.499584869260001341e+00,-2.709751017390000030e-02,-2.282171323900000076e-02,-4.093686118720000003e-03,1.000000000000000000e+00
2.144929757999999964e+00,-2.394695581150000141e+00,-3.023193792550000203e-01,-9.613553778260001792e+00,-1.705266721550000031e-02,-3.456331789490000445e-02,-1.228753291070000010e-02,1.000000000000000000e+00
2.149941516999999802e+00,-2.386286356989999913e+00,-1.209226097359999974e-01,-9.538916178169998261e+00,-2.581962943080000003e-02,-2.624201029539999924e-02,-1.768161356450000110e-02,1.000000000000000000e+00
2.154836626999999893e+00,-2.439218613490000021e+00,-2.082761547470000224e-02,-9.530427166770000014e+00,-2.445049770180000165e-02,-2.374447137120000093e-02,-1.111492142079999884e-02,1.000000000000000000e+00
2.159874402999999887e+00,-2.406740093079999809e+00,-3.954272317419999655e-02,-9.503376662760000926e+00,-3.350131586189999955e-02,-1.600352115929999999e-02,-3.281179815529999821e-02,1.000000000000000000e+00
2.164943710000000188e+00,-2.574756964750000154e+00,-1.518162264400000072e-01,-9.595289807300000362e+00,-2.695972286159999814e-02,-1.231211982669999996e-02,-1.626576855779999706e-02,1.000000000000000000e+00
2.169934270000000165e+00,-2.518418991459999923e+00,-1.532956148110000139e-01,-9.620887774410000759e+00,-1.016459800299999994e-02,6.927737034859999220e-03,-1.873295195400000168e-02,1.000000000000000000e+00
2.174911921000000081e+00,-2.417374884340000030e+00,-2.015240227380000193e-01,-9.516163079089999144e+00,-1.233397237960000108e-02,-2.696840278800000101e-02,-2.049908973279999935e-02,1.000000000000000000e+00
2.179916195000000112e+00,-2.418926643829999890e+00,-3.999732046089999882e-01,-9.487727842720000027e+00,-2.442649332809999907e-03,-7.109390571709999808e-05,-1.392158120870000057e-02,1.000000000000000000e+00
2.184919170000000133e+00,-2.323516158690000388e+00,-5.479554789089999822e-01,-9.513843111710000855e+00,-8.504298515620000234e-03,2.432465925809999818e-02,-1.880856603379999978e-02,1.000000000000000000e+00
2.189898866000000055e+00,-2.316351820019999952e+00,-6.404210331719999427e-01,-9.588975801849999314e+00,-1.297799032179999812e-02,9.712771512569998850e-03,4.723154939710000159e-03,1.000000000000000000e+00
2.195087784000000042e+00,-2.378610415529999855e+00,-5.607611844690000291e-01,-9.618751346910000777e+00,-7.290758658199999326e-03,1.273516379299999973e-02,2.828439138830000227e-02,1.000000000000000000e+00
2.199968112000000087e+00,-2.339794508790000283e+00,-5.102969985790000162e-01,-9.562864624510000411e+00,-2.427721046840000067e-04,3.238134086129999811e-02,2.889482863249999769e-02,1.000000000000000000e+00
2.204931837999999811e+00,-2.292369471409999804e+00,-3.096401323310000175e-01,-9.584817513119999077e+00,1.050461363050000062e-02,2.174190804359999937e-02,3.012557886540000174e-02,1.000000000000000000e+00
2.210096844000000171e+00,-2.342751166639999827e+00,-2.087661758859999939e-01,-9.626258946060000099e+00,1.596987061199999988e-02,3.852289915080000376e-02,3.891491144900000032e-02,1.000000000000000000e+00
2.214958529000000009e+00,-2.412139321780000234e+00,-7.110838935489999235e-02,-9.562631984799999429e+00,-9.367140009999998587e-03,4.913052916530000203e-02,3.794081881640000431e-02,1.000000000000000000e+00
2.220015672000000162e+00,-2.432714053899999840e+00,-7.774222417909999738e-02,-9.511958028620000505e+00,9.527472779150000098e-03,1.528660021720000019e-02,3.831464052199999581e-02,1.000000000000000000e+00
2.225001462999999902e+00,-2.396399316329999696e+00,-1.495168908560000065e-01,-9.547995556680000107e+00,2.343450859190000096e-02,3.779456019400000144e-02,3.357131034139999859e-02,1.000000000000000000e+00
2.229982806000000206e+00,-2.351865616470000031e+00,-2.126017902600000065e-01,-9.530067685800000632e+00,2.314891852440000009e-02,3.244217485190000611e-02,3.429783508179999607e-02,1.000000000000000000e+00
2.234876465999999784e+00,-2.321063358710000024e+00,-2.393063851770000083e-01,-9.441340770080000055e+00,1.963664777580000076e-02,4.983942210669999734e-02,3.570563346149999845e-02,1.000000000000000000e+00
2.239943792000000045e+00,-2.197028690500000270e+00,-2.703792765709999713e-01,-9.405474506930000089e+00,8.689501322809999734e-03,4.476810991759999636e-02,3.893845155839999878e-02,1.000000000000000000e+00
2.245050437000000176e+00,-2.094331701609999818e+00,-3.405956444229999991e-01,-9.374085096930000915e+00,1.077248435470000085e-02,3.038736246530000101e-02,3.380179032679999501e-02,1.000000000000000000e+00
2.249939664999999867e+00,-2.020522661299999800e+00,-4.028018886959999767e-01,-9.370786055389999092e+00,-6.682841107250000676e-03,8.664743974799998458e-03,4.542737454180000023e-02,1.000000000000000000e+00
2.254905101999999939e+00,-1.891733492040000186e+00,-4.797707447489999999e-01,-9.433511683889999944e+00,-2.219855412840000472e-02,-3.207901027049999917e-04,3.397431224580000492e-02,1.000000000000000000e+00
2.259997908999999972e+00,-1.951715813179999870e+00,-5.675206686660000388e-01,-9.423056340849999657e+00,-1.375421322879999929e-02,-2.073913626370000110e-02,2.738547325129999863e-02,1.000000000000000000e+00
2.264998690000000092e+00,-2.060991595940000032e+00,-7.900899088519999225e-01,-9.467176053080001097e+00,-4.603155329819999531e-02,-3.350395709279999773e-02,4.168990999460000374e-02,1.000000000000000000e+00
2.269999606999999919e+00,-2.138078196619999982e+00,-9.928330067910000611e-01,-9.430723514480000347e+00,-4.857300221919999550e-02,-2.731871604920000154e-02,4.670687019820000258e-02,1.000000000000000000e+00
2.274977000999999888e+00,-2.127214565040000060e+00,-1.256620648279999974e+00,-9.409019632190000593e+00,-5.996627733109999303e-02,-4.692526161669999252e-02,3.368251770729999844e-02,1.000000000000000000e+00
2.279951013999999887e+00,-2.152291577020000179e+00,-1.254764791279999958e+00,-9.466500930300000505e+00,-9.071355313060000536e-02,-3.686846792699999958e-02,3.703784942630000687e-02,1.000000000000000000e+00
2.284937250000000031e+00,-2.250221936029999981e+00,-1.003812081440000004e+00,-9.499591299000000433e+00,-1.221770346160000048e-01,-4.020540416240000331e-02,5.331571772689999711e-02,1.000000000000000000e+00
2.289950206999999960e+00,-2.233756246659999611e+00,-5.424423049790000340e-01,-9.523871169249998658e+00,-1.371115893129999930e-01,-4.551429301499999858e-02,5.215789377690000644e-02,1.000000000000000000e+00
2.295113028999999916e+00,-2.374545796440000078e+00,-7.432338761230000701e-02,-9.501976732830000216e+00,-1.624783277509999901e-01,-5.236406624319999564e-02,5.652759224179999820e-02,1.000000000000000000e+00
2.299976442000000176e+00,-2.440983285079999732e+00,1.603376422770000087e-01,-9.495438270970000261e+00,-1.238998398179999988e-01,-3.822283446790000067e-02,5.520341172809999780e-02,1.000000000000000000e+00
2.304991262000000152e+00,-2.505932434850000057e+00,3.349653469189999844e-01,-9.400126131639998661e+00,-1.271346956489999847e-01,-2.363921143109999970e-02,6.720933318140000223e-02,1.000000000000000000e+00
2.309897997000000203e+00,-2.503842769090000253e+00,2.850686587190000010e-01,-9.403781731539998745e+00,-1.116803064940000006e-01,-8.709580637509999404e-03,6.490948051210000680e-02,1.000000000000000000e+00
2.314994294999999980e+00,-2.499232352690000436e+00,1.389246692290000140e-01,-9.378168566849998555e+00,-1.036814525720000102e-01,-1.035112887620000081e-02,6.885688006880000267e-02,1.000000000000000000e+00
2.319969770000000153e+00,-2.302790181520000257e+00,6.598333795869999741e-02,-9.347166694869999404e+00,-1.109009161590000098e-01,8.384654298420000582e-03,6.541438400750000659e-02,1.000000000000000000e+00
2.325001327999999923e+00,-2.208685664419999917e+00,-8.869358770059999203e-03,-9.435307335139999196e+00,-1.079973429439999855e-01,1.075144298369999987e-02,6.266222894190000281e-02,1.000000000000000000e+00
2.330119655999999928e+00,-2.222990376359999853e+00,1.861697195419999978e-02,-9.413342756089999597e+00,-1.087121590970000079e-01,-8.134763687850000632e-03,7.602020353080000958e-02,1.000000000000000000e+00
2.335109424000000100e+00,-2.152781260229999827e+00,3.254151177579999582e-02,-9.441723631919998638e+00,-1.053556799890000006e-01,-2.027415111659999769e-02,6.829882413149999942e-02,1.000000000000000000e+00
2.339963448999999862e+00,-2.190225294099999775e+00,1.277084522170000014e-01,-9.466810726900000361e+00,-1.115634739400000186e-01,-1.949395798149999859e-02,4.746140167119999170e-02,1.000000000000000000e+00
2.344969477999999885e+00,-2.372627980119999869e+00,2.859602737970000086e-01,-9.509828030850000502e+00,-9.874230623250000727e-02,-2.302353084089999932e-02,5.925861373539999949e-02,1.000000000000000000e+00
2.350092234999999974e+00,-2.405476649020000135e+00,1.570166628940000142e-01,-9.593960604519999436e+00,-8.686067909000000364e-02,-2.575829438870000029e-02,5.245835334060000577e-02,1.000000000000000000e+00
2.354978718999999998e+00,-2.693902691870000421e+00,7.124452358970000121e-02,-9.718061615959999955e+00,-7.374482601880000265e-02,-1.986173167820000016e-02,5.823268368840000403e-02,1.000000000000000000e+00
2.360000533000000011e+00,-2.657286487140000375e+00,-9.206249901969999760e-02,-9.477531442880000156e+00,-5.684317648409999840e-02,1.373811066150000017e-02,5.286034941669999487e-02,1.000000000000000000e+00
2.365130402000000132e+00,-2.603992119319999965e+00,-2.873232144460000081e-01,-9.477638994910000392e+00,-3.507526963950000076e-02,3.464632481339999931e-02,4.677090048790000232e-02,1.000000000000000000e+00
2.370003796999999857e+00,-2.450800768600000179e+00,-2.804678321260000162e-01,-9.566885550589999454e+00,-4.316276311869999410e-02,4.683247208599999878e-02,6.195275858040000250e-02,1.000000000000000000e+00
2.374986504000000220e+00,-2.300845769459999968e+00,-1.677982239480000082e-01,-9.579074001040000397e+00,-5.167915672060000021e-02,4.662216454740000099e-02,3.268418833609999796e-02,1.000000000000000000e+00
2.379959438000000205e+00,-2.388900777269999942e+00,-6.586968041719999667e-02,-9.492149166300000829e+00,-7.372757047410001541e-02,4.631814360619999210e-02,3.828863054509999697e-02,1.000000000000000000e+00
2.384984177999999844e+00,-2.409876491409999932e+00,3.989432679060000292e-03,-9.399083344590000166e+00,-6.178031861779999939e-02,2.942089177670000055e-02,4.553782567379999896e-02,1.000000000000000000e+00
2.389928568999999836e+00,-2.323892006259999921e+00,8.463207502429999363e-02,-9.408151032660001079e+00,-7.211364805700000435e-02,3.025474585590000320e-02,3.216226398940000286e-02,1.000000000000000000e+00
2.394948124999999983e+00,-2.264358890190000029e+00,7.804216610689999889e-02,-9.440856201429999928e+00,-8.400987833739999300e-02,1.568781584500000131e-02,3.957955539230000042e-02,1.000000000000000000e+00
2.399929301999999876e+00,-2.293428478940000126e+00,1.609271874010000103e-01,-9.503352112840000032e+00,-8.613499999050000522e-02,6.814470514659999936e-03,3.862223401669999390e-02,1.000000000000000000e+00
2.404932252000000048e+00,-2.257748239880000174e+00,1.143164072709999951e-01,-9.520323705900000988e+00,-6.862845271829999538e-02,8.124539628619999870e-03,3.004366718229999761e-02,1.000000000000000000e+00
2.409939583999999968e+00,-2.377720042560000024e+00,1.059328655350000037e-01,-9.573074468360001532e+00,-5.204324424269999444e-02,1.736072078350000061e-02,2.575486525890000045e-02,1.000000000000000000e+00
2.414953017000000202e+00,-2.417906799259999850e+00,5.910200149680000167e-03,-9.604415363039999320e+00,-5.997976660730000575e-02,2.070080302659999677e-02,1.851392351090000096e-02,1.000000000000000000e+00
2.419970118000000170e+00,-2.403949731709999593e+00,-1.249264956320000029e-02,-9.647560677280001329e+00,-3.642276301980000575e-02,1.561809331180000031e-02,3.079234622420000053e-02,1.000000000000000000e+00
2.424957624000000145e+00,-2.489455055040000087e+00,5.510028472490000745e-02,-9.573678863989998788e+00,-5.142440646890000105e-02,1.866424828770000058e-02,3.791461512449999932e-02,1.000000000000000000e+00
2.429998873999999809e+00,-2.427333237649999642e+00,6.106003794610000146e-02,-9.420823467230000858e+00,-1.017245091500000066e-02,2.478120103479999892e-02,3.071269951759999714e-02,1.000000000000000000e+00
2.434972566999999977e+00,-2.259987104849999984e+00,1.727874447870000191e-02,-9.461267121300000582e+00,-4.862932488319999386e-02,1.836366578940000147e-02,2.499942295249999932e-02,1.000000000000000000e+00
2.439946454999999848e+00,-2.115453400099999826e+00,-7.475022102250000744e-02,-9.451735322839999398e+00,-4.040547087790000158e-02,3.055913560090000106e-02,1.988627575340000050e-02,1.000000000000000000e+00
2.444934967000000015e+00,-2.164842431039999848e+00,-3.360289392959999594e-02,-9.515872571710000116e+00,-2.675426192580000057e-02,1.729149371390000314e-02,2.983502857389999999e-02,1.000000000000000000e+00
2.450109735999999927e+00,-2.116875687990000365e+00,5.637442371339999869e-02,-9.554239419510000886e+00,-4.154227301480000606e-02,2.365264110269999984e-02,2.821288257839999966e-02,1.000000000000000000e+00
2.454972982000000137e+00,-2.319950282899999827e+00,6.890076434200000099e-02,-9.553973462050000975e+00,-2.921134047210000029e-02,-2.782279439269999891e-02,4.057036712769999942e-02,1.000000000000000000e+00
2.459981768000000013e+00,-2.223286875089999892e+00,-3.001466474590000141e-02,-9.423116546599999310e+00,-2.818675898020000029e-02,-2.748745121059999880e-02,2.252900600430000205e-02,1.000000000000000000e+00
2.464960002999999844e+00,-2.294729916929999725e+00,-1.005713202360000030e-01,-9.462289450089999221e+00,-2.843856811519999972e-02,-1.147844269869999906e-02,4.638198390599999887e-02,1.000000000000000000e+00
2.469945727999999896e+00,-2.153195540120000029e+00,-4.624525302019999451e-02,-9.476765134680000813e+00,-3.409349918369999899e-02,-1.927109621470000228e-02,3.570945188400000136e-02,1.000000000000000000e+00
2.474971152000000174e+00,-2.262685111760000201e+00,1.435269411429999920e-02,-9.651643562680000343e+00,-4.236440360550000617e-02,-5.097571760419999931e-03,4.390006139870000074e-02,1.000000000000000000e+00
2.480025841999999869e+00,-2.273171580590000129e+00,4.158114279979999856e-02,-9.672870475110000754e+00,-4.670909792179999548e-02,-2.585015632209999858e-02,4.971119388939999884e-02,1.000000000000000000e+00
2.484955373000000023e+00,-2.433463410959999962e+00,3.872817365459999689e-02,-9.523517533510000632e+00,5.758343264459999875e-03,-3.101750835779999715e-02,5.019528046249999848e-02,1.000000000000000000e+00
2.489942953999999986e+00,-2.408026479630000161e+00,-2.357194688840000187e-03,-9.465595505890000538e+00,4.656595643609999849e-03,-4.301578551530000488e-02,3.134913370010000006e-02,1.000000000000000000e+00
2.494947948000000082e+00,-2.327435670220000308e+00,-1.238246695869999886e-01,-9.439107896459999480e+00,1.236284431070000175e-02,-4.412674903869999443e-02,2.413118816909999922e-02,1.000000000000000000e+00
2.499927570000000099e+00,-2.260158662020000264e+00,-1.781653955149999913e-01,-9.480599598280001317e+00,2.231253543870000133e-03,-5.120190978050000175e-02,4.739444330330000454e-02,1.000000000000000000e+00
2.504846659000000031e+00,-2.134749782850000166e+00,1.410668003899999932e-02,-9.516313885739998923e+00,-1.315341051670000129e-02,-4.274131357669999631e-02,2.287989854809999862e-02,1.000000000000000000e+00
2.509970141999999793e+00,-2.264186310099999933e+00,1.822512765890000053e-01,-9.482981524979999577e+00,-2.763133868579999847e-02,-4.121579974890000192e-02,4.444882646200000453e-02,1.000000000000000000e+00
2.514956393999999928e+00,-2.316433945340000022e+00,1.833748920580000052e-01,-9.403119468239998113e+00,-8.457775227729998763e-03,-4.434822499750000480e-02,3.115686215459999645e-02,1.000000000000000000e+00
2.519923539000000101e+00,-2.315978895049999764e+00,1.065746705700000019e-01,-9.465676754439998675e+00,-2.828135155139999656e-03,-5.796930938960000168e-02,3.644132241609999989e-02,1.000000000000000000e+00
2.524937265000000153e+00,-2.140190366470000161e+00,-9.972948998369998708e-02,-9.463827327180000637e+00,-1.658738218249999896e-02,-6.121320277450000014e-02,2.910215221349999812e-02,1.000000000000000000e+00
2.529814211000000146e+00,-2.246166669290000417e+00,-7.628208849860000640e-02,-9.542361934710001492e+00,-1.648233272140000108e-02,-6.346425414089999772e-02,2.768563479190000454e-02,1.000000000000000000e+00
2.534911736000000193e+00,-2.310922050049999843e+00,-1.413751859200000072e-01,-9.527170210799999595e+00,-2.057465165850000041e-02,-7.679853588339999315e-02,3.133174031969999940e-02,1.000000000000000000e+00
2.539815507000000139e+00,-2.351836390369999918e+00,-2.699109740729999790e-02,-9.510858542939999438e+00,-5.391295533630000372e-03,-8.859233558180000523e-02,4.827345907689999799e-02,1.000000000000000000e+00
2.544939122999999803e+00,-2.364911852790000157e+00,2.966170485599999712e-02,-9.454290852550000679e+00,-2.269404940309999869e-02,-7.115013152360000204e-02,3.520161658530000098e-02,1.000000000000000000e+00
2.549909406999999906e+00,-2.341217088940000135e+00,5.539006601830000209e-02,-9.481215099830000881e+00,-4.260139539840000419e-03,-7.476177811619999503e-02,3.950247541069999702e-02,1.000000000000000000e+00
2.554872587000000195e+00,-2.159522843450000007e+00,1.957186609280000059e-02,-9.573507599079999153e+00,1.488704513760000063e-02,-7.847736775880000126e-02,2.576580084859999772e-02,1.000000000000000000e+00
2.559896703000000162e+00,-2.278286731649999730e+00,1.020984613039999968e-02,-9.588989245849999676e+00,-1.053777057679999981e-03,-7.955827563999999519e-02,3.161884844300000275e-02,1.000000000000000000e+00
2.564886789000000000e+00,-2.322729976750000258e+00,1.347008775210000071e-02,-9.500957326649999146e+00,2.026025205849999941e-02,-8.401310443880001533e-02,4.320116713639999412e-02,1.000000000000000000e+00
2.569893758000000084e+00,-2.408612170560000099e+00,2.247217420450000058e-01,-9.459052367860000032e+00,1.920773088929999747e-02,-8.850029855969998582e-02,4.852152243260000192e-02,1.000000000000000000e+00
2.574899669000000113e+00,-2.463650751699999919e+00,2.812151981609999907e-01,-9.420412548339999859e+00,-1.278672250920000067e-03,-9.313208609819999262e-02,4.583225026729999957e-02,1.000000000000000000e+00
2.579869276000000156e+00,-2.356463027259999787e+00,2.628764449270000192e-01,-9.440783136200000314e+00,2.882830332959999704e-03,-9.117716550830000377e-02,3.405734896659999567e-02,1.000000000000000000e+00
2.584916849999999933e+00,-2.310380636649999708e+00,3.362478610099999821e-01,-9.461969716609999637e+00,2.962108002979999682e-03,-1.005522012710000079e-01,2.620858140289999971e-02,1.000000000000000000e+00
2.589934206000000128e+00,-2.280008440870000097e+00,1.172601782379999874e-01,-9.448069786070000475e+00,1.785453408959999932e-02,-1.082736179230000123e-01,3.769820556040000270e-02,1.000000000000000000e+00
2.594905998000000213e+00,-2.234899717599999835e+00,6.402755054870000462e-02,-9.538103692740000028e+00,1.545726787299999891e-02,-9.922184795140000235e-02,4.269970953459999857e-02,1.000000000000000000e+00
2.599906285999999955e+00,-2.472232409820000143e+00,6.804756331240000011e-02,-9.577037526769998976e+00,1.997131109240000285e-02,-1.139758601780000019e-01,5.645644292240000611e-02,1.000000000000000000e+00
2.604879846000000221e+00,-2.527205816760000001e+00,8.108390842289998901e-02,-9.487090129339998512e+00,2.029255777599999963e-02,-1.333470046520000007e-01,4.663832485680000084e-02,1.000000000000000000e+00
2.609895182999999896e+00,-2.506839028299999939e+00,4.799702402430000570e-02,-9.446203407680000552e+00,2.000192552799999815e-02,-1.097062379120000014e-01,4.571700841190000364e-02,1.000000000000000000e+00
2.614950583999999800e+00,-2.496143739020000307e+00,5.314810491090000283e-02,-9.534759058489999717e+00,4.127063974740000085e-02,-8.993630856280000752e-02,4.350291937589999963e-02,1.000000000000000000e+00
2.619925595000000218e+00,-2.517326520040000126e+00,1.202147354610000052e-01,-9.490508997879999242e+00,5.358021706339999995e-02,-1.019164770839999928e-01,4.172451421619999962e-02,1.000000000000000000e+00
2.624945933999999870e+00,-2.403207973429999811e+00,7.870922888059999484e-03,-9.494925645269999492e+00,6.162104755640000070e-02,-8.551337569949998829e-02,5.219731107350000093e-02,1.000000000000000000e+00
2.629918909000000138e+00,-2.450823564959999867e+00,-1.205652887650000143e-03,-9.480378064479999978e+00,5.957150086759999130e-02,-8.961001038550001074e-02,4.235816001889999849e-02,1.000000000000000000e+00
2.635103223000000217e+00,-2.557389650359999766e+00,-4.501752415640000032e-02,-9.342483505489999729e+00,5.675578489900000301e-02,-8.110029995440000417e-02,5.924082919959999805e-02,1.000000000000000000e+00
2.639983266000000217e+00,-2.429291093720000294e+00,-6.404688087029999921e-02,-9.315594329519999661e+00,7.765880227089999588e-02,-7.798902690410000615e-02,4.361712560059999994e-02,1.000000000000000000e+00
2.644934457999999822e+00,-2.339107841699999746e+00,4.429573552069999282e-02,-9.380330713319999347e+00,6.997037678959999729e-02,-7.395261526110001593e-02,5.724665522580000415e-02,1.000000000000000000e+00
2.650105877000000110e+00,-2.226496484790000174e+00,8.423406128319999020e-02,-9.396692065539998140e+00,4.809880256649999575e-02,-9.089966863389999097e-02,6.503153592350000012e-02,1.000000000000000000e+00
2.654939822999999866e+00,-2.090202346720000381e+00,1.401064537589999937e-01,-9.486604391649999357e+00,4.039239883419999677e-02,-8.283918350930000174e-02,6.649217754599999475e-02,1.000000000000000000e+00
2.660082409000000148e+00,-2.029149327609999887e+00,-1.334619377100000059e-01,-9.449022556750000135e+00,3.033598512410000045e-02,-1.004230976099999978e-01,8.162798732520000489e-02,1.000000000000000000e+00
2.664970451999999934e+00,-2.049317378630000075e+00,-5.993281031469999826e-02,-9.345178735919999369e+00,2.922938764099999864e-02,-1.190779879690000015e-01,9.684943407769999735e-02,1.000000000000000000e+00
2.669905682000000002e+00,-2.180166841420000168e+00,3.894496734359999962e-02,-9.255406110539999176e+00,1.255682017650000017e-02,-1.503754407169999863e-01,9.864115715030000175e-02,1.000000000000000000e+00
2.674889170999999788e+00,-2.358558245979999857e+00,1.770986613329999793e-01,-9.305150676919998531e+00,-3.389741759750000260e-03,-1.723507344720000001e-01,1.052716225390000065e-01,1.000000000000000000e+00
2.679972788999999800e+00,-2.189222400659999845e+00,4.573761767849999771e-01,-9.292547215929999993e+00,-2.324847877030000037e-02,-1.705577820540000178e-01,1.035459637639999930e-01,1.000000000000000000e+00
2.685012465999999876e+00,-2.366338378460000058e+00,3.605187807720000026e-01,-9.551095860789999392e+00,-4.845173284409999559e-02,-1.844454258680000291e-01,1.153788194060000050e-01,1.000000000000000000e+00
2.689925643000000033e+00,-2.375735883009999938e+00,1.878198887680000151e-01,-9.590648118969999913e+00,-3.221970796589999908e-02,-1.865854114290000088e-01,1.152643859390000136e-01,1.000000000000000000e+00
2.695079944999999810e+00,-2.477878306750000093e+00,2.429869368530000046e-02,-9.421948671869998293e+00,-1.294285710900000032e-02,-1.804426461460000020e-01,1.166798472400000092e-01,1.000000000000000000e+00
2.699951490000000121e+00,-2.326642181750000038e+00,4.085324408380000549e-02,-9.219860749900000485e+00,-4.845195915549999587e-03,-1.699143350120000118e-01,1.347422003750000097e-01,1.000000000000000000e+00
2.704902172999999799e+00,-1.937567460840000200e+00,5.093617270229999772e-01,-9.364800551240000104e+00,-2.260085567829999906e-02,-1.888108551500000121e-01,1.350451558830000065e-01,1.000000000000000000e+00
2.709982709000000156e+00,-1.885079440979999799e+00,4.896984471870000077e-01,-9.686223877679999816e+00,-2.322228066620000281e-02,-1.962239891290000204e-01,1.409368962049999952e-01,1.000000000000000000e+00
2.715095288000000107e+00,-2.054779443429999741e+00,3.137620710990000061e-01,-9.772263161749998872e+00,-1.747211255130000016e-02,-2.354184538129999726e-01,1.122580021619999924e-01,1.000000000000000000e+00
2.719885777000000004e+00,-2.475952307130000030e+00,8.288982533369999850e-02,-9.653180270730000956e+00,3.788752015679999665e-03,-2.622716128829999938e-01,1.227773055430000093e-01,1.000000000000000000e+00
2.725017665000000200e+00,-2.188899306190000171e+00,-4.386889023740000448e-01,-9.200202109710000187e+00,6.311893463129999472e-03,-2.533131837840000289e-01,1.211297065020000008e-01,1.000000000000000000e+00
2.729952996000000187e+00,-1.418548263160000156e+00,-9.802033153849999403e-01,-8.902457765019999414e+00,1.001260988410000025e-02,-2.516339719300000333e-01,1.369074136020000110e-01,1.000000000000000000e+00
2.734964414999999871e+00,-6.543864301599999767e-01,-1.626218076910000088e+00,-9.140353497949998740e+00,1.386954076589999932e-02,-2.475442439320000021e-01,1.655665338039999934e-01,1.000000000000000000e+00
2.739944243000000057e+00,-6.892372326579999653e-01,-1.871736705929999856e+00,-9.452466559730000384e+00,-4.007628187540000081e-02,-2.688582539559999929e-01,2.354217022659999825e-01,1.000000000000000000e+00
2.745123722999999849e+00,-1.875868691170000213e+00,-1.544971433940000027e+00,-9.602812019499999963e+00,-9.895851463080000687e-02,-3.366014957429999677e-01,2.659045755860000027e-01,1.000000000000000000e+00
2.749967863000000179e+00,-2.687364522279999779e+00,-9.432513028239999375e-01,-9.280838073440000002e+00,-1.853045672179999825e-01,-4.232471883300000237e-01,2.830099761490000310e-01,1.000000000000000000e+00
2.754885600999999795e+00,-2.359865090790000064e+00,-1.024603013599999946e+00,-9.199159907180000317e+00,-2.419368177650000062e-01,-4.451680183410000047e-01,3.006366193289999877e-01,1.000000000000000000e+00
2.759934257999999918e+00,-2.084811739730000113e+00,-1.088702780009999982e+00,-9.465583230930000980e+00,-2.617662549020000062e-01,-4.024651944640000312e-01,3.387134969230000126e-01,1.000000000000000000e+00
2.765007680000000079e+00,-2.234443790529999863e+00,-6.866232507680000152e-01,-9.666496263899999164e+00,-2.464936673639999964e-01,-3.862369656560000197e-01,3.694763481620000345e-01,1.000000000000000000e+00
2.769965769000000133e+00,-3.404269221799999912e+00,-4.820535584570000420e-01,-9.875007496910001237e+00,-2.502270042899999991e-01,-4.039023518559999859e-01,4.041256010529999942e-01,1.000000000000000000e+00
2.774928008999999918e+00,-3.332857305749999721e+00,-4.406071936179999926e-01,-9.873354469009999690e+00,-2.670378983020000319e-01,-4.766961038109999715e-01,4.313336908820000204e-01,1.000000000000000000e+00
2.779917595000000130e+00,-2.082049143149999892e+00,1.456563795030000052e-01,-1.005184524230000065e+01,-2.774338424209999987e-01,-5.042026042939999897e-01,4.687298834320000052e-01,1.000000000000000000e+00
2.784941882000000035e+00,-2.998772650659999872e+00,4.051235000439999956e-01,-1.005193993480000003e+01,-2.757215797900000043e-01,-4.971803128719999854e-01,4.423133730889999837e-01,1.000000000000000000e+00
2.789926508999999832e+00,-3.004262187990000221e+00,2.130823403190000020e-01,-1.010375546230000054e+01,-2.665107250209999834e-01,-5.187475681300000030e-01,4.311389327049999776e-01,1.000000000000000000e+00
2.794874785999999833e+00,-2.854813384800000353e+00,1.490104209049999962e-01,-1.019250926600000007e+01,-2.680389285090000184e-01,-5.656494498249999836e-01,3.810514211649999594e-01,1.000000000000000000e+00
2.799916699999999814e+00,-3.484766069319999993e+00,5.183436456439999979e-02,-1.023688149170000017e+01,-2.626766860489999633e-01,-6.023684144020000630e-01,3.769999146459999673e-01,1.000000000000000000e+00
2.804876134000000132e+00,-3.122659142570000324e+00,2.580128574780000128e-01,-1.061354505929999981e+01,-2.568888068199999819e-01,-6.351409554479999775e-01,3.445491492750000218e-01,1.000000000000000000e+00
2.809957890000000180e+00,-3.344177741190000219e+00,7.978975138630000075e-01,-1.063145364100000023e+01,-2.500395774839999641e-01,-6.270750164989999931e-01,2.527976930139999578e-01,1.000000000000000000e+00
2.814933547999999952e+00,-3.543525716800000058e+00,3.385565763440000486e-01,-1.056068323769999928e+01,-2.556706368919999806e-01,-6.528691649440000466e-01,2.097061574460000188e-01,1.000000000000000000e+00
2.820006797000000009e+00,-2.711570450510000008e+00,1.029445613059999931e-01,-1.050996427329999960e+01,-1.858660578730000068e-01,-6.795641779899999069e-01,1.571037620309999883e-01,1.000000000000000000e+00
2.824932330999999852e+00,-2.612723999570000011e+00,5.970713463290000522e-02,-1.087876017630000192e+01,-1.595675349239999985e-01,-6.799879074099999254e-01,1.666248291730000053e-01,1.000000000000000000e+00
2.829962171000000026e+00,-2.409027911759999974e+00,1.337620897010000087e-01,-1.090045879789999894e+01,-9.111706167460000005e-02,-7.286388278009999775e-01,1.712246239189999797e-01,1.000000000000000000e+00
2.834982732999999921e+00,-2.513312023709999732e+00,1.824898528520000063e-01,-1.084412608529999922e+01,-2.628235332669999827e-02,-7.971189618109999486e-01,1.351563781500000061e-01,1.000000000000000000e+00
2.839916929999999784e+00,-2.580122291169999915e+00,3.852957320940000180e-02,-1.110221588049999930e+01,4.680975526569999823e-02,-8.539509773250000269e-01,1.586432754990000082e-01,1.000000000000000000e+00
2.844925603000000081e+00,-2.120092165809999596e+00,3.767939160079999961e-01,-1.134215510190000131e+01,1.244392246010000008e-01,-9.525798559190000736e-01,9.562897682189999693e-02,1.000000000000000000e+00
2.850072637999999881e+00,-1.909981827040000191e+00,4.782243920900000056e-01,-1.199419511510000014e+01,2.078941613439999891e-01,-1.070474624630000093e+00,9.199973940850000864e-02,1.000000000000000000e+00
2.854944343000000107e+00,-1.847363312179999939e+00,4.451370190680000172e-01,-1.209831366119999885e+01,3.040753602980000303e-01,-1.201366782190000038e+00,6.714508682490000213e-02,1.000000000000000000e+00
2.859944108000000096e+00,-1.819711919660000010e+00,-9.918116278539999831e-02,-1.300028938920000066e+01,3.258455097679999746e-01,-1.347358345990000039e+00,3.733069449660000177e-02,1.000000000000000000e+00
2.865098197000000013e+00,-1.586685400209999930e+00,1.754057580759999790e-01,-1.333043787390000112e+01,2.833479940890000215e-01,-1.557418465609999858e+00,1.858427561820000240e-02,1.000000000000000000e+00
2.869989148000000156e+00,-1.257197279119999900e+00,1.987237975609999763e-01,-1.345689918470000102e+01,2.043765187260000171e-01,-1.796233415599999939e+00,-8.321889489889999769e-02,1.000000000000000000e+00
2.874898106999999925e+00,-1.123654631730000020e+00,5.188602625290000131e-02,-1.426868552319999850e+01,9.760683774949999170e-02,-2.085394859310000015e+00,-1.556250751019999934e-01,1.000000000000000000e+00
2.879974305999999817e+00,-8.663863820689999828e-01,7.198387071490000011e-01,-1.406091604849999932e+01,2.172520942990000328e-02,-2.374248266219999959e+00,-1.893827766180000149e-01,1.000000000000000000e+00
2.884966565000000038e+00,-4.964792299009999632e-01,9.855275791480000436e-01,-1.401049519030000035e+01,3.170246724040000092e-03,-2.699607610699999771e+00,-2.337802201509999733e-01,1.000000000000000000e+00
2.889968321000000007e+00,-5.332501137409999536e-01,1.477080677759999849e+00,-1.414872292670000142e+01,1.132139638069999954e-01,-2.990780830379999866e+00,-2.963725030420000239e-01,1.000000000000000000e+00
2.894932611999999850e+00,-5.857005050119999945e-01,2.040497673970000037e+00,-1.450123521890000156e+01,1.931411772969999774e-01,-3.324768304820000075e+00,-3.627707958220000029e-01,1.000000000000000000e+00
2.899996079000000115e+00,-2.286038076430000066e-01,2.002165166829999787e+00,-1.481879894729999947e+01,3.229614794249999754e-01,-3.639954566959999749e+00,-4.477981626990000241e-01,1.000000000000000000e+00
2.905002663999999957e+00,3.978989190850000246e-01,1.708582179600000028e+00,-1.524042744579999997e+01,4.245460629460000024e-01,-3.968870878219999732e+00,-5.459019541740000037e-01,0.000000000000000000e+00
2.909917888999999924e+00,3.862579099239999980e-01,9.064590108689999370e-01,-1.573226403760000025e+01,4.618147909640000215e-01,-4.326216220859999240e+00,-6.631373167040000016e-01,0.000000000000000000e+00
2.914948147000000045e+00,9.684310445270000178e-01,7.451382758389998862e-02,-1.548868090670000086e+01,4.399634301659999802e-01,-4.702721595759999929e+00,-6.886730790139999892e-01,0.000000000000000000e+00
2.919980852000000127e+00,1.698132827910000087e+00,-1.309133035399999978e-01,-1.566347165640000050e+01,3.677778542039999987e-01,-5.096748352049999653e+00,-6.545448899269999954e-01,0.000000000000000000e+00
