t,ax,ay,az,wx,wy,wz,zv
5.166664999999999973e-03,-2.735491716579999899e+00,3.703153311110000123e-01,-9.390835740720000047e+00,-8.040866814550001046e-03,2.601722488179999786e-03,5.720311310140000112e-03,1.000000000000000000e+00
1.026104299999999921e-02,-2.701777955290000310e+00,3.340645621539999888e-01,-9.447288280309999564e+00,-5.939402617510000475e-03,5.371945444490000511e-04,6.567560601979999767e-03,1.000000000000000000e+00
1.535042900000000050e-02,-2.677550399749999865e+00,3.364764456019999628e-01,-9.450396183200000522e+00,-1.121275778859999982e-02,1.653419621290000072e-02,-1.346183009450000086e-02,1.000000000000000000e+00
2.033135999999999971e-02,-2.711801921179999741e+00,3.996909536009999875e-01,-9.419406586170000040e+00,-2.089062472810000065e-04,8.441755548119999480e-03,-2.653840463609999974e-03,1.000000000000000000e+00
2.533406599999999884e-02,-2.692292626329999994e+00,3.482970491140000013e-01,-9.449922720469999149e+00,-2.463714918120000368e-04,1.050599757579999925e-02,-4.088649991900000259e-03,1.000000000000000000e+00
3.032972399999999888e-02,-2.678522751909999666e+00,3.743822882889999981e-01,-9.456297516190000252e+00,8.843580260870001139e-03,-1.156946457920000199e-02,-8.678977377709999608e-03,1.000000000000000000e+00
3.536445099999999814e-02,-2.745808235680000209e+00,3.461810433399999942e-01,-9.428962934539999452e+00,1.190839335320000025e-02,-6.188636645670000068e-03,5.592257250100000389e-03,1.000000000000000000e+00
4.035051500000000346e-02,-2.732984702200000449e+00,3.699289621419999952e-01,-9.430548157909999674e+00,1.087494660170000051e-02,-3.275313880290000364e-03,1.718044839799999848e-02,1.000000000000000000e+00
4.537310800000000227e-02,-2.753300344999999982e+00,3.413620622190000065e-01,-9.449455687480000421e+00,1.137087494129999932e-02,4.151920787989999556e-03,1.873468793929999876e-02,1.000000000000000000e+00
5.025040599999999746e-02,-2.664364462700000047e+00,3.427667779169999984e-01,-9.407709134110000093e+00,4.213354550299999897e-03,3.282679477709999748e-03,-4.246646072719999915e-03,1.000000000000000000e+00
5.520268500000000134e-02,-2.746461731150000141e+00,3.332099180860000343e-01,-9.415759754099999768e+00,7.587882224469999666e-03,7.918995805079999048e-03,1.059549115599999966e-02,1.000000000000000000e+00
6.035961399999999893e-02,-2.709429639090000563e+00,3.190599217789999997e-01,-9.394668450750000233e+00,-4.677662625910000010e-03,-4.227138590069999882e-03,1.501013338570000161e-02,1.000000000000000000e+00
6.521993299999999383e-02,-2.677739492579999769e+00,3.489435303239999953e-01,-9.389287342239999390e+00,7.305630017069999517e-03,-2.256585983560000126e-03,-1.112182252109999991e-02,1.000000000000000000e+00
7.025727199999999562e-02,-2.738820276489999817e+00,3.115138537809999941e-01,-9.444538104819999447e+00,-3.433236386630000251e-03,9.923704899850000274e-03,5.094034131620000377e-03,1.000000000000000000e+00
7.527660199999999802e-02,-2.725679932139999817e+00,3.597640534150000069e-01,-9.377336792199999493e+00,-1.299839816060000073e-03,-3.815094940359999715e-03,1.680426765230000081e-03,1.000000000000000000e+00
8.039973100000000206e-02,-2.676883168009999814e+00,3.213629014909999970e-01,-9.401948086370000013e+00,1.528969127679999894e-02,1.670305989679999811e-02,-8.658490143719999033e-03,1.000000000000000000e+00
8.522234200000000648e-02,-2.697042743459999503e+00,3.237173921959999867e-01,-9.407721409069999652e+00,-2.398002427070000230e-03,1.049681752920000183e-02,-1.237043738370000208e-02,1.000000000000000000e+00
9.037923999999999958e-02,-2.673068285899999896e+00,3.332281843950000155e-01,-9.393333987280000130e+00,-7.100484333930000627e-03,1.073414273560000139e-02,-9.906383231279999868e-03,1.000000000000000000e+00
9.521538300000000066e-02,-2.759157838849999766e+00,3.403651966680000251e-01,-9.423466675220000255e+00,-2.407316118480000173e-03,-1.995698548849999913e-03,-7.463614456359999628e-04,1.000000000000000000e+00
1.002050579999999996e-01,-2.701559051840000336e+00,2.978924296580000020e-01,-9.378194285819999365e+00,4.531220532949999970e-03,-4.879151005299999996e-03,-1.452798023820000076e-02,1.000000000000000000e+00
1.052009770000000011e-01,-2.737772521000000125e+00,3.593868541329999777e-01,-9.412522087350000177e+00,-7.327434606850000663e-03,1.001158449799999933e-02,-1.457942649720000072e-03,1.000000000000000000e+00
1.103890299999999991e-01,-2.746284913280000239e+00,3.380954616380000277e-01,-9.405904715040000141e+00,-1.149566494859999852e-03,1.313003012910000196e-03,7.245953660460000348e-03,1.000000000000000000e+00
1.152553570000000027e-01,-2.691739084100000401e+00,3.571963218190000178e-01,-9.393243386389999117e+00,-3.730547614400000350e-03,5.832038819789999232e-03,-6.195560097690000316e-03,1.000000000000000000e+00
1.202345699999999989e-01,-2.751243120209999837e+00,3.402516532909999891e-01,-9.423216499849999650e+00,-3.017242532219999683e-03,5.934318527580000578e-03,1.540174707769999957e-02,1.000000000000000000e+00
1.252325059999999934e-01,-2.701608443940000104e+00,3.223217365859999961e-01,-9.436026297060001511e+00,7.073289249090000327e-03,-5.240819882600000106e-04,8.475493639709999125e-03,1.000000000000000000e+00
1.302338690000000021e-01,-2.628990659240000305e+00,3.437402991250000373e-01,-9.411588021369999169e+00,7.442368660119999882e-03,1.381190307439999869e-02,-6.591343786570000481e-03,1.000000000000000000e+00
1.352024189999999904e-01,-2.686582139730000041e+00,3.095009430560000108e-01,-9.402735437349999614e+00,-9.998525492850001556e-03,-7.739013526590000002e-04,-1.757695898409999957e-02,1.000000000000000000e+00
1.401981989999999956e-01,-2.739493645700000091e+00,3.559703236879999677e-01,-9.389056456089999614e+00,-3.037104383109999993e-03,-4.593864083290000351e-03,3.696089144800000174e-03,1.000000000000000000e+00
1.451992609999999961e-01,-2.693995630849999934e+00,3.449491634579999744e-01,-9.423706329189998954e+00,4.567426163700000034e-03,-6.251866929229999391e-03,4.072305746379999494e-03,1.000000000000000000e+00
1.501362089999999927e-01,-2.713289529389999899e+00,3.208241184389999945e-01,-9.475136656700000160e+00,1.465119537899999902e-03,9.932569228110000106e-03,-1.236072159369999788e-03,1.000000000000000000e+00
1.552376880000000126e-01,-2.681603182269999941e+00,3.281672112110000095e-01,-9.427924823670000620e+00,-8.855058113110001253e-04,-9.294436313210000195e-05,6.098664831369999921e-03,1.000000000000000000e+00
1.604104419999999864e-01,-2.719228271790000040e+00,3.320642186499999648e-01,-9.408733216459999937e+00,3.381284885110000075e-03,3.068254562090000272e-03,9.494872763750000430e-03,1.000000000000000000e+00
1.652474840000000000e-01,-2.684004105930000161e+00,3.283988280099999768e-01,-9.415019164869999457e+00,1.461934112010000036e-02,-6.223374977710000033e-03,9.919770527629999217e-04,1.000000000000000000e+00
1.702734039999999893e-01,-2.688075885419999977e+00,3.399936599419999816e-01,-9.444121925230000159e+00,7.920339703560000388e-03,-6.903401575979998921e-03,1.330280210820000003e-03,1.000000000000000000e+00
1.753331569999999895e-01,-2.706398016309999655e+00,3.296248992060000216e-01,-9.414748531229999884e+00,-3.137437161060000271e-03,7.214565761389999700e-03,-6.242303643380001229e-04,1.000000000000000000e+00
1.803777410000000081e-01,-2.709009367850000238e+00,3.330838074890000167e-01,-9.427862864349998873e+00,-9.584521874790001214e-03,1.551517052580000120e-03,-1.847910112700000074e-03,1.000000000000000000e+00
1.852501970000000053e-01,-2.690126388199999941e+00,3.449595021890000113e-01,-9.426970883939999268e+00,4.372787196189999517e-03,-8.098170161249999485e-03,-8.939604274930000941e-03,1.000000000000000000e+00
1.903922289999999962e-01,-2.719622824059999555e+00,3.308978417519999882e-01,-9.404093281699999807e+00,-2.004476264120000351e-02,-1.494121970609999872e-03,-2.906061941759999993e-03,1.000000000000000000e+00
1.952631350000000043e-01,-2.658053964380000078e+00,3.603296148759999595e-01,-9.422207030539999195e+00,-1.105471234770000026e-02,1.254463475199999942e-02,-7.305322680620000841e-03,1.000000000000000000e+00
2.002302059999999939e-01,-2.686176481529999993e+00,3.819053407370000541e-01,-9.413288395549999521e+00,-9.210631251339999534e-03,-6.371017545460000604e-03,-9.986835531889998521e-03,1.000000000000000000e+00
2.052512669999999873e-01,-2.723220556290000260e+00,3.344083340910000146e-01,-9.411242568939998776e+00,8.130698464809999956e-03,5.902808159589999909e-03,-2.709370339289999749e-03,1.000000000000000000e+00
2.103870439999999953e-01,-2.711720088109999871e+00,3.224214341009999929e-01,-9.423009579100000366e+00,-4.970117472109999122e-03,1.406286098060000045e-02,-2.630723640320000323e-03,1.000000000000000000e+00
2.153761359999999958e-01,-2.706269713749999806e+00,3.560173411670000121e-01,-9.396499173310001396e+00,-9.598908014599999775e-03,8.172237314280000192e-03,-1.416795328260000118e-02,1.000000000000000000e+00
2.203932799999999970e-01,-2.735533509900000215e+00,3.284218070270000234e-01,-9.419302541269999551e+00,-1.562757790090000057e-02,-3.065993078049999770e-04,-4.944477695970000454e-03,1.000000000000000000e+00
2.252481950000000122e-01,-2.675328047519999863e+00,3.248836960289999687e-01,-9.398990405610000209e+00,1.946926931849999806e-03,8.068482391540000159e-03,-5.675300024449999627e-03,1.000000000000000000e+00
2.302366359999999945e-01,-2.701756912500000052e+00,3.639536871249999805e-01,-9.420692534330001422e+00,-1.982675306500000095e-02,-1.606140658259999979e-02,6.141335237770000240e-03,1.000000000000000000e+00
2.352376459999999947e-01,-2.696915317689999814e+00,3.535252686229999886e-01,-9.405144252060001264e+00,-7.579573895779999695e-03,-4.695459268989999463e-03,-4.708203952760000449e-03,1.000000000000000000e+00
2.402392080000000096e-01,-2.714599150680000239e+00,3.391070498329999960e-01,-9.415065926619998748e+00,5.577782634649999967e-03,1.339012198150000069e-02,1.868270803240000121e-03,1.000000000000000000e+00
2.453012639999999911e-01,-2.684977334879999677e+00,3.203203336359999875e-01,-9.387449605419998733e+00,-1.850662939250000139e-02,1.102684531360000053e-02,-7.385948672890000483e-03,1.000000000000000000e+00
2.502459249999999802e-01,-2.707088044399999838e+00,3.306765636840000022e-01,-9.424719890149999557e+00,-1.301001105460000001e-02,-8.748215623200000443e-04,-1.673881197349999950e-03,1.000000000000000000e+00
2.552538329999999855e-01,-2.733304143409999387e+00,3.355460694160000146e-01,-9.412757649680001393e+00,2.788563724609999369e-04,2.280594082550000193e-03,1.624353788789999892e-02,1.000000000000000000e+00
2.603844519999999885e-01,-2.672415667209999679e+00,3.115723059700000186e-01,-9.431835859630000485e+00,-2.232851274309999648e-02,1.404370926320000143e-02,5.940559785810000173e-03,1.000000000000000000e+00
2.652702370000000198e-01,-2.676045548140000285e+00,3.844799404659999809e-01,-9.395099827910000201e+00,-1.934010651890000047e-04,-1.064542797390000085e-03,-7.350220344959999992e-03,1.000000000000000000e+00
2.702510940000000250e-01,-2.720158538370000212e+00,3.699345516320000082e-01,-9.427162607119999649e+00,2.853115554899999899e-03,-3.686466021460000232e-03,1.075198641050000058e-03,1.000000000000000000e+00
2.752205110000000010e-01,-2.670611248129999726e+00,3.318119609219999933e-01,-9.419566745170000033e+00,-9.481952525679999619e-03,-2.192219253630000274e-03,2.237084321679999772e-03,1.000000000000000000e+00
2.803998030000000030e-01,-2.655861130509999946e+00,3.344449397740000274e-01,-9.384219537450000814e+00,2.476201858370000002e-03,4.728880710899999867e-03,3.271142020820000124e-03,1.000000000000000000e+00
2.852446029999999855e-01,-2.686732654110000063e+00,3.269756998719999808e-01,-9.430161204419999166e+00,-3.147378098219999996e-03,-2.377796918150000094e-04,1.076849736270000038e-02,1.000000000000000000e+00
2.902550050000000104e-01,-2.676678585349999917e+00,3.549094164580000044e-01,-9.374698260389999760e+00,-1.387629378589999921e-02,-4.357941448689999810e-03,-5.838691722599999821e-04,1.000000000000000000e+00
2.952871329999999794e-01,-2.688816182390000087e+00,3.592790829099999916e-01,-9.420028517460000472e+00,-2.857624553139999531e-03,-5.539464764300000045e-03,-6.385921500620000447e-03,1.000000000000000000e+00
3.002553239999999901e-01,-2.715659473389999690e+00,3.964496335920000281e-01,-9.382349651930001144e+00,-4.934277851130000614e-03,-1.155024021859999903e-02,5.518542136999999431e-03,1.000000000000000000e+00
3.052698870000000175e-01,-2.693617737449999883e+00,3.771562830469999961e-01,-9.423220006980001173e+00,2.043967135249999834e-03,-8.439549244939999889e-03,-6.843291223049999955e-03,1.000000000000000000e+00
3.104200990000000049e-01,-2.758814724500000093e+00,3.367996131409999871e-01,-9.416736490179999919e+00,-8.804869838059999759e-03,1.724950037900000246e-02,1.005472801629999843e-02,1.000000000000000000e+00
3.154313229999999857e-01,-2.677832723819999927e+00,3.259962969130000277e-01,-9.425212642099999982e+00,-8.336962200699999867e-03,-5.197880789640000297e-03,-1.077883504329999950e-02,1.000000000000000000e+00
3.204077539999999891e-01,-2.706786723359999591e+00,3.698050069690000385e-01,-9.442634317019999557e+00,1.418633665890000131e-02,-5.843584891409999392e-03,-9.804010391240000621e-03,1.000000000000000000e+00
3.254026090000000093e-01,-2.666977860069999817e+00,3.665305884080000132e-01,-9.400257649060000276e+00,5.000609438869999847e-03,-1.726030558350000188e-02,-1.872054860000000112e-02,1.000000000000000000e+00
3.302765690000000198e-01,-2.769481956729999972e+00,3.437805215370000056e-01,-9.434683650280000222e+00,-4.830669611689999976e-03,-5.729018244890000423e-03,3.646470606329999843e-03,1.000000000000000000e+00
3.352550970000000019e-01,-2.686051101590000378e+00,3.759796039500000187e-01,-9.415313763900000410e+00,-6.833240389820000038e-03,-4.561064299199999936e-03,-4.641416482629999972e-03,1.000000000000000000e+00
3.403916000000000164e-01,-2.680429462319999789e+00,3.483060361379999859e-01,-9.434253442170000170e+00,-3.130024764690000037e-03,-3.523155115539999480e-03,5.911776330319999315e-03,1.000000000000000000e+00
3.453115409999999996e-01,-2.658341256890000004e+00,3.270101135979999740e-01,-9.436586269030000196e+00,3.061207942659999789e-03,7.188853342090000464e-04,-1.388639956710000130e-02,1.000000000000000000e+00
3.504168369999999810e-01,-2.743258551190000283e+00,3.295870148810000066e-01,-9.416150799239998648e+00,5.954320542510000390e-03,-2.318860217929999759e-02,6.612086202950000213e-03,1.000000000000000000e+00
3.552560730000000055e-01,-2.684340498279999654e+00,3.449250884619999846e-01,-9.429460947189999942e+00,3.986469004300000757e-03,5.895943380890000807e-03,-1.602943520990000176e-03,1.000000000000000000e+00
3.604070850000000159e-01,-2.732894978090000038e+00,3.426256524140000592e-01,-9.423269691339999810e+00,7.888928987089999928e-03,-3.362348303200000076e-03,1.126784458760000072e-02,1.000000000000000000e+00
3.652813500000000047e-01,-2.643115922970000309e+00,3.294998845870000248e-01,-9.416814231589999196e+00,3.357010893519999858e-03,-1.245188340540000042e-02,-7.704434450719999973e-03,1.000000000000000000e+00
3.702759010000000184e-01,-2.696054316949999752e+00,3.402848979739999669e-01,-9.417392323739999682e+00,9.825609624389998811e-03,3.183925291519999756e-03,-1.179791614409999960e-02,1.000000000000000000e+00
3.752709790000000045e-01,-2.739562911549999757e+00,3.638918008690000261e-01,-9.445679091549999740e+00,1.265553408299999920e-03,-1.526599749920000025e-03,-2.705580787729999683e-03,1.000000000000000000e+00
3.802869409999999895e-01,-2.720027605469999887e+00,3.739208813220000205e-01,-9.387232747799998833e+00,6.296157371249999635e-03,7.281464524569999062e-03,-4.627476911990000170e-03,1.000000000000000000e+00
3.852633409999999814e-01,-2.722135099140000403e+00,3.642150780070000371e-01,-9.396417340250000194e+00,-1.389252208170000009e-02,-6.033807061609999627e-03,1.029366813600000007e-02,1.000000000000000000e+00
3.904272930000000086e-01,-2.694890241610000015e+00,3.592447057159999790e-01,-9.426976144639999333e+00,-2.150039654229999675e-04,-1.455471571529999911e-02,3.918886184690000170e-03,1.000000000000000000e+00
3.952830820000000078e-01,-2.667875977950000088e+00,3.733190795040000065e-01,-9.439727489670000082e+00,-7.103726267810000182e-03,-2.005327027290000012e-03,-3.645519493150000279e-03,1.000000000000000000e+00
4.002609699999999937e-01,-2.702317761259999784e+00,3.427082526629999792e-01,-9.407039856549999968e+00,-3.217855934050000040e-03,9.285773150620001484e-03,1.875308342279999926e-03,1.000000000000000000e+00
4.052678089999999789e-01,-2.701492416349999814e+00,3.353605202489999826e-01,-9.440914069099999750e+00,-1.749685849059999998e-03,1.267085224389999897e-02,-4.723127465699999972e-03,1.000000000000000000e+00
4.104112019999999750e-01,-2.713611016430000245e+00,3.532949669990000374e-01,-9.428068616050000017e+00,-4.976921249180000020e-03,6.719893775880000225e-03,-2.537903608750000269e-03,1.000000000000000000e+00
4.154263089999999936e-01,-2.747542219860000134e+00,3.595246186359999929e-01,-9.404788278230000742e+00,-1.491446420549999950e-02,-6.400546990330000310e-03,5.441328976300000529e-03,1.000000000000000000e+00
4.202665720000000049e-01,-2.662589269720000207e+00,3.341872021530000181e-01,-9.420725267550000837e+00,-6.794350687410000665e-03,1.568337529900000124e-02,1.598343253140000180e-03,1.000000000000000000e+00
4.252643720000000016e-01,-2.669163387409999810e+00,3.223149780519999896e-01,-9.431619586529999211e+00,1.104529201979999840e-02,-1.580941863360000102e-02,-1.547758094970000040e-02,1.000000000000000000e+00
4.302574450000000161e-01,-2.742718452969999721e+00,3.223642970860000068e-01,-9.427901442789998754e+00,7.375176530329999314e-03,8.057724684479999205e-03,2.515168860550000100e-03,1.000000000000000000e+00
4.352573379999999936e-01,-2.717900530309999674e+00,3.294656535240000350e-01,-9.430447035619998530e+00,-1.080954330969999960e-03,5.425776354970000652e-03,9.739199653269999327e-03,1.000000000000000000e+00
4.402604359999999772e-01,-2.688547594580000144e+00,3.713876365179999972e-01,-9.402877476169999582e+00,-1.932207494970000121e-03,9.312273468819999784e-04,-5.550199188289999495e-03,1.000000000000000000e+00
4.454103209999999979e-01,-2.746122123930000214e+00,3.594706964919999748e-01,-9.404084513880000884e+00,6.982303690169999744e-03,6.784994155170000034e-03,1.024719327689999938e-02,1.000000000000000000e+00
4.503991270000000102e-01,-2.675035202059999673e+00,3.509989284830000167e-01,-9.409593632689999154e+00,9.063421748580000395e-03,2.037723362449999839e-02,3.756203688679999805e-03,1.000000000000000000e+00
4.552746730000000186e-01,-2.727055019890000320e+00,3.414617597330000254e-01,-9.427523841650000236e+00,1.131131779400000072e-02,1.010773982850000051e-02,4.770495463159999533e-03,1.000000000000000000e+00
4.602558219999999811e-01,-2.647021990490000309e+00,3.521927413779999960e-01,-9.400652785860000193e+00,-9.991416707629999228e-03,-7.784773595630000223e-03,-5.613695830109999112e-03,1.000000000000000000e+00
4.652541000000000038e-01,-2.736236105209999714e+00,3.485951552769999684e-01,-9.425368124920000312e+00,-5.721013061699999763e-03,6.267998367550000303e-03,3.192258067429999853e-03,1.000000000000000000e+00
4.702748409999999990e-01,-2.690033156959999783e+00,3.150119250289999950e-01,-9.448439788430000874e+00,-1.556014758529999920e-04,3.320391988380000034e-03,-2.772023435680000519e-04,1.000000000000000000e+00
4.752163280000000212e-01,-2.679939048450000083e+00,3.690043946429999999e-01,-9.385064171589998949e+00,-5.290888249869999359e-03,2.829117467630000177e-03,2.621291670949999972e-03,1.000000000000000000e+00
4.803340580000000082e-01,-2.706201616950000055e+00,3.568994942970000195e-01,-9.418902728300000859e+00,1.848007086659999795e-04,-1.690345932730000006e-03,7.172121200709999887e-03,1.000000000000000000e+00
4.852369999999999739e-01,-2.668588802399999960e+00,3.518591985750000317e-01,-9.451108130860001566e+00,1.143424957990000004e-02,-2.295856364070000041e-03,-6.931518204510000308e-03,1.000000000000000000e+00
4.904011309999999901e-01,-2.733599911489999812e+00,3.306675766599999622e-01,-9.435932189039998974e+00,2.502446062860000375e-03,-1.756768673659999877e-02,-2.416879869999999917e-04,1.000000000000000000e+00
4.952288850000000076e-01,-2.732297304459999854e+00,3.668231050810000227e-01,-9.383546168239998764e+00,6.346585694699999856e-03,4.450258798899999445e-03,3.105122596030000185e-03,1.000000000000000000e+00
5.002662110000000162e-01,-2.693286898059999768e+00,3.413574225760000469e-01,-9.431661087589999326e+00,6.328228861090000497e-03,8.702161721889999091e-03,-3.344289958480000085e-03,1.000000000000000000e+00
5.052726210000000329e-01,-2.706844298770000545e+00,3.305322963749999787e-01,-9.443646708939999357e+00,2.009008079770000302e-02,-6.328631192449999873e-03,-5.485152360050000097e-04,1.000000000000000000e+00
5.104122859999999928e-01,-2.723566300990000411e+00,3.473691936789999879e-01,-9.425637589510001746e+00,-8.026041090490000293e-03,-3.334079869090000262e-03,6.667437497529999854e-03,1.000000000000000000e+00
5.154277779999999476e-01,-2.670911400120000057e+00,3.427059511080000065e-01,-9.404828610239999165e+00,7.139111403380000477e-03,6.158935837449999902e-03,-7.708391640339999759e-04,1.000000000000000000e+00
5.203744780000000292e-01,-2.694638604929999737e+00,3.388881829179999916e-01,-9.426760456060000237e+00,-6.234935950489999684e-03,-8.155074901880000372e-04,1.236683689060000084e-02,1.000000000000000000e+00
5.252672229999999498e-01,-2.643117676530000182e+00,3.247520324729999963e-01,-9.418936046049999788e+00,-1.308730151499999834e-02,5.799660459160000704e-03,-1.063073799009999973e-02,1.000000000000000000e+00
5.302576719999999577e-01,-2.725455768000000223e+00,3.583019815060000113e-01,-9.388317035900000107e+00,4.624922759830000195e-03,9.362369775770000915e-03,1.111391745510000029e-02,1.000000000000000000e+00
5.352547899999999803e-01,-2.664035961399999763e+00,3.295023322730000204e-01,-9.425710070230000071e+00,6.793436594310000437e-03,1.218869350850000123e-02,-8.507660590109999282e-03,1.000000000000000000e+00
5.402569480000000146e-01,-2.704242007319999974e+00,3.140805624629999793e-01,-9.418609298310000710e+00,1.356821623630000096e-03,-6.754291709510001039e-03,-4.698319360609999606e-03,1.000000000000000000e+00
5.454049680000000455e-01,-2.676616333770000189e+00,3.342961058879999614e-01,-9.407638991489999825e+00,4.163991194220000025e-03,1.021059509370000028e-02,-7.600237149750000733e-04,1.000000000000000000e+00
5.504110290000000516e-01,-2.663960558070000317e+00,3.246029428580000098e-01,-9.426755779889999687e+00,3.986904630440000542e-04,-4.268262535330000045e-03,-1.552270958200000156e-03,1.000000000000000000e+00
5.552821860000000109e-01,-2.700198284890000355e+00,3.174122641690000357e-01,-9.449406003110000896e+00,-3.396122250709999752e-03,-5.874784663319999704e-03,-4.090956412260000202e-03,1.000000000000000000e+00
5.602467150000000062e-01,-2.713756270120000202e+00,3.331527445389999564e-01,-9.420652786839999848e+00,-1.450931769799999925e-03,-6.761708296839999584e-03,-3.817243035880000038e-03,1.000000000000000000e+00
5.652480829999999568e-01,-2.700737506330000315e+00,3.426910823329999967e-01,-9.410513670139998510e+00,1.085753086949999870e-02,4.552596248689999049e-03,-9.370661573479999347e-04,1.000000000000000000e+00
5.702799419999999841e-01,-2.710295608270000045e+00,3.534015326459999939e-01,-9.408314698789999042e+00,-5.124979652459999866e-04,3.153620520610000196e-03,8.737897500399998893e-03,1.000000000000000000e+00
5.752890760000000103e-01,-2.680971021850000025e+00,3.665284329829999743e-01,-9.400274015680000872e+00,6.457716692239999327e-03,7.755708880720000448e-03,7.241746876389999928e-03,1.000000000000000000e+00
5.804112319999999992e-01,-2.676272927159999870e+00,3.449573467639999724e-01,-9.422529686629999901e+00,4.149532178419999416e-04,-6.832545623180001073e-04,-1.130396965890000235e-03,1.000000000000000000e+00
5.852809580000000178e-01,-2.705748612490000315e+00,3.615339491640000014e-01,-9.432131043189999176e+00,-2.548607997600000046e-03,1.540849357840000031e-02,4.430434200910000030e-03,1.000000000000000000e+00
5.904161449999999478e-01,-2.699815715309999753e+00,3.615293460540000559e-01,-9.427708550569999346e+00,-5.765581503509999844e-03,2.035415964200000278e-03,1.307239569719999966e-02,1.000000000000000000e+00
5.952690299999999768e-01,-2.662374750190000139e+00,3.340656946649999681e-01,-9.441707265310000707e+00,-4.345173016189999779e-03,-2.848097309470000102e-02,5.513136275109999746e-04,1.000000000000000000e+00
6.002664509999999787e-01,-2.708601956090000318e+00,3.583112242580000495e-01,-9.401619000549999328e+00,-1.431392971430000107e-03,1.166702434419999990e-02,-4.008178133520000005e-03,1.000000000000000000e+00
6.054274840000000157e-01,-2.656322026019999782e+00,3.579717997029999710e-01,-9.422031089449999897e+00,-1.178356725719999915e-02,6.270436570050000151e-03,-1.207363232970000075e-02,1.000000000000000000e+00
6.104105509999999679e-01,-2.751664852749999834e+00,3.904644217029999975e-01,-9.395971934569999462e+00,5.852980073540000293e-03,9.072821587319999936e-03,6.816081237050000165e-03,1.000000000000000000e+00
6.154124109999999925e-01,-2.661384277840000312e+00,3.556792683189999860e-01,-9.422472403480000480e+00,-9.096387773749999017e-03,-1.828625099730000038e-03,-1.149880513550000094e-02,1.000000000000000000e+00
6.202588070000000231e-01,-2.719226810479999923e+00,3.521079857039999816e-01,-9.425814115119999670e+00,3.024253994230000162e-03,1.700127264480000028e-03,-4.016666673120000176e-03,1.000000000000000000e+00
6.254271129999999790e-01,-2.687618204779999687e+00,3.497167066529999757e-01,-9.411405650539999002e+00,-3.826322033999999921e-03,1.403694041069999954e-02,6.873091217130000187e-03,1.000000000000000000e+00
6.303867520000000502e-01,-2.708919351480000071e+00,3.164258834809999810e-01,-9.428909158530000667e+00,2.929059555749999755e-04,8.885944262149999412e-03,5.142312031239999748e-03,1.000000000000000000e+00
6.354045940000000448e-01,-2.710512758150000145e+00,3.759877872569999946e-01,-9.423052833719999910e+00,-1.092529855670000202e-03,-9.871145710350000615e-03,-1.378853572529999951e-03,1.000000000000000000e+00
6.402668569999999670e-01,-2.722545141249999912e+00,3.987630616339999934e-01,-9.399578434630001311e+00,9.686223929750000178e-04,1.474434882399999931e-02,2.117416821420000164e-03,1.000000000000000000e+00
6.454068280000000435e-01,-2.697714651380000106e+00,3.582217558760000253e-01,-9.408985729919999486e+00,-6.533223669979999759e-03,-9.437073022129998170e-03,-4.344479180869999582e-03,1.000000000000000000e+00
6.502733240000000414e-01,-2.702704422490000091e+00,3.795212220800000535e-01,-9.416655826160001297e+00,-1.681127585470000097e-03,8.862748742099999660e-03,-1.997246174139999993e-03,1.000000000000000000e+00
6.554250630000000299e-01,-2.684775090299999611e+00,3.401783688589999910e-01,-9.421545351760000742e+00,9.945647791030000351e-03,9.050292894239999469e-03,-1.800793921569999968e-03,1.000000000000000000e+00
6.602668240000000299e-01,-2.667625218059999970e+00,3.698750399979999770e-01,-9.420929265689998999e+00,7.904681842769999177e-04,2.291207434609999864e-03,-4.003884270789999887e-03,1.000000000000000000e+00
6.652571779999999491e-01,-2.692921571879999476e+00,3.328592414850000125e-01,-9.445172311069999438e+00,6.946645211429999800e-03,1.601635664700000114e-02,-2.796567045149999861e-03,1.000000000000000000e+00
6.702784059999999933e-01,-2.718599618490000314e+00,3.557182486229999996e-01,-9.419947268919999672e+00,1.311653386799999967e-02,5.601053126159999916e-03,5.624935496600000015e-03,1.000000000000000000e+00
6.752863420000000394e-01,-2.693850961690000378e+00,3.126791346999999721e-01,-9.439156996299999491e+00,6.194770336149999813e-03,1.795363845299999825e-03,8.976968005299998388e-03,1.000000000000000000e+00
6.804069809999999663e-01,-2.673700446319999813e+00,3.758146226470000517e-01,-9.427712642219999495e+00,2.146052429449999831e-04,-5.241609178480000466e-04,2.590110525489999673e-03,1.000000000000000000e+00
6.852450039999999909e-01,-2.727677243440000510e+00,3.536113760039999998e-01,-9.398917340369999707e+00,-1.051637623460000177e-02,-9.654886089270000790e-03,2.840700559319999860e-03,1.000000000000000000e+00
6.904217409999999777e-01,-2.671601135950000039e+00,3.772343167189999846e-01,-9.402567679569999726e+00,-7.723458111289999237e-04,-6.821580231189999267e-03,-6.399578414860000036e-03,1.000000000000000000e+00
6.952692780000000461e-01,-2.712119024300000181e+00,3.793446964689999867e-01,-9.438056926099999799e+00,-3.454628866169999826e-03,-9.740971960129999122e-03,-5.043279379609999372e-04,1.000000000000000000e+00
7.002673409999999876e-01,-2.675515971309999852e+00,3.713027712460000296e-01,-9.396837611489999631e+00,-1.213997136799999967e-02,4.227811470629999971e-03,-2.909268485380000092e-03,1.000000000000000000e+00
7.052879279999999529e-01,-2.674970612390000113e+00,3.581403246710000432e-01,-9.404033075950000153e+00,-3.800591919569999873e-03,8.491131477059999863e-03,-3.269887994970000020e-03,1.000000000000000000e+00
7.103866300000000189e-01,-2.729399829450000148e+00,3.545267007509999568e-01,-9.422184234189998620e+00,2.720447257159999428e-03,-2.117464318870000001e-02,8.205607533449999630e-03,1.000000000000000000e+00
7.154076280000000176e-01,-2.673335704659999923e+00,3.476660577340000002e-01,-9.388834337769999649e+00,1.173555757849999853e-02,3.001068253070000033e-04,-7.084402255710000110e-03,1.000000000000000000e+00
7.203064340000000509e-01,-2.694405088440000373e+00,3.438012355319999824e-01,-9.412239178760000158e+00,1.383477007039999804e-03,-1.366888056509999935e-03,1.723916269839999987e-03,1.000000000000000000e+00
7.252605269999999882e-01,-2.700729030759999816e+00,3.580635696400000234e-01,-9.421333170319998729e+00,-9.730383753780000658e-03,-1.936384011060000116e-03,4.100427031519999523e-03,1.000000000000000000e+00
7.303110449999999920e-01,-2.663814719859999514e+00,3.451716836350000039e-01,-9.395268754740000006e+00,1.366185769439999878e-02,1.594418892639999901e-03,-7.532727438959999772e-03,1.000000000000000000e+00
7.352576859999999659e-01,-2.736347748890000098e+00,3.333373073259999764e-01,-9.400304410820000456e+00,-3.506274893879999729e-03,-8.568044751879999588e-03,3.069951664659999798e-03,1.000000000000000000e+00
7.402540920000000302e-01,-2.670686066940000103e+00,3.451705511229999912e-01,-9.391934641880000711e+00,-4.651161376389999907e-03,-9.433874860410000271e-03,-7.850050460549999522e-04,1.000000000000000000e+00
7.453986569999999645e-01,-2.712632526779999775e+00,3.285193856499999954e-01,-9.406302189930000779e+00,1.294258632699999984e-03,-1.392967347060000000e-02,-1.101559260859999835e-03,1.000000000000000000e+00
7.502396319999999896e-01,-2.660314602790000205e+00,3.368340634000000500e-01,-9.389729240790000375e+00,5.950485821810000409e-03,-4.122622776780000505e-04,-6.039841100569999163e-03,1.000000000000000000e+00
7.553224589999999461e-01,-2.677926831840000244e+00,3.304863748740000107e-01,-9.439538689089999934e+00,-2.857492305340000351e-03,-3.929171711210000147e-03,-6.391410715880000391e-03,1.000000000000000000e+00
7.604038899999999712e-01,-2.722819866540000522e+00,3.330438408040000131e-01,-9.438196042310000422e+00,1.021878328170000051e-02,-7.296917960050000422e-03,-7.622744422410000081e-03,1.000000000000000000e+00
7.652285130000000546e-01,-2.720332725899999637e+00,3.094575423049999996e-01,-9.407523840669998805e+00,-1.963027520109999775e-03,3.366264747460000033e-03,-1.122080488130000088e-03,1.000000000000000000e+00
7.702612909999999591e-01,-2.725484409570000377e+00,3.190474641559999935e-01,-9.400334805950000927e+00,2.709451131520000059e-03,9.835875593129999109e-03,6.265342701229998680e-03,1.000000000000000000e+00
7.752486560000000360e-01,-2.650481191039999906e+00,3.188812042110000244e-01,-9.402713810039999842e+00,1.822916604579999725e-02,2.867464208980000095e-03,-3.852083580570000131e-03,1.000000000000000000e+00
7.803855969999999864e-01,-2.667748259920000198e+00,3.177068632019999783e-01,-9.410391505069998885e+00,-1.072634011510000158e-02,-3.358480986210000008e-03,-1.677662320439999785e-02,1.000000000000000000e+00
7.854099690000000411e-01,-2.710567410950000422e+00,3.058529602079999576e-01,-9.403317036629999848e+00,5.540218669920000082e-03,6.028180941940000127e-03,-4.907276947050000400e-03,1.000000000000000000e+00
7.903938120000000289e-01,-2.680862008509999672e+00,3.213377670500000005e-01,-9.397681661100000028e+00,-2.357566729190000224e-03,-5.728587508199999706e-03,-4.388446453959999639e-03,1.000000000000000000e+00
7.952654510000000121e-01,-2.705345584649999857e+00,3.032897769230000207e-01,-9.419190313069998766e+00,7.306928746399999827e-04,-1.249672845010000102e-02,1.148604042829999908e-02,1.000000000000000000e+00
8.001558960000000331e-01,-2.626947170709999835e+00,3.327284912449999799e-01,-9.443937800840000563e+00,9.991802508010000968e-04,-1.523785851899999919e-02,-8.138403063639999520e-04,1.000000000000000000e+00
8.052147969999999821e-01,-2.679781227539999922e+00,3.125920044059999903e-01,-9.448734971989999565e+00,-8.319548331199999244e-03,-1.188320294020000188e-02,-4.039595369250000359e-03,1.000000000000000000e+00
8.102546900000000552e-01,-2.758678530899999704e+00,3.210145995099999983e-01,-9.455857955729999986e+00,1.463944441640000187e-03,1.208081142979999974e-03,1.044876873489999913e-02,1.000000000000000000e+00
8.153517160000000041e-01,-2.693284852240000582e+00,2.939027937660000367e-01,-9.419263378310001045e+00,-2.805109601469999749e-03,-1.558211632070000130e-02,1.795109361410000045e-03,1.000000000000000000e+00
8.204176330000000350e-01,-2.688162102390000197e+00,2.734372393699999737e-01,-9.438821480739997938e+00,-8.647381328049999483e-04,-1.479067839679999935e-03,1.313429791480000101e-03,1.000000000000000000e+00
8.252470459999999841e-01,-2.687212838839999840e+00,3.439044401780000371e-01,-9.409225383899999073e+00,-5.483225453640000122e-03,5.836924538020000141e-05,-4.521022550759999648e-03,1.000000000000000000e+00
8.301809049999999690e-01,-2.712931801989999947e+00,3.805442815169999826e-01,-9.436873853799999878e+00,-2.956891432400000040e-03,-1.759679801759999815e-02,1.801269594579999909e-03,1.000000000000000000e+00
8.352247630000000367e-01,-2.696246040130000132e+00,3.713234852400000285e-01,-9.412280679810001160e+00,1.029838924299999970e-03,3.436088329180000001e-03,-1.201655715700000043e-02,1.000000000000000000e+00
8.401583059999999659e-01,-2.760188935469999993e+00,4.082407187489999756e-01,-9.413303008599999799e+00,-1.032510399820000049e-02,-1.715430244800000142e-02,-8.597798878330001207e-04,1.000000000000000000e+00
8.452129350000000541e-01,-2.697574950639999969e+00,3.806898639999999889e-01,-9.419051196860001696e+00,-2.408761298280000240e-03,4.520426504310000142e-03,-1.122038112950000163e-03,1.000000000000000000e+00
8.502251069999999800e-01,-2.699542743590000349e+00,3.105367889089999944e-01,-9.417284771709999447e+00,4.712259396909999551e-03,-1.063178386539999874e-02,-1.566009595989999907e-03,1.000000000000000000e+00
8.552220849999999652e-01,-2.684140591790000308e+00,2.924956669150000077e-01,-9.436512034750000666e+00,-2.752992440950000259e-04,9.536086581649999908e-03,-5.157394334670000087e-03,1.000000000000000000e+00
8.603795690000000107e-01,-2.710893866420000187e+00,3.246913152620000131e-01,-9.433884608859999688e+00,-7.085454650219999949e-03,6.938881240789999960e-03,-3.380963345989999955e-03,1.000000000000000000e+00
8.652476609999999457e-01,-2.730416605279999853e+00,3.592770005500000030e-01,-9.437873970750001007e+00,-1.311142696069999983e-03,-1.001096982510000025e-02,-9.672887623309998906e-03,1.000000000000000000e+00
8.702338299999999860e-01,-2.745011240080000192e+00,3.894792100580000138e-01,-9.383266182250000753e+00,2.487388905139999943e-03,1.976887462659999810e-03,-7.587986532600000250e-03,1.000000000000000000e+00
8.752519800000000405e-01,-2.726507322879999862e+00,3.987103085329999907e-01,-9.406666347060001598e+00,-1.053270325059999998e-02,-1.289493031800000022e-02,-3.303107339889999831e-03,1.000000000000000000e+00
8.804149559999999708e-01,-2.713720614279999666e+00,3.496525553760000404e-01,-9.429723397520000105e+00,-3.218373283739999879e-03,1.228614524010000070e-02,7.447742391380000708e-03,1.000000000000000000e+00
8.854300019999999938e-01,-2.690478854900000272e+00,3.474505518190000308e-01,-9.412760572279999849e+00,8.850541897120001514e-03,4.463410936300000326e-03,2.083300612869999711e-03,1.000000000000000000e+00
8.904194170000000463e-01,-2.686940743909999707e+00,3.676099446099999613e-01,-9.416703756950001392e+00,-4.194406326860000353e-03,9.432429447770000752e-03,-1.264714403079999832e-03,1.000000000000000000e+00
8.954129830000000512e-01,-2.713191914229999835e+00,3.198458845239999793e-01,-9.444548626210000464e+00,-8.670021779840000062e-04,2.706067869439999964e-03,1.018234761430000020e-03,1.000000000000000000e+00
9.004254320000000256e-01,-2.703318462729999982e+00,3.689311102110000018e-01,-9.403452061190000322e+00,2.906423527749999944e-03,-1.540286093949999949e-02,3.610071260480000269e-03,1.000000000000000000e+00
9.054252289999999981e-01,-2.730078459360000043e+00,3.547227347789999596e-01,-9.408434525780000612e+00,-1.673175138420000124e-03,-1.722872490060000034e-03,4.470228217539999604e-03,1.000000000000000000e+00
9.104196199999999850e-01,-2.657750889779999959e+00,3.413883291709999823e-01,-9.423625665170000332e+00,-1.217154134060000059e-02,-1.277790591119999999e-02,-1.459479145710000127e-02,1.000000000000000000e+00
9.153761870000000078e-01,-2.727644802479999520e+00,3.270274300589999794e-01,-9.435340068360000387e+00,-1.632253755820000079e-03,7.208432070909999087e-03,9.971205145119999005e-06,1.000000000000000000e+00
9.203785450000000479e-01,-2.698498202969999760e+00,3.271615778330000390e-01,-9.424289682039999505e+00,6.090970244260000485e-03,-1.236819196490000078e-02,-5.719985812900000265e-03,1.000000000000000000e+00
9.252675049999999901e-01,-2.690291515640000242e+00,3.294140694669999703e-01,-9.431953933049999961e+00,-7.635351270439999678e-03,2.322504529729999857e-03,-7.085742894560000636e-03,1.000000000000000000e+00
9.302702470000000501e-01,-2.737052097769999914e+00,3.056248870740000401e-01,-9.444055289739999637e+00,-1.101744081830000055e-02,-1.801058882849999833e-03,5.355998873710000234e-04,1.000000000000000000e+00
9.352530500000000302e-01,-2.714363296100000156e+00,3.262130814689999658e-01,-9.397933590030000062e+00,1.164088491350000025e-02,-8.043636567890000491e-03,1.093641621989999884e-03,1.000000000000000000e+00
9.402539970000000080e-01,-2.727737449200000164e+00,2.997964914469999909e-01,-9.426396298929999418e+00,6.345578469340000180e-03,5.687215365470000422e-03,8.824363350869999720e-03,1.000000000000000000e+00
9.454024429999999812e-01,-2.681943374009999825e+00,3.485125915599999735e-01,-9.425995901429999435e+00,-5.347575992350001028e-03,-4.882732406260000338e-03,9.275474585589999366e-04,1.000000000000000000e+00
9.502480660000000023e-01,-2.675188639049999928e+00,3.627130028809999462e-01,-9.437789215080000460e+00,4.816072992979999676e-03,-1.147362682970000033e-02,-1.458272524179999967e-02,1.000000000000000000e+00
9.554203620000000230e-01,-2.744878845870000195e+00,3.791085130929999769e-01,-9.459912199560001511e+00,-7.680166978390000516e-03,-1.254222914579999903e-02,1.469499431550000054e-02,1.000000000000000000e+00
9.602669879999999880e-01,-2.658233997119999970e+00,3.864723563920000049e-01,-9.437059147239999390e+00,-4.292651545260000104e-03,-2.835137303920000004e-03,-4.383508116010000587e-03,1.000000000000000000e+00
9.654015449999999721e-01,-2.762624930440000348e+00,3.785429150999999881e-01,-9.401669269430000142e+00,-2.101960591969999868e-03,-1.078978460279999933e-02,1.693861745300000166e-02,1.000000000000000000e+00
9.703939569999999737e-01,-2.685415726300000028e+00,3.591726633929999690e-01,-9.442010632169999695e+00,-2.257298910990000154e-04,-6.096241064369999421e-03,-2.543792594219999609e-03,1.000000000000000000e+00
9.752042440000000534e-01,-2.761783511179999540e+00,3.344819107829999916e-01,-9.421826506789999556e+00,-1.611549640069999921e-03,4.447763785719999891e-03,8.750054985280000114e-04,1.000000000000000000e+00
9.803949490000000155e-01,-2.674524914450000068e+00,3.355038011770000161e-01,-9.425337145260000327e+00,-4.134925547989999964e-03,-1.219657715410000023e-02,-2.066882327199999828e-02,1.000000000000000000e+00
9.852622490000000344e-01,-2.757098568239999992e+00,3.534818678729999553e-01,-9.414389050269999615e+00,5.212405230850000390e-03,6.073150783779999486e-03,-6.050363183020000639e-03,1.000000000000000000e+00
9.904054890000000277e-01,-2.681363528290000353e+00,3.566484056120000079e-01,-9.441985497730000176e+00,2.945438958699999905e-03,-3.600190393630000522e-04,-6.877876352520000819e-03,1.000000000000000000e+00
9.954047360000000122e-01,-2.719177126119999954e+00,3.482171888099999668e-01,-9.451184703220000927e+00,-4.590582102540000098e-03,5.993188358840000236e-03,6.612057331949999783e-03,1.000000000000000000e+00
1.000249058000000080e+00,-2.688020063569999785e+00,3.555592221359999971e-01,-9.427382971880000184e+00,1.487318519499999936e-02,8.510417304930000676e-03,4.311448894439999339e-03,1.000000000000000000e+00
1.005394018999999917e+00,-2.679161049809999806e+00,3.375241645559999837e-01,-9.455828729640000319e+00,-1.743107801299999910e-03,1.058138627559999934e-02,-1.001595519479999905e-02,1.000000000000000000e+00
1.010417139000000075e+00,-2.729085356669999740e+00,3.570433962789999471e-01,-9.403210069129999127e+00,1.733250915999999878e-02,-6.487880833449999676e-03,-3.535721683870000041e-03,1.000000000000000000e+00
1.015401439999999988e+00,-2.700632000130000154e+00,3.415459674180000293e-01,-9.403370228130000896e+00,1.219408866020000107e-02,1.725747948510000058e-03,-6.809317506850000833e-03,1.000000000000000000e+00
1.020402352999999929e+00,-2.700011237880000081e+00,3.878778027429999886e-01,-9.408567796769998992e+00,-6.042003631590000569e-03,-2.665403299030000197e-03,-8.805735968049999834e-03,1.000000000000000000e+00
1.025245493999999979e+00,-2.725656259009999527e+00,3.151116225439999918e-01,-9.435306166089999280e+00,1.368679478760000123e-02,-1.087206532250000000e-03,-8.036701474339999398e-04,1.000000000000000000e+00
1.030253818999999904e+00,-2.711441271170000000e+00,3.463770043039999802e-01,-9.401725968050000048e+00,5.937954876569999374e-03,8.405522443350001149e-03,-7.064028177409999859e-03,1.000000000000000000e+00
1.035263870999999947e+00,-2.666835528990000093e+00,3.367352426680000343e-01,-9.401527230610001951e+00,-3.297533374279999849e-03,-1.365254633130000240e-03,-1.784463413059999767e-02,1.000000000000000000e+00
1.040230653000000061e+00,-2.706707228389999997e+00,3.261348286010000153e-01,-9.389516474820000624e+00,1.021559908989999946e-02,7.876050658519999923e-04,-8.367441594599999213e-03,1.000000000000000000e+00
1.045401581999999996e+00,-2.723992709709999627e+00,3.331547903659999865e-01,-9.409396064289998307e+00,1.541165728120000127e-02,6.860261783000000217e-03,2.022996544839999935e-03,1.000000000000000000e+00
1.050262628999999892e+00,-2.690754164709999507e+00,3.021037820090000103e-01,-9.420172894369999383e+00,6.870333105330000099e-03,1.001711841670000110e-02,7.611326873299999933e-05,1.000000000000000000e+00
1.055394023999999931e+00,-2.716640593380000190e+00,3.284859583040000142e-01,-9.403115961100001030e+00,7.207632530479999612e-03,3.911444917320000374e-03,1.807303167880000170e-03,1.000000000000000000e+00
1.060160269000000044e+00,-2.656401520999999821e+00,3.196771038289999978e-01,-9.440162958469999310e+00,1.663969247599999916e-03,-1.311181206260000204e-02,-4.118170589210000225e-03,1.000000000000000000e+00
1.065112099999999895e+00,-2.695181333509999888e+00,3.320721462280000202e-01,-9.398547338010001084e+00,-5.334265530109999660e-03,-2.476644003760000191e-03,-1.024233549829999847e-02,1.000000000000000000e+00
1.070165553999999908e+00,-2.709026318989999904e+00,2.912924834039999911e-01,-9.432054470820000702e+00,-7.063187193130000124e-03,1.001908211040000067e-03,-2.369959140199999655e-03,1.000000000000000000e+00
1.075239215000000081e+00,-2.720621771970000324e+00,3.365346420620000112e-01,-9.437598076420000481e+00,5.638038273899999633e-03,1.426148228350000019e-02,-1.639955560680000056e-03,1.000000000000000000e+00
1.080325141999999961e+00,-2.690031111140000153e+00,3.496844483510000434e-01,-9.424926810900000618e+00,1.776244118809999772e-02,6.507723592220000016e-04,-1.028188131749999991e-02,1.000000000000000000e+00
1.085190026000000030e+00,-2.726649946219999787e+00,3.902016060480000270e-01,-9.416816569679999915e+00,1.011107000520000080e-03,-4.140587523579999929e-03,-1.129218377170000068e-03,1.000000000000000000e+00
1.090189902000000099e+00,-2.724201968550000075e+00,3.781425176050000059e-01,-9.441391623490000384e+00,3.749419469389999888e-03,1.983446814120000054e-02,-6.592879071829999633e-05,1.000000000000000000e+00
1.095232549000000111e+00,-2.717012641559999775e+00,3.736398358910000272e-01,-9.414903429529999812e+00,5.354477092619999191e-03,3.491454524920000000e-03,-6.330773234370000446e-03,1.000000000000000000e+00
1.100201653999999918e+00,-2.740052448629999748e+00,3.356824091470000382e-01,-9.397136302170000732e+00,-4.384701605889999919e-04,-6.686170119789999061e-03,6.184767466039999863e-03,1.000000000000000000e+00
1.105386887000000096e+00,-2.704539821219999585e+00,3.329645284900000224e-01,-9.435358773060000814e+00,1.332363858819999962e-02,1.249917224050000122e-02,1.739421393720000071e-03,1.000000000000000000e+00
1.110243780000000013e+00,-2.698383052159999629e+00,3.485318442499999447e-01,-9.420179908630000654e+00,5.315822083499999878e-03,2.332690404730000059e-03,-2.037247177209999989e-03,1.000000000000000000e+00
1.115380543999999974e+00,-2.691720379399999974e+00,2.962227063469999866e-01,-9.409601231469999050e+00,2.093412913379999896e-03,1.274004345760000080e-03,1.341591123489999907e-04,1.000000000000000000e+00
1.120389220000000075e+00,-2.682311330540000149e+00,3.142465301469999917e-01,-9.384932654159999998e+00,-1.023312285539999984e-02,-5.887452512980000108e-03,1.961766276509999997e-03,1.000000000000000000e+00
1.125229435999999916e+00,-2.690973360420000127e+00,2.986219129759999924e-01,-9.411691481749999255e+00,5.585952894759999747e-04,4.373797215520000732e-03,-1.721206237559999965e-03,1.000000000000000000e+00
1.130283039000000045e+00,-2.682044788559999837e+00,3.090904625589999677e-01,-9.432505137199999723e+00,-7.039522752170000210e-03,1.149290986359999961e-02,-1.968908589329999848e-03,1.000000000000000000e+00
1.135134582000000059e+00,-2.692366860609999968e+00,3.257840789339999654e-01,-9.438987484949999285e+00,-2.844671253109999653e-04,-4.816469736400000204e-04,-1.085697859530000003e-02,1.000000000000000000e+00
1.140146469999999912e+00,-2.725178412360000024e+00,3.661544485719999686e-01,-9.454281500200000465e+00,1.445393450560000098e-02,1.051851734520000206e-02,-1.185381971300000087e-02,1.000000000000000000e+00
1.145395477000000106e+00,-2.713909999370000214e+00,3.589384893110000307e-01,-9.452609183069998977e+00,1.238014735279999862e-02,8.038100786510000637e-04,-5.233976058660000028e-03,1.000000000000000000e+00
1.150282720000000092e+00,-2.730683147260000165e+00,3.760253062560000026e-01,-9.408182596839999690e+00,8.713328279549998820e-03,-4.914581775670000784e-03,2.820530906319999864e-03,1.000000000000000000e+00
1.155281478000000028e+00,-2.692463014459999915e+00,3.303038944460000015e-01,-9.462002449839999940e+00,1.176478434349999963e-02,6.400300189850000564e-03,-5.225855857130000176e-04,1.000000000000000000e+00
1.160250293999999904e+00,-2.658490309969999910e+00,3.637299979039999576e-01,-9.441240816839998828e+00,1.276875380429999887e-02,-3.679818473760000045e-03,-1.295258849859999908e-02,1.000000000000000000e+00
1.165408927999999955e+00,-2.726789646949999923e+00,3.198537025050000038e-01,-9.436590945209999859e+00,-2.362329396420000159e-04,7.616115733979999733e-03,-3.725101472809999679e-03,1.000000000000000000e+00
1.170271502999999935e+00,-2.686053147420000009e+00,3.285065261679999682e-01,-9.396272963339999507e+00,1.397966127840000010e-02,-8.897891268129998893e-03,-1.208938099440000011e-02,1.000000000000000000e+00
1.175299579000000039e+00,-2.748984235360000028e+00,3.322613486569999663e-01,-9.382620870089999343e+00,1.108557637779999938e-02,3.446159185840000361e-03,1.922378782180000001e-03,1.000000000000000000e+00
1.180402930999999933e+00,-2.693169116900000049e+00,2.950873273759999638e-01,-9.414754376450000350e+00,7.366834674030000273e-03,5.733639933170000050e-03,-9.214450605209999201e-03,1.000000000000000000e+00
1.185255713000000100e+00,-2.747389367390000281e+00,3.273712019949999719e-01,-9.401426108320000807e+00,8.643503300849999724e-03,5.703575909140000920e-03,-3.529530949890000440e-04,1.000000000000000000e+00
1.190382853000000019e+00,-2.683175546150000201e+00,3.357042191199999803e-01,-9.393627417270000279e+00,-1.901622675359999903e-02,1.163574215019999927e-02,-1.561130955820000041e-02,1.000000000000000000e+00
1.195167792999999978e+00,-2.739523748579999918e+00,3.369393504060000377e-01,-9.388831415160000304e+00,2.024280373009999887e-03,4.543382674460000326e-03,-2.733391476800000035e-03,1.000000000000000000e+00
1.200220622000000015e+00,-2.714845818920000209e+00,3.223641509560000173e-01,-9.427806750249999368e+00,-1.047412399199999962e-02,1.497870543970000008e-03,-7.493429351600000218e-03,1.000000000000000000e+00
1.205410053999999898e+00,-2.699178294190000216e+00,3.438962203390000250e-01,-9.403618649930001183e+00,-8.083494380119999809e-03,1.257145777339999972e-02,-7.828737609090001201e-03,1.000000000000000000e+00
1.210291999000000063e+00,-2.776949516129999740e+00,3.272084126489999689e-01,-9.427180142779999272e+00,8.101458661260000499e-03,3.993904218079999749e-03,7.526140194390000364e-03,1.000000000000000000e+00
1.215271642999999901e+00,-2.712978563740000126e+00,3.285145998769999909e-01,-9.410698963579999798e+00,1.834371872249999924e-02,1.820210926229999873e-02,-6.037500686940000007e-03,1.000000000000000000e+00
1.220402902000000012e+00,-2.698122647659999540e+00,3.745883322550000449e-01,-9.423429850339999803e+00,1.542941550719999916e-03,1.793561270460000039e-03,1.853871624920000070e-03,1.000000000000000000e+00
1.225405338000000066e+00,-2.672790930260000142e+00,3.342431701240000108e-01,-9.414630457810000408e+00,5.672695115209999694e-03,1.181920245289999963e-02,-5.928849801419999732e-03,1.000000000000000000e+00
1.230409544000000022e+00,-2.738531522670000218e+00,3.498632389840000134e-01,-9.405736372739999851e+00,1.006598956879999930e-02,7.545692846180000746e-03,8.357189595699998988e-03,1.000000000000000000e+00
1.235288275999999907e+00,-2.710783684049999920e+00,3.060018488929999725e-01,-9.399859005139999724e+00,-2.828598953780000385e-04,9.097482543440000083e-04,-5.279701203109998797e-03,1.000000000000000000e+00
1.240258883000000090e+00,-2.702509484440000165e+00,2.928337032300000198e-01,-9.390383905300000222e+00,1.152546238150000020e-02,2.708972245449999677e-02,5.679589230569998936e-04,1.000000000000000000e+00
1.245409124999999895e+00,-2.595762343380000114e+00,3.006089403409999972e-01,-9.280823460389999724e+00,-4.094211850319999686e-03,1.642922125760000115e-02,-3.873322159049999956e-03,1.000000000000000000e+00
1.250246911999999933e+00,-2.521833768330000058e+00,2.020750990159999871e-01,-9.362437329239998718e+00,9.728517383339999394e-03,1.932103885339999999e-03,-4.231565631930000147e-03,1.000000000000000000e+00
1.255262155000000046e+00,-2.458967270060000043e+00,1.461572782299999929e-01,-9.482662960549999909e+00,-1.407173369079999826e-02,-3.320091869679999731e-03,-1.348099112510000100e-02,1.000000000000000000e+00
1.260219238999999991e+00,-2.589271812309999810e+00,2.692064699319999810e-01,-9.459340537150000117e+00,-9.358317591250000025e-03,-9.292000904680000964e-03,-4.051781259479999946e-03,1.000000000000000000e+00
1.265248482999999924e+00,-2.570660927609999646e+00,3.530308727020000092e-01,-9.401007006129999510e+00,-8.981892839069999246e-03,-1.173149701210000027e-02,-1.248909533019999969e-02,1.000000000000000000e+00
1.270287863000000073e+00,-2.640959037190000025e+00,3.247707371730000347e-01,-9.251400966549999438e+00,7.600483018900000380e-03,-2.213437296449999661e-02,-1.072740927339999907e-02,1.000000000000000000e+00
1.275278737999999912e+00,-2.704082725099999696e+00,1.143031550640000032e-01,-9.398976961599998958e+00,-1.607079058889999967e-02,-2.065861225129999798e-02,1.758098602289999814e-03,1.000000000000000000e+00
1.280217906999999933e+00,-2.647311621090000067e+00,1.161956360129999949e-01,-9.447266068480001167e+00,-1.267429534350000137e-02,-2.002096362409999664e-02,-4.993882961569999675e-03,1.000000000000000000e+00
1.285421256000000012e+00,-2.569637137520000003e+00,3.569075680049999533e-01,-9.496889638819999035e+00,-2.940918691460000026e-02,-1.940201967950000092e-02,-6.733763497319998799e-03,1.000000000000000000e+00
1.290424008000000011e+00,-2.688874050059999909e+00,4.516707316849999931e-01,-9.458022440289999722e+00,-1.872635446490000105e-02,-4.011419042940000262e-02,-1.333281770349999812e-02,1.000000000000000000e+00
1.295415817000000080e+00,-2.772812270199999762e+00,4.311475470840000490e-01,-9.380929848260000981e+00,-2.828223817050000075e-02,-4.653983190660000019e-02,-8.302628062670000531e-03,1.000000000000000000e+00
1.300259870000000095e+00,-2.787196184859999981e+00,3.952178633079999615e-01,-9.412653020260000503e+00,-8.059052750470000956e-03,-1.432352513070000131e-02,4.592188633979999931e-05,1.000000000000000000e+00
1.305423494000000018e+00,-2.751163332970000042e+00,4.274444182500000133e-01,-9.401989587419999239e+00,-1.333390735089999904e-02,-3.311918675900000358e-02,-1.274120248850000095e-02,1.000000000000000000e+00
1.310413140999999948e+00,-2.733805663190000068e+00,3.758521781779999849e-01,-9.426215097140000054e+00,-2.881519030779999997e-03,-2.787181735040000080e-02,-6.780973635609999998e-04,1.000000000000000000e+00
1.315415393999999960e+00,-2.690314604250000130e+00,3.328601913329999884e-01,-9.443953582929999868e+00,-2.496951632200000021e-02,-1.822743937370000303e-02,-8.118240162730000140e-03,1.000000000000000000e+00
1.320269627999999917e+00,-2.687572904329999623e+00,2.520161926130000118e-01,-9.429751454570000746e+00,-1.058037951589999894e-02,-2.004216052590000047e-02,-4.791373386979999073e-03,1.000000000000000000e+00
1.325132731000000064e+00,-2.730205300609999775e+00,2.762949303560000014e-01,-9.392752972520000299e+00,-1.206590235229999981e-02,-3.819145262240000033e-02,-3.871791530400000257e-03,1.000000000000000000e+00
1.330158836000000067e+00,-2.765984762260000007e+00,3.319014293040000174e-01,-9.441077150710000865e+00,-1.350147277120000017e-02,-3.176793083550000230e-02,-2.013841643930000189e-03,1.000000000000000000e+00
1.335120115999999912e+00,-2.741998321999999710e+00,3.293107552230000179e-01,-9.461615496349999432e+00,-2.164237434039999967e-03,-2.303066290920000037e-02,-7.559246849270001047e-03,1.000000000000000000e+00
1.340104967000000036e+00,-2.809211617309999909e+00,4.251598509760000089e-01,-9.399027815010001063e+00,-2.506366372109999907e-02,-1.805213280020000199e-02,-5.291523411869999494e-04,1.000000000000000000e+00
1.345263561000000108e+00,-2.747703547900000043e+00,4.701784482779999830e-01,-9.409614675469999412e+00,-1.837492175400000025e-02,-2.215736359359999491e-02,-1.230232790110000023e-02,1.000000000000000000e+00
1.350290202000000050e+00,-2.701921747680000152e+00,4.297643856300000231e-01,-9.379051194909999722e+00,-1.197702623900000034e-02,-4.178588744249999744e-03,-1.354784518479999929e-02,1.000000000000000000e+00
1.355240973999999987e+00,-2.746816535940000303e+00,3.382272713239999895e-01,-9.381403895510000979e+00,-1.137617882339999990e-02,-7.470568642020000878e-03,-1.811011112300000203e-03,1.000000000000000000e+00
1.360236718999999983e+00,-2.708537074160000113e+00,2.708854725279999931e-01,-9.456739414739999461e+00,3.463114611800000627e-03,-1.132168155160000016e-02,1.948990393430000221e-03,1.000000000000000000e+00
1.365291792999999920e+00,-2.648316706480000171e+00,3.399580041070000003e-01,-9.436495668139999182e+00,-1.435452234000000188e-02,-2.349583245809999665e-02,-1.219336502249999954e-02,1.000000000000000000e+00
1.370426448999999991e+00,-2.698428937130000094e+00,3.947087447420000172e-01,-9.434355148979999939e+00,-1.349936425689999935e-02,-1.502490253189999988e-03,-3.386163851249999503e-03,1.000000000000000000e+00
1.375294084000000083e+00,-2.697262815959999394e+00,3.719255062540000045e-01,-9.465691367479999840e+00,4.831573925910000178e-03,-2.769289352000000107e-02,-7.603754289449999454e-03,1.000000000000000000e+00
1.380254072000000054e+00,-2.794255455720000114e+00,3.821277147839999833e-01,-9.407041610120000286e+00,-3.125777933750000220e-03,-1.752131432290000151e-02,1.217611506579999864e-02,1.000000000000000000e+00
1.385417273999999921e+00,-2.667902865959999925e+00,3.761892281130000404e-01,-9.394677218580000044e+00,-5.398653913289999835e-03,-1.323888078329999883e-03,-1.846729777749999898e-02,1.000000000000000000e+00
1.390414207000000069e+00,-2.773913801700000015e+00,3.403937286429999931e-01,-9.410894778410000328e+00,3.138535190369999735e-03,-1.502237841490000093e-02,9.614101145419999073e-04,1.000000000000000000e+00
1.395417810999999952e+00,-2.722873934809999952e+00,3.238949772520000048e-01,-9.382871045459999948e+00,6.431377958509999944e-03,-1.353587396440000118e-02,7.081871386619999903e-03,1.000000000000000000e+00
1.400247400000000031e+00,-2.688970788429999814e+00,3.105664168629999611e-01,-9.419190313069998766e+00,1.273555401710000159e-02,-9.251944720750001142e-03,-1.400554180149999987e-02,1.000000000000000000e+00
1.405356488000000015e+00,-2.738015682099999903e+00,3.168831622609999954e-01,-9.377416871699999490e+00,1.187664340250000001e-03,-1.098383497449999940e-02,-1.119596697389999874e-02,1.000000000000000000e+00
1.410350175000000039e+00,-2.770142174210000086e+00,3.060924132539999953e-01,-9.391369993730000587e+00,-1.725955400619999785e-03,-1.663728244600000059e-02,3.005418926479999642e-03,1.000000000000000000e+00
1.415204235000000033e+00,-2.695675546759999985e+00,3.314927389050000284e-01,-9.340408452780000204e+00,1.086465781550000065e-04,-1.749886758629999942e-02,-1.803856529300000219e-02,1.000000000000000000e+00
1.420283758000000063e+00,-2.698196005149999799e+00,2.488805066700000013e-01,-9.380747477430000814e+00,-4.886697512119999795e-03,2.707569627090000534e-03,-1.047392003240000050e-02,1.000000000000000000e+00
1.425370969999999904e+00,-2.741008141920000529e+00,2.307191192960000026e-01,-9.424292604650000627e+00,1.128621120009999992e-02,-1.874297671020000097e-02,1.077808998530000069e-02,1.000000000000000000e+00
1.430209528000000008e+00,-2.664874458049999895e+00,2.886823191719999904e-01,-9.453856552779999589e+00,-5.634216591720000306e-03,-2.306008711459999957e-02,2.189859747890000093e-03,1.000000000000000000e+00
1.435230490999999997e+00,-2.651651403859999867e+00,2.962502336749999743e-01,-9.409391972630000822e+00,-1.019897498190000008e-02,9.139066096399999688e-04,-1.972674578430000034e-02,1.000000000000000000e+00
1.440086305999999983e+00,-2.768660995739999908e+00,2.777020389409999845e-01,-9.375504316080000677e+00,-1.380387600509999993e-02,-1.223833300170000180e-02,-8.932001888749999119e-03,1.000000000000000000e+00
1.445220653000000022e+00,-2.726997736740000455e+00,2.290295405080000068e-01,-9.351057272569999412e+00,-8.728762157259999446e-03,-1.796765625479999906e-02,-2.663908060639999954e-03,1.000000000000000000e+00
1.450250494000000057e+00,-2.690400821229999462e+00,2.643526914920000248e-01,-9.369635131789998184e+00,-1.517268363390000124e-02,-2.308223769069999917e-02,1.327472366389999790e-02,1.000000000000000000e+00
1.455364013000000067e+00,-2.620128722870000093e+00,2.670584067869999911e-01,-9.456454752580000900e+00,-2.161222044380000078e-03,-1.225240156050000188e-02,9.141655638809999956e-03,1.000000000000000000e+00
1.460218687000000015e+00,-2.551771225960000056e+00,3.010282799980000257e-01,-9.492986786170000357e+00,-3.119012154640000284e-02,-2.867845818400000316e-02,-3.279475495220000435e-04,1.000000000000000000e+00
1.465408773000000053e+00,-2.586427821059999577e+00,4.150427634470000293e-01,-9.522916645010001346e+00,-6.869364064189999869e-03,-2.987058088179999835e-02,-4.655390977859999273e-03,1.000000000000000000e+00
1.470262885999999991e+00,-2.665075825840000245e+00,4.404018803050000486e-01,-9.499013791370000348e+00,-1.911504939200000044e-02,-4.627233743669999927e-02,6.356307771059999980e-03,1.000000000000000000e+00
1.475227449999999996e+00,-2.677799698329999867e+00,4.041599887740000563e-01,-9.447166115230000827e+00,-1.380926277489999930e-02,-3.968574106690000297e-02,-1.996075035999999789e-03,1.000000000000000000e+00
1.480244735999999950e+00,-2.691941620929999779e+00,3.968328972890000084e-01,-9.474197330019999086e+00,1.162524148819999922e-02,-3.934340551499999894e-02,-9.341612458229999957e-03,1.000000000000000000e+00
1.485209103999999947e+00,-2.776248966650000316e+00,4.320960434480000112e-01,-9.411742919670000873e+00,9.891466470439999690e-04,-3.417908027770000245e-02,-6.266228854659999445e-03,1.000000000000000000e+00
1.490282045999999916e+00,-2.754774509200000221e+00,4.248261985750000358e-01,-9.422738360940000391e+00,8.061095140869998718e-03,-4.609553888439999608e-02,-8.721748366950001288e-03,1.000000000000000000e+00
1.495386498000000008e+00,-2.760741308650000114e+00,3.807882463410000029e-01,-9.424891155060000969e+00,1.557855051939999961e-03,-4.640388488769999625e-02,-6.668974645439999446e-03,1.000000000000000000e+00
1.500226236999999907e+00,-2.767299936520000170e+00,3.383912662469999999e-01,-9.390185752380000750e+00,1.006253994999999936e-02,-2.575752139090000184e-02,-1.865961030129999892e-02,1.000000000000000000e+00
1.505403207000000076e+00,-2.760992653069999747e+00,3.682231080719999827e-01,-9.368482454620000510e+00,1.058679353450000041e-02,-3.993626311419999630e-02,-2.077531814580000150e-02,1.000000000000000000e+00
1.510239026000000040e+00,-2.820282169640000003e+00,3.541111422199999526e-01,-9.368274949349999048e+00,1.162723824379999910e-02,-3.682098537680000838e-02,-1.535127684469999969e-02,1.000000000000000000e+00
1.515391289999999946e+00,-2.785832495290000654e+00,3.551696382969999899e-01,-9.371507355400000350e+00,-6.657514022660000405e-04,-2.961706928909999675e-02,-1.284675672650000162e-02,1.000000000000000000e+00
1.520387544999999951e+00,-2.816037371679999790e+00,3.577546132890000452e-01,-9.356583342510001344e+00,2.658105455340000530e-03,-2.081793360409999599e-02,-5.883094854649999379e-03,1.000000000000000000e+00
1.525388763000000036e+00,-2.821284916940000276e+00,3.411929161969999846e-01,-9.363584161180000365e+00,2.512465417390000177e-02,-3.655445575710000033e-02,-1.774076744909999781e-02,1.000000000000000000e+00
1.530398979000000104e+00,-2.802533454719999817e+00,3.813718183829999941e-01,-9.383678270180000780e+00,9.550077840690000819e-03,-3.050921298560000175e-02,-2.665294520559999616e-02,1.000000000000000000e+00
1.535384123999999906e+00,-2.885439116949999772e+00,4.112667885719999417e-01,-9.371524306530000459e+00,1.263040583579999945e-02,-1.329533662650000080e-02,-9.678427595649999890e-04,1.000000000000000000e+00
1.540375596000000069e+00,-2.789412691859999960e+00,4.039155124939999841e-01,-9.386481637170000170e+00,-3.471856471149999818e-03,-2.472540177400000053e-02,-1.212000474329999813e-02,1.000000000000000000e+00
1.545372626000000027e+00,-2.796948932589999881e+00,4.121957765179999900e-01,-9.376856315210000403e+00,6.360160652550000265e-03,-2.058647945520000050e-02,-1.049065031110000060e-03,1.000000000000000000e+00
1.550413966999999893e+00,-2.785349680209999512e+00,3.445922032460000395e-01,-9.359322412090000043e+00,-1.347267441450000075e-02,-1.536089740689999816e-02,-1.913281157609999887e-03,1.000000000000000000e+00
1.555388121000000012e+00,-2.678194542870000028e+00,2.414593254269999933e-01,-9.415181077430000656e+00,8.661210304129999963e-04,-6.544867530470000611e-03,-6.486685015259999708e-03,1.000000000000000000e+00
1.560379532000000014e+00,-2.667510359509999596e+00,2.266800365060000211e-01,-9.462394079500000998e+00,-9.628362953659999612e-03,-1.624082587660000132e-02,-2.663411898539999861e-03,1.000000000000000000e+00
1.565258481999999951e+00,-2.610223707190000297e+00,2.014550308889999919e-01,-9.475247131339999740e+00,-1.561149861659999992e-02,-2.505057118830000124e-02,-8.749854750930000091e-03,1.000000000000000000e+00
1.570387235999999964e+00,-2.631431038130000122e+00,2.510262865269999866e-01,-9.385880164139999593e+00,-5.626644939180000353e-03,-3.679651767019999353e-02,-8.367143571379999367e-03,1.000000000000000000e+00
1.575243476999999892e+00,-2.618585292820000188e+00,1.945084083549999954e-01,-9.441438385239999675e+00,-1.439294498410000067e-02,-4.379894584419999348e-02,4.448574502020000501e-03,1.000000000000000000e+00
1.580390256000000049e+00,-2.598374863960000170e+00,2.061147480620000028e-01,-9.486054941080000802e+00,-9.031364694240000615e-03,-4.113746061919999752e-02,-7.041160948569998891e-03,1.000000000000000000e+00
1.585399170000000080e+00,-2.629794669099999815e+00,3.321412659409999635e-01,-9.497339136160000805e+00,2.230135723949999618e-03,-5.469227209690000202e-02,-8.806800469760000041e-03,1.000000000000000000e+00
1.590387714000000008e+00,-2.759958633840000175e+00,4.718622731800000136e-01,-9.475092817560000213e+00,4.810778889810000784e-03,-4.766466096040000017e-02,3.896149806679999935e-03,1.000000000000000000e+00
1.595415978999999984e+00,-2.785071447790000487e+00,5.224887369589999997e-01,-9.423528634540000226e+00,5.842172540720000319e-04,-8.151277899739999000e-02,-2.418348798530000222e-03,1.000000000000000000e+00
1.600398490999999979e+00,-2.795552802050000007e+00,5.794701227220000472e-01,-9.437017646180001051e+00,-1.225391402840000010e-03,-6.172088161109999527e-02,-4.172126296910000018e-03,1.000000000000000000e+00
1.605388618000000100e+00,-2.726690278229999986e+00,6.126165689879999876e-01,-9.440670907999999528e+00,2.596890926359999782e-02,-8.113944530489999862e-02,-2.307242155079999857e-02,1.000000000000000000e+00
1.610296960000000110e+00,-2.769545377360000060e+00,4.936293934269999628e-01,-9.448002566060001328e+00,2.672074548899999735e-02,-7.712061703210000563e-02,-2.294509671629999664e-02,1.000000000000000000e+00
1.615399610999999958e+00,-2.773827584720000239e+00,3.970611165540000043e-01,-9.482490526589998581e+00,4.260659962890000346e-02,-6.573162972929999515e-02,-3.124764561650000133e-02,1.000000000000000000e+00
1.620370440000000078e+00,-2.799270069009999418e+00,3.414353101179999905e-01,-9.462173714749999576e+00,4.119682312009999986e-02,-3.529790043830000057e-02,-4.104261100289999936e-02,1.000000000000000000e+00
1.625393724999999900e+00,-2.839891417740000090e+00,3.561732623809999998e-01,-9.406359473069999311e+00,3.941929340359999479e-02,-7.605209201569999855e-02,-2.747695706780000149e-02,1.000000000000000000e+00
1.630410909999999935e+00,-2.845739559240000105e+00,3.251142899139999876e-01,-9.429455686499998990e+00,4.497290402649999769e-02,-7.217024266719999914e-02,-2.037387154999999866e-02,1.000000000000000000e+00
1.635371034000000057e+00,-2.824958929279999698e+00,2.597792278300000146e-01,-9.426149630689998560e+00,4.840978235009999603e-02,-6.446089595560000607e-02,-3.172116354109999481e-02,1.000000000000000000e+00
1.640406845000000002e+00,-2.882170178279999995e+00,2.563031126850000008e-01,-9.420966675089999853e+00,4.361383244400000164e-02,-8.150342851880000572e-02,-2.062362991269999987e-02,1.000000000000000000e+00
1.645379750999999890e+00,-2.849693849829999959e+00,3.197100927829999995e-01,-9.375138989899999942e+00,5.119219794869999535e-02,-7.533132284879999474e-02,-2.184312045569999916e-02,1.000000000000000000e+00
1.650409981999999998e+00,-2.850707703040000318e+00,2.831390971620000307e-01,-9.333595265630000526e+00,4.455883800980000448e-02,-5.971272662280000670e-02,-1.425295695659999952e-02,1.000000000000000000e+00
1.655409270999999904e+00,-2.822090972630000305e+00,2.636199385040000065e-01,-9.399585448889999029e+00,4.062665626410000286e-02,-6.521319597959999992e-02,-3.309052810069999795e-02,1.000000000000000000e+00
1.660258800999999895e+00,-2.878875520649999853e+00,3.230246241580000399e-01,-9.400495549469999546e+00,4.693666473029999703e-02,-5.497304722670000310e-02,-1.456732302900000040e-02,1.000000000000000000e+00
1.665240249000000006e+00,-2.782410704150000136e+00,3.406563616350000157e-01,-9.407782199349998820e+00,5.769034102559999350e-02,-6.724037975069999118e-02,-2.434866875409999812e-02,1.000000000000000000e+00
1.670361160999999983e+00,-2.917041585170000229e+00,2.995415851040000299e-01,-9.375722927269999118e+00,5.836092680689999868e-02,-5.731986463069999732e-02,6.616907194260000444e-04,1.000000000000000000e+00
1.675235937000000064e+00,-2.771926719530000138e+00,2.756590984039999914e-01,-9.373393023010001102e+00,4.056975245480000380e-02,-7.504814118150000823e-02,-2.348281443120000048e-02,1.000000000000000000e+00
1.680396388999999990e+00,-2.819342842959999818e+00,2.720259295340000105e-01,-9.383891620669999156e+00,6.657636910680000963e-02,-5.224297195669999616e-02,-2.717182412740000094e-02,1.000000000000000000e+00
1.685406015999999951e+00,-2.879939058220000181e+00,2.028029931659999785e-01,-9.424989939260001393e+00,5.447179451580000387e-02,-5.177975818509999995e-02,-1.706318184729999771e-02,1.000000000000000000e+00
1.690262216999999900e+00,-2.849538367000000072e+00,2.196994751699999637e-01,-9.397612102989999272e+00,3.775130212309999594e-02,-6.351068615910000770e-02,-2.348753251140000414e-02,1.000000000000000000e+00
1.695404415999999914e+00,-2.847311046340000207e+00,2.646814119900000040e-01,-9.417393492780000486e+00,3.206324204799999855e-02,-5.723945796490000765e-02,-2.460564300420000142e-02,1.000000000000000000e+00
1.700244904000000057e+00,-2.875879261439999723e+00,3.450158354860000109e-01,-9.345067676760001163e+00,3.235963731999999538e-02,-5.863567814230000869e-02,-1.344612427060000101e-02,1.000000000000000000e+00
1.705398785999999944e+00,-2.860825484690000309e+00,2.470603968369999848e-01,-9.391084747049999848e+00,3.030103072520000038e-02,-5.871809646490000478e-02,-6.562806200239999083e-03,1.000000000000000000e+00
1.710374065999999971e+00,-2.834015219179999878e+00,1.888001867759999952e-01,-9.389409507310000791e+00,2.831649966540000091e-02,-5.036823824049999759e-02,-1.443803310389999914e-02,1.000000000000000000e+00
1.715166801999999935e+00,-2.864840857809999530e+00,2.294058447410000090e-01,-9.375036114049999370e+00,3.478194028139999783e-02,-4.876422882079999715e-02,-1.234455034139999956e-02,1.000000000000000000e+00
1.720198187999999906e+00,-2.846351261399999721e+00,2.409845657880000103e-01,-9.402032842040000560e+00,3.651220723990000055e-02,-6.490569561719999880e-02,-8.025065064430000894e-03,1.000000000000000000e+00
1.725088455999999937e+00,-2.912305496559999707e+00,3.295777721290000239e-01,-9.359249346849999540e+00,2.125084772709999806e-02,-6.595154851680000430e-02,8.241345640270000394e-04,1.000000000000000000e+00
1.730098147999999947e+00,-2.880209691859999754e+00,3.713014560710000134e-01,-9.347675228910000911e+00,1.379011292009999987e-02,-5.717235058549999943e-02,-5.723412148650000066e-03,1.000000000000000000e+00
1.735117011999999903e+00,-2.940717936580000025e+00,3.382147041040000079e-01,-9.343568962639999143e+00,1.331274118270000043e-02,-4.847491160040000302e-02,-7.312217727299999935e-03,1.000000000000000000e+00
1.740123480000000056e+00,-2.991834960350000294e+00,3.623902737330000345e-01,-9.305126711519999816e+00,2.760220877830000044e-02,-5.737539008259999462e-02,9.484743699430000369e-03,1.000000000000000000e+00
1.745099163999999980e+00,-2.898850971699999945e+00,3.435324650599999585e-01,-9.280279855030000746e+00,4.085046797990000284e-02,-2.870074100790000193e-02,-1.515583321449999986e-02,1.000000000000000000e+00
1.749993718999999892e+00,-2.989668137709999840e+00,2.934126538949999863e-01,-9.294559140269999631e+00,3.606676310299999910e-02,-1.738542504609999831e-02,1.217625290160000151e-02,1.000000000000000000e+00
1.754888554000000100e+00,-2.939353662479999851e+00,2.805403128410000058e-01,-9.289520561579999836e+00,3.395085781809999842e-02,-5.271317064759999810e-02,-1.003116182979999979e-02,1.000000000000000000e+00
1.759851810000000016e+00,-2.938205953749999821e+00,2.478024108430000039e-01,-9.341960942920000122e+00,1.269046962259999869e-02,-3.834601491689999808e-02,-8.765231817959998409e-03,1.000000000000000000e+00
1.764910562000000072e+00,-2.987619388479999749e+00,2.410679332229999916e-01,-9.309880043519999759e+00,2.277675829829999693e-02,-2.217800170179999933e-02,-1.140031963590000057e-05,1.000000000000000000e+00
1.770101241000000103e+00,-2.891267676970000089e+00,2.300719439660000032e-01,-9.315366365980001007e+00,1.370459608730000001e-02,-7.376293651760000916e-03,-5.708822049199999658e-03,1.000000000000000000e+00
1.775113640000000048e+00,-2.930022939559999706e+00,2.751468562989999866e-01,-9.337783364969999056e+00,1.439179573210000104e-02,-1.831542514259999754e-02,-1.677731866950000084e-03,1.000000000000000000e+00
1.780175164999999948e+00,-2.902344951299999920e+00,2.346479831780000080e-01,-9.336838193080000181e+00,1.018500141800000001e-02,-3.207661584020000262e-02,-2.327105496079999881e-03,1.000000000000000000e+00
1.785214416000000082e+00,-2.844789126650000277e+00,2.225143133949999963e-01,-9.358636767909999321e+00,1.154472772029999962e-02,-1.416711043570000050e-02,-2.513204701240000227e-02,1.000000000000000000e+00
1.790245053999999891e+00,-2.922999909059999624e+00,2.343991412499999982e-01,-9.348760686060000324e+00,1.472591422500000094e-02,-1.885974220929999973e-02,5.470011848959999839e-03,1.000000000000000000e+00
1.795221377000000063e+00,-2.821951856420000126e+00,2.098705021330000142e-01,-9.430005137069999321e+00,1.297681778670000188e-02,-1.052833814170000062e-02,-1.027470640839999935e-02,1.000000000000000000e+00
1.800116738999999910e+00,-2.880642822580000040e+00,2.019903068099999921e-01,-9.386440720639999569e+00,-2.700914628799999922e-03,-1.228245347739999847e-02,-5.858764052390000136e-03,1.000000000000000000e+00
1.805383849999999901e+00,-2.849144106989999869e+00,2.258127156190000151e-01,-9.364057039389999559e+00,1.599277951750000069e-03,-2.566043473780000098e-02,5.298523698000000108e-03,1.000000000000000000e+00
1.810244755000000039e+00,-2.850687829299999976e+00,2.225750671389999935e-01,-9.343688205099999422e+00,-2.814958803359999834e-03,-1.059293188150000134e-02,-4.718758165840000567e-03,1.000000000000000000e+00
1.815264560999999999e+00,-2.892635750450000209e+00,2.308037836389999764e-01,-9.353398867260001026e+00,-1.082905568179999903e-02,-2.423291653390000078e-02,8.539386093620000145e-03,1.000000000000000000e+00
1.820388595000000054e+00,-2.892925673309999723e+00,2.378937053669999968e-01,-9.371633027599999721e+00,-1.045132242140000070e-02,-2.817960269750000024e-02,6.117442157120000015e-03,1.000000000000000000e+00
1.825206751999999932e+00,-2.861676256299999999e+00,2.410189977809999995e-01,-9.403999758200001224e+00,-2.581007592379999660e-02,-1.700411178169999871e-02,1.092332415279999823e-02,1.000000000000000000e+00
1.830244669000000046e+00,-2.867708814470000256e+00,2.616209467069999794e-01,-9.366687972419999397e+00,-7.929868996139999987e-03,-1.007634680720000120e-02,1.048420369629999953e-02,1.000000000000000000e+00
1.835181315999999896e+00,-2.929178597689999997e+00,2.912752948069999848e-01,-9.403168568069999012e+00,-1.606823690239999811e-02,-3.122259490190000195e-02,8.031407371160001127e-03,1.000000000000000000e+00
1.840216679000000077e+00,-2.887105004329999502e+00,3.438286349949999932e-01,-9.366201650209999841e+00,-2.227750793099999779e-02,-3.573918715119999562e-02,-1.355163054539999844e-03,1.000000000000000000e+00
1.845193222000000022e+00,-2.919474073019999949e+00,3.749931867290000054e-01,-9.346760452150000731e+00,-1.205425336959999906e-02,-2.103495784099999877e-02,-4.330878145989999414e-03,1.000000000000000000e+00
1.850247419000000004e+00,-2.926818882820000134e+00,3.045958910859999924e-01,-9.374710535349999319e+00,7.550575304779999324e-03,-2.183089777829999925e-02,-6.622519344089999871e-03,1.000000000000000000e+00
1.855198056999999956e+00,-2.967088057109999788e+00,3.142386025689999918e-01,-9.360434757240000181e+00,-1.491168979560000135e-02,-7.303794845939999211e-03,1.110718585549999929e-02,1.000000000000000000e+00
1.860129313000000062e+00,-2.894914509040000361e+00,3.115504959970000209e-01,-9.387286523810001171e+00,-1.795047335329999841e-02,-9.530709357929999280e-04,2.957890275869999933e-03,1.000000000000000000e+00
1.865214346999999995e+00,-2.929663458600000325e+00,3.379108988510000078e-01,-9.373738475449998830e+00,7.788588758560000339e-03,-8.022170513870000713e-03,1.780976541339999823e-03,1.000000000000000000e+00
1.870240314999999987e+00,-2.936837588009999944e+00,3.620979397230000285e-01,-9.337437912539998663e+00,-7.208877708760000162e-03,-8.577263914050000521e-03,-7.688265293839999757e-03,1.000000000000000000e+00
1.875217434000000072e+00,-2.970055966999999963e+00,3.656462798540000003e-01,-9.334270972939998856e+00,9.389502927660000123e-03,-2.115072868759999836e-02,6.524010095750000168e-03,1.000000000000000000e+00
1.880399664000000026e+00,-2.952626985559999806e+00,3.192502567189999807e-01,-9.329562064590000148e+00,4.676530603319999785e-03,4.074322059750000100e-03,1.879693754020000246e-02,1.000000000000000000e+00
1.885258464000000078e+00,-2.882951976309999775e+00,2.703369717999999922e-01,-9.349291431939999342e+00,2.779884263870000330e-03,2.575549995530000344e-03,-7.937418296930001324e-03,1.000000000000000000e+00
1.890275442000000083e+00,-2.966603196199999903e+00,2.452828475040000067e-01,-9.364187972299999885e+00,1.372237782929999934e-02,-6.812978535890000260e-04,4.304223693909999589e-04,1.000000000000000000e+00
1.895270478999999897e+00,-2.926203965790000083e+00,2.249996091380000174e-01,-9.370101580249999174e+00,-1.379761192950000083e-02,1.962202042340000299e-02,-1.014364976439999927e-02,1.000000000000000000e+00
1.900244032000000027e+00,-2.933062745650000025e+00,2.518269901840000102e-01,-9.417774016530000125e+00,1.162410993129999771e-02,1.404644362629999844e-02,-5.948755424469999963e-04,1.000000000000000000e+00
1.905390402000000094e+00,-2.901844308299999842e+00,2.842140146509999910e-01,-9.374688323519999145e+00,-1.139424857680000147e-03,3.938440233469999927e-03,7.393644656989999293e-03,1.000000000000000000e+00
1.910258387999999918e+00,-2.894738860209999487e+00,2.344026483810000006e-01,-9.367677567979999509e+00,6.254447158429999806e-03,-4.577902145679999977e-04,-2.319852355870000312e-04,1.000000000000000000e+00
1.915269353000000008e+00,-2.866587993740000062e+00,2.183159483900000142e-01,-9.428038220919999546e+00,2.179185859860000192e-03,5.539124831560000633e-04,-7.787175476550000329e-03,1.000000000000000000e+00
1.920249292999999913e+00,-2.910053625979999836e+00,2.043413817139999866e-01,-9.391125663580000449e+00,-1.925017870959999655e-02,8.889419957999999608e-03,9.806578978899999077e-03,1.000000000000000000e+00
1.925216685999999955e+00,-2.887031354570000374e+00,2.551357494059999786e-01,-9.444288513969999244e+00,8.720685727889998648e-04,-1.914001069959999843e-02,1.447291579100000068e-04,1.000000000000000000e+00
1.930266011999999920e+00,-2.887013234389999905e+00,3.626554640079999725e-01,-9.385712990880000106e+00,-5.920973606409999854e-03,-2.205458004030000059e-04,-4.289671778679999929e-03,1.000000000000000000e+00
1.935409501000000088e+00,-2.905811750629999857e+00,3.225062628400000020e-01,-9.349791198150001037e+00,-1.364878029559999989e-03,2.004736289379999842e-02,3.633783198889999760e-03,1.000000000000000000e+00
1.940242170000000099e+00,-2.898765339250000128e+00,3.165059629789999662e-01,-9.366870927769999966e+00,-1.027876790610000000e-02,-4.314362071449999968e-03,-5.532495211810000216e-03,1.000000000000000000e+00
1.945390551000000023e+00,-2.912777790249999832e+00,2.938693298880000193e-01,-9.361431367060001563e+00,-8.675660938020000185e-03,-4.389754496510000700e-03,4.468210972850000448e-03,1.000000000000000000e+00
1.950261264000000105e+00,-2.905218753170000223e+00,2.844971972399999993e-01,-9.351361808469999204e+00,-1.244024187329999948e-02,2.182095544409999935e-03,2.620867453520000015e-03,1.000000000000000000e+00
1.955206707000000099e+00,-2.903401182350000109e+00,2.570427155380000106e-01,-9.365290965099999809e+00,-2.110122144220000218e-02,-3.869794541969999446e-03,-3.448921954260000637e-03,1.000000000000000000e+00
1.960207135000000100e+00,-2.941046730140000065e+00,3.309597280070000203e-01,-9.344421195549999837e+00,8.331562392410001017e-03,-5.179733037949999647e-03,1.092362403869999964e-02,1.000000000000000000e+00
1.965204994000000038e+00,-2.900348809049999588e+00,3.025612251870000158e-01,-9.331959773390000379e+00,-2.708832034839999802e-03,-1.934919971969999933e-03,-1.161193009469999905e-03,1.000000000000000000e+00
1.970273635999999939e+00,-2.953473665509999790e+00,2.799865696819999750e-01,-9.341649392749999947e+00,-3.349694889040000321e-04,-2.095613162959999792e-04,-1.610318082380000080e-03,1.000000000000000000e+00
1.975265220999999904e+00,-2.968704844649999952e+00,2.894825113720000398e-01,-9.337404594789999734e+00,-4.697241354729999284e-03,2.599073806780000367e-03,1.372232288120000220e-02,1.000000000000000000e+00
1.980250955999999896e+00,-2.937385285020000403e+00,2.490295597520000015e-01,-9.340568027250000682e+00,-9.103910066190001177e-03,-6.622626446189999391e-03,1.091858744619999926e-02,1.000000000000000000e+00
1.985251721000000025e+00,-3.000357874020000093e+00,2.266681634050000116e-01,-9.328577729730000101e+00,-1.191813126210000164e-02,2.988770417870000029e-02,2.114886045459999850e-02,1.000000000000000000e+00
1.990275752999999925e+00,-2.942604773239999805e+00,1.872588390859999952e-01,-9.340658043630000407e+00,-4.335815086959999773e-03,2.303618006409999946e-02,9.519722312690000188e-03,1.000000000000000000e+00
1.995223680000000055e+00,-2.916498564340000321e+00,2.121742124980000033e-01,-9.336845791860001853e+00,-2.548139169810000049e-02,3.194431215520000117e-02,-1.790478127079999813e-03,1.000000000000000000e+00
2.000239944000000047e+00,-2.998397972129999811e+00,2.421356903180000297e-01,-9.313042891469999418e+00,-1.700186543170000009e-02,3.479775413869999612e-02,2.589275501670000243e-02,1.000000000000000000e+00
2.005368745000000175e+00,-2.906052865909999561e+00,2.911498783289999670e-01,-9.283630919020000150e+00,-3.430638089779999844e-02,4.406757280230000351e-02,7.543653715399999647e-03,1.000000000000000000e+00
2.010266268000000078e+00,-2.923656619399999990e+00,1.994175885110000268e-01,-9.289695333630000107e+00,-3.288461267949999850e-02,2.823142148550000091e-02,1.143457368020000219e-02,1.000000000000000000e+00
2.015413333999999779e+00,-2.884197007929999668e+00,1.996483833260000174e-01,-9.372771091719998893e+00,-5.013299733399999986e-02,4.544063284990000617e-02,2.925766445699999954e-02,1.000000000000000000e+00
2.020380250000000100e+00,-2.779809289480000167e+00,1.769234508969999842e-01,-9.369117245389999127e+00,-4.810196161270000048e-02,3.637759014960000037e-02,1.624309271569999991e-02,1.000000000000000000e+00
2.025249274000000099e+00,-2.850354651820000029e+00,1.796127265129999762e-01,-9.341141443230000618e+00,-4.639574885369999319e-02,4.871182516219999675e-02,2.950431592759999999e-02,1.000000000000000000e+00
2.030261546000000195e+00,-2.831488623309999841e+00,1.558533730020000008e-01,-9.346330828570000193e+00,-5.819252878430000719e-02,5.480513721699999813e-02,2.256941050290000098e-02,1.000000000000000000e+00
2.035226134000000187e+00,-2.796966468239999948e+00,1.887326562320000012e-01,-9.375417222319999411e+00,-8.116697520019999779e-02,3.209781646729999854e-02,2.265621908009999783e-02,1.000000000000000000e+00
2.040238695000000213e+00,-2.704518193909999813e+00,2.382733888670000022e-01,-9.393401207300000166e+00,-7.339320331810000875e-02,2.648186311129999831e-02,1.259195804599999927e-02,1.000000000000000000e+00
2.045231392999999898e+00,-2.781566946799999940e+00,2.319544149790000176e-01,-9.446335509629999905e+00,-7.117956876749999273e-02,1.508055254820000156e-02,2.948957867920000073e-02,1.000000000000000000e+00
2.050277798999999845e+00,-2.714455066040000197e+00,3.431009052430000206e-01,-9.518972875819999402e+00,-7.301551103589999647e-02,1.093582063910000096e-02,1.663934998209999974e-02,1.000000000000000000e+00
2.055247048000000021e+00,-2.774874755689999972e+00,3.554249282320000036e-01,-9.489040094369999068e+00,-5.157757177950000188e-02,7.248060777779999006e-03,1.033758372070000056e-02,1.000000000000000000e+00
2.060245033000000170e+00,-2.810842433379999949e+00,4.104887168710000256e-01,-9.456660504289999380e+00,-5.301167815919999998e-02,4.308105446399999872e-03,1.250298321250000073e-02,1.000000000000000000e+00
2.065221564999999870e+00,-2.824947531100000297e+00,4.201681436360000244e-01,-9.451019868049998607e+00,-6.261035054920000009e-02,-1.825101673600000238e-02,5.483216140420000238e-03,1.000000000000000000e+00
2.070273770000000013e+00,-2.899790882900000089e+00,4.193537950460000108e-01,-9.426986081509999948e+00,-3.900428861380000195e-02,-4.300170578060000769e-03,1.285379566249999876e-02,1.000000000000000000e+00
2.075301751000000028e+00,-2.887830103740000265e+00,4.623585317750000256e-01,-9.410265832860000401e+00,-3.347061946990000092e-02,-1.498097740110000166e-02,8.405013009910001012e-03,1.000000000000000000e+00
2.080374321999999943e+00,-2.890700983000000335e+00,4.360783545499999914e-01,-9.425432422330001003e+00,-2.274106442930000013e-02,-1.328556519000000102e-02,2.740363124760000508e-03,1.000000000000000000e+00
2.085209212000000090e+00,-2.917061458920000128e+00,4.577962288279999736e-01,-9.393146355749999898e+00,-2.531803958120000184e-02,-9.363965131339999776e-03,6.469447631390000744e-03,1.000000000000000000e+00
2.090258932999999875e+00,-2.891611960360000122e+00,4.087728893970000166e-01,-9.418170322369999070e+00,-6.931874901060001114e-03,-4.493257962169999557e-03,2.883420325820000140e-03,1.000000000000000000e+00
2.095391446999999907e+00,-2.879879144729999840e+00,3.611371318659999941e-01,-9.418293656489998611e+00,6.157397758220000024e-03,7.396215572949999331e-03,1.464466564359999910e-03,1.000000000000000000e+00
2.100236837999999828e+00,-2.889187655820000256e+00,3.139897423749999916e-01,-9.372356081179999521e+00,-9.837298654020000879e-03,-9.268904104830000268e-03,1.978045329449999994e-04,1.000000000000000000e+00
2.105336692999999926e+00,-2.879346353029999861e+00,3.256591373800000189e-01,-9.395320777180000249e+00,-1.510842703279999949e-02,7.912924047560000642e-04,-2.363516017789999910e-03,1.000000000000000000e+00
2.110271421999999841e+00,-2.892460686150000182e+00,3.080330259269999926e-01,-9.369045349200000317e+00,7.540297228840000393e-03,-3.621507436040000052e-03,3.484120126809999839e-03,1.000000000000000000e+00
2.115379330000000113e+00,-2.816003761669999772e+00,2.228081817749999749e-01,-9.428976378550000703e+00,6.281741429119999491e-03,-2.438180148599999788e-03,6.776680704210000412e-03,1.000000000000000000e+00
2.120370765000000102e+00,-2.742784503939999841e+00,1.539949039200000092e-01,-9.513134086660000932e+00,5.689593031999999606e-03,-1.649362221360000172e-02,1.353711821139999896e-02,1.000000000000000000e+00
2.125199611999999849e+00,-2.726716873980000067e+00,1.019665100539999952e-01,-9.459187392420000506e+00,-1.811059541070000065e-03,-3.128637000920000272e-02,3.494440764190000215e-02,1.000000000000000000e+00
2.130230534999999925e+00,-2.615078161480000052e+00,-3.963572608669999747e-02,-9.426369995439999983e+00,1.696040853860000114e-02,-7.652300596239998420e-02,4.835890978569999665e-02,1.000000000000000000e+00
2.135216242999999903e+00,-2.696201616459999784e+00,-7.790721461560000394e-02,-9.480082296409999998e+00,2.948852628469999723e-02,-9.309308975930000174e-02,6.676907092330000570e-02,1.000000000000000000e+00
2.140195609000000054e+00,-2.691171805600000244e+00,1.938362264479999986e-01,-9.403046402999999387e+00,3.177088126540000140e-02,-1.425925046209999825e-01,9.906611591580000153e-02,1.000000000000000000e+00
2.145206101999999948e+00,-2.684176832149999914e+00,2.761739343250000367e-01,-9.517604510069999080e+00,3.890458121899999927e-02,-1.923885196449999779e-01,1.180298104880000143e-01,1.000000000000000000e+00
2.150228482999999802e+00,-2.600501646859999738e+00,3.821538356059999697e-01,-9.594433482730000406e+00,5.165806412700000433e-02,-2.331155389550000068e-01,1.519381850960000169e-01,1.000000000000000000e+00
2.155077572000000163e+00,-2.698066241290000278e+00,5.277599553600000881e-01,-9.348435691889999788e+00,3.625368699430000369e-02,-3.096300959589999846e-01,1.299458891149999906e-01,1.000000000000000000e+00
2.159973222000000082e+00,-3.066832333669999855e+00,5.634771654290000598e-01,-9.227784528639999095e+00,3.905488178130000348e-02,-3.372617065910000211e-01,1.012672260400000052e-01,1.000000000000000000e+00
2.165075905000000134e+00,-3.241385182979999779e+00,6.229791922440000018e-01,-9.172096543689999493e+00,2.161161787809999513e-02,-3.690852522849999984e-01,5.671710520980000753e-02,1.000000000000000000e+00
2.170181164000000162e+00,-3.360892144630000189e+00,7.414003314200000583e-01,-9.269363324219998646e+00,2.296686731279999963e-02,-3.361220657829999681e-01,2.744529955090000209e-02,1.000000000000000000e+00
2.175222494999999867e+00,-2.991117167469999671e+00,2.324324442859999895e-01,-9.386841118130000439e+00,4.298228770490000045e-02,-2.806586623189999963e-01,-1.250526122750000163e-02,1.000000000000000000e+00
2.180192772999999917e+00,-2.884093547560000026e+00,8.884107102150000379e-02,-9.541879119629999906e+00,9.234052896500000163e-02,-2.421263456340000120e-01,-6.696589756760000338e-03,1.000000000000000000e+00
2.185201251000000067e+00,-3.419085974919999771e+00,2.903654134199999404e-01,-9.273716843249999897e+00,1.052322834730000101e-01,-2.030327618120000011e-01,2.189381979409999596e-02,1.000000000000000000e+00
2.190175679999999847e+00,-3.913038535889999725e+00,1.707727827800000209e-01,-9.007617929149999370e+00,1.246794313190000003e-01,-1.759051978589999954e-01,4.545859619979999988e-02,1.000000000000000000e+00
2.195196351999999962e+00,-3.641963879199999976e+00,2.991151946519999827e-01,-9.073027682170000219e+00,1.173493564129999972e-01,-1.168159246440000076e-01,3.604744374749999786e-02,1.000000000000000000e+00
2.200191706000000025e+00,-3.575717675350000402e+00,5.421523090559999813e-01,-9.153166217769999946e+00,9.115961194039998161e-02,-8.453118801120000636e-02,7.549106609079999849e-03,1.000000000000000000e+00
2.205168390999999950e+00,-3.502204987630000321e+00,4.502639701600000266e-01,-9.155959063360000982e+00,6.885166466239998895e-02,2.910574711859999567e-02,-1.890633255240000213e-02,1.000000000000000000e+00
2.210407016000000002e+00,-3.388297453419999883e+00,3.359883332909999742e-01,-9.245162948939999126e+00,5.953268706799999532e-02,1.100455448029999950e-01,-3.121519647540000122e-02,1.000000000000000000e+00
2.215263302999999961e+00,-3.278473096879999549e+00,3.182248957270000234e-01,-9.305879575710001461e+00,3.851019591090000527e-02,1.453644037250000076e-01,-1.613669283689999831e-02,1.000000000000000000e+00
2.220310734999999980e+00,-2.925553100670000184e+00,2.127226584269999998e-01,-9.403019514989999550e+00,2.907101064920000408e-02,1.653089374299999970e-01,-1.299314759670000020e-02,1.000000000000000000e+00
2.225370348999999859e+00,-2.847969510249999558e+00,2.020813095609999832e-01,-9.495096325669999615e+00,2.630413509910000183e-02,1.258181333539999947e-01,-2.717411611230000079e-03,1.000000000000000000e+00
2.230393665999999886e+00,-3.034757279489999959e+00,2.545588263010000185e-01,-9.428478365900000213e+00,4.798838123679999984e-02,1.052944138649999917e-01,-4.673423245549999938e-03,1.000000000000000000e+00
2.235404748000000108e+00,-3.054425272040000028e+00,3.648939636490000082e-01,-9.334280909810001248e+00,5.184900760649999857e-02,7.334881275889999774e-02,-9.627199731769999977e-03,1.000000000000000000e+00
2.240253222000000211e+00,-2.971707241339999861e+00,4.594063674389999852e-01,-9.382153837100000615e+00,3.450663387780000119e-02,9.860281646250000642e-02,-2.430070750419999898e-02,1.000000000000000000e+00
2.245404657999999998e+00,-2.890148025290000255e+00,3.589867123669999716e-01,-9.399824518339999102e+00,4.375636205080001007e-02,1.135492175819999977e-01,-3.013974614440000088e-02,1.000000000000000000e+00
2.250303364000000084e+00,-2.909502129579999874e+00,1.836121896790000041e-01,-9.446119821050000809e+00,3.169284760950000224e-02,1.360405832530000025e-01,-8.076291531319999481e-03,1.000000000000000000e+00
2.255403745999999821e+00,-2.890505168159999805e+00,1.451904424919999992e-01,-9.490946220250000565e+00,4.591077566150000150e-02,1.329010277989999822e-01,2.665007486939999985e-04,1.000000000000000000e+00
2.260252165999999896e+00,-2.869438707000000033e+00,2.576358225929999968e-01,-9.418866487939999033e+00,6.917491555210000809e-02,1.177631765599999880e-01,-4.163748584690000511e-03,1.000000000000000000e+00
2.265392966999999924e+00,-2.943338640469999934e+00,3.180288982300000233e-01,-9.343169149660001338e+00,5.861460044980000561e-02,1.053506806489999947e-01,-8.768489584330000156e-03,1.000000000000000000e+00
2.270258848000000107e+00,-2.910249440809999921e+00,2.501259218870000023e-01,-9.346855144700001006e+00,5.204872786999999862e-02,9.240355342630000857e-02,-1.984607055779999754e-02,1.000000000000000000e+00
2.275273793999999850e+00,-2.947589283650000169e+00,1.512935634060000034e-01,-9.367080186609999970e+00,5.587062612180000026e-02,8.234921842810000170e-02,-2.127801068129999904e-02,1.000000000000000000e+00
2.280213400000000057e+00,-2.891689409509999642e+00,7.087169452219999055e-02,-9.413325804950000375e+00,4.069002345199999870e-02,1.024504974479999997e-01,-4.339390434319999497e-03,1.000000000000000000e+00
2.285206195000000218e+00,-2.871078290899999885e+00,1.921951629769999836e-01,-9.420820544619999737e+00,4.970940575000000472e-02,1.076640263200000086e-01,-7.280757185069999804e-03,1.000000000000000000e+00
2.290264765999999952e+00,-2.891549124259999992e+00,2.085386690069999938e-01,-9.331762204989999532e+00,2.358276583250000155e-02,1.127647683019999958e-01,-1.539326645429999960e-02,1.000000000000000000e+00
2.295399076999999899e+00,-2.911399487630000227e+00,2.471827993739999785e-01,-9.256270033889999027e+00,2.879834361370000109e-02,9.215179085729999220e-02,-3.221916500479999907e-03,1.000000000000000000e+00
2.300247203000000074e+00,-2.751261824909999820e+00,2.467699442570000234e-01,-9.268325213340000701e+00,4.732997342939999907e-02,7.821225374939999586e-02,-2.879872545599999889e-02,1.000000000000000000e+00
2.305382257000000212e+00,-2.761841086590000494e+00,2.803112167929999732e-01,-9.354920962260001360e+00,5.471151322130000244e-02,8.489719033239999380e-02,-2.014737576249999926e-02,1.000000000000000000e+00
2.310258301000000181e+00,-2.802905795170000047e+00,3.446835347919999792e-01,-9.499275072659999708e+00,4.008943960069999424e-02,6.297202408310000055e-02,-1.954284869130000143e-02,1.000000000000000000e+00
2.315397354999999990e+00,-2.964881486970000424e+00,3.767768918080000029e-01,-9.434880634160000668e+00,3.764071688060000032e-02,8.342500030989999371e-02,-2.321566082540000436e-02,1.000000000000000000e+00
2.320221794000000060e+00,-3.031466421250000209e+00,3.440358480049999779e-01,-9.259735664169999936e+00,4.410677030679999860e-02,7.141023874280000294e-02,-2.652286365629999768e-02,1.000000000000000000e+00
2.325257045999999939e+00,-3.013798954879999936e+00,3.150342829919999810e-01,-9.303121216910000157e+00,4.185558855529999955e-02,8.239804953339999183e-02,-2.753657102579999683e-02,1.000000000000000000e+00
2.330264808999999993e+00,-2.931249558749999817e+00,4.016229811099999991e-01,-9.292161431480000289e+00,5.256631970409999383e-02,9.035003185270000514e-02,-2.292453497649999880e-02,1.000000000000000000e+00
2.335153425000000116e+00,-2.783526848700000222e+00,4.057711502979999829e-01,-9.309086262799999290e+00,3.200944140550000122e-02,7.872787863020000443e-02,-2.775568515059999644e-02,1.000000000000000000e+00
2.340404291000000025e+00,-2.737716406900000177e+00,3.183220359580000158e-01,-9.220587895130000433e+00,4.111117497089999961e-02,8.729310333730000426e-02,-2.785327471790000411e-02,1.000000000000000000e+00
2.345407221999999958e+00,-2.755394102409999935e+00,2.954034441199999694e-01,-9.259638633539999830e+00,3.871831670399999981e-02,7.126343250269999430e-02,-2.164054661989999948e-02,1.000000000000000000e+00
2.350256138999999855e+00,-2.795055666190000121e+00,3.068144439180000016e-01,-9.195278681830000522e+00,3.168696910140000184e-02,5.401487275959999945e-02,-1.639031246300000008e-02,1.000000000000000000e+00
2.355244379000000166e+00,-2.753815016519999936e+00,2.136208128429999964e-01,-9.241751679189999180e+00,4.676222801210000446e-02,6.385293602940000923e-02,-2.139517478640000359e-02,1.000000000000000000e+00
2.360184320000000113e+00,-2.818621542950000336e+00,2.883924511129999924e-01,-9.285839827250001122e+00,3.280496224759999607e-02,5.112380534409999983e-02,-2.454105764630000117e-02,1.000000000000000000e+00
2.365242931000000048e+00,-2.895900597469999838e+00,3.552618100919999744e-01,-9.288416984260001286e+00,4.134286195040000333e-02,5.206680670379999765e-02,-2.860773354769999971e-02,1.000000000000000000e+00
2.370278769000000008e+00,-2.986438361999999902e+00,3.855105256229999777e-01,-9.404093281699999807e+00,4.570018127560000060e-02,5.462672933940000003e-02,-3.278664872050000151e-02,1.000000000000000000e+00
2.375244150999999970e+00,-3.091629213529999642e+00,3.611042525100000011e-01,-9.377288861410001175e+00,7.477232068780000074e-02,4.572980105880000701e-02,-3.168964385990000188e-02,1.000000000000000000e+00
2.380252362999999871e+00,-3.100971919160000034e+00,2.505480928220000236e-01,-9.229954858419999297e+00,6.923682242629999872e-02,6.142288073899999923e-02,-2.224984392520000173e-02,1.000000000000000000e+00
2.385377683999999832e+00,-2.977142125869999933e+00,2.428085663450000042e-01,-9.255670314430000545e+00,7.848308980460000361e-02,5.959741026160000205e-02,-2.175072953100000081e-02,1.000000000000000000e+00
2.390256670999999944e+00,-2.892097990309999478e+00,2.671289330059999911e-01,-9.295386823270000320e+00,7.943231612439999312e-02,6.801033765080000126e-02,-1.992576941850000144e-02,1.000000000000000000e+00
2.395385195999999883e+00,-2.827595415259999800e+00,1.583681871010000075e-01,-9.310867301000000040e+00,8.215013146400000632e-02,6.929674744610000992e-02,4.220262169840000369e-03,1.000000000000000000e+00
2.400257231999999963e+00,-2.748960562229999738e+00,1.509928908259999814e-01,-9.344951356910000229e+00,7.392554730179999589e-02,7.379684597249999700e-02,-1.976231858129999866e-02,1.000000000000000000e+00
2.405374915999999974e+00,-2.816281409570000172e+00,1.940434577250000070e-01,-9.314510625929999676e+00,8.012013882400000064e-02,6.401417404409999456e-02,-4.763224627819999911e-03,1.000000000000000000e+00
2.410406619999999833e+00,-2.736943376700000208e+00,1.935121638600000027e-01,-9.227034002530000834e+00,6.298704445359999682e-02,6.037247553469999445e-02,-1.607334427540000124e-02,1.000000000000000000e+00
2.415408999999999917e+00,-2.737702378370000300e+00,3.276611613850000104e-01,-9.249954859389998063e+00,5.681256577370000227e-02,6.151596829300000346e-02,-1.860521733759999685e-02,1.000000000000000000e+00
2.420258791000000187e+00,-2.742786842030000116e+00,4.420691193969999988e-01,-9.211147282089999777e+00,4.470932111139999665e-02,4.751498624680000615e-02,-2.313762670380000233e-03,1.000000000000000000e+00
2.425233205000000059e+00,-2.727018195009999868e+00,3.988626495509999814e-01,-9.265061243110000788e+00,5.265113711359999810e-02,3.345829993490000154e-02,-5.482227075850000866e-03,1.000000000000000000e+00
2.430284573999999864e+00,-2.757752355970000124e+00,3.938487303790000338e-01,-9.307094796719999508e+00,5.078838020560000333e-02,3.544392064210000193e-02,-8.331317454579999920e-03,1.000000000000000000e+00
2.435382934000000166e+00,-2.830314318830000175e+00,4.012184188970000509e-01,-9.296455329280000512e+00,6.099164858459999589e-02,3.415442258120000157e-02,5.761149805040000071e-03,1.000000000000000000e+00
2.440239710999999811e+00,-2.782854356259999662e+00,4.533786315820000357e-01,-9.305938612420000311e+00,8.015245944260000754e-02,3.950414434080000425e-02,8.890848606819998570e-03,1.000000000000000000e+00
2.445197476000000147e+00,-2.652974761420000327e+00,5.417395270040000765e-01,-9.363127649589999990e+00,8.991261571649999951e-02,1.857471652329999862e-02,-4.154334776100000216e-03,1.000000000000000000e+00
2.450236816999999956e+00,-2.636469909080000118e+00,5.730455330349999432e-01,-9.434128354480000311e+00,6.921502202750000332e-02,2.369944192470000224e-02,1.995511818680000254e-03,1.000000000000000000e+00
2.455189744000000118e+00,-2.621982826300000013e+00,3.842509905479999377e-01,-9.394715212510000413e+00,8.635250478980001365e-02,5.542315542699999438e-03,2.912472467869999838e-03,1.000000000000000000e+00
2.460364154000000081e+00,-2.712516499190000374e+00,1.239914866540000049e-01,-9.397920146029999700e+00,8.840049803260000005e-02,-1.067692413930000118e-02,1.367406547070000068e-02,1.000000000000000000e+00
2.465217588999999876e+00,-2.718240137530000045e+00,-1.087287524650000087e-01,-9.357575860680000801e+00,9.523456543680000608e-02,-1.522552315149999953e-02,1.878440007570000153e-02,1.000000000000000000e+00
2.470260494999999779e+00,-2.748285439450000034e+00,-1.836871911440000060e-01,-9.380655122969999482e+00,8.333833515639998968e-02,-1.683865301309999882e-02,1.416176557539999999e-02,1.000000000000000000e+00
2.475223279000000165e+00,-2.775514222630000027e+00,-1.529444998179999848e-01,-9.400082292500000491e+00,6.277178227900000185e-02,-1.836665906009999835e-02,2.548103220760000037e-02,1.000000000000000000e+00
2.480095040000000139e+00,-2.704256328100000051e+00,-9.851923741110001076e-02,-9.413792253420000478e+00,5.559060350060000127e-02,-2.432979829609999839e-02,2.468919940290000350e-02,1.000000000000000000e+00
2.485381967999999997e+00,-2.774607044659999744e+00,-2.875111108349999792e-02,-9.485348254110000710e+00,3.900359570980000551e-02,-4.653597995640000595e-02,2.974301017820000018e-02,1.000000000000000000e+00
2.490259615999999898e+00,-2.798074137229999980e+00,-7.043543569649999246e-03,-9.449797632779999290e+00,3.368912264700000408e-02,-3.879049047830000763e-02,4.821789637209999979e-02,1.000000000000000000e+00
2.495239599000000030e+00,-2.685894741980000333e+00,8.364347269569999410e-03,-9.416887296830001475e+00,2.247514203190000351e-02,-3.501376137140000538e-02,5.787049606439999966e-02,1.000000000000000000e+00
2.500223961000000106e+00,-2.576958274190000342e+00,1.055776223569999950e-01,-9.421097023479999777e+00,2.307657524940000260e-02,-3.555284440519999867e-02,5.242487788200000248e-02,1.000000000000000000e+00
2.505355223000000020e+00,-2.671888428459999965e+00,1.731872600429999742e-01,-9.459759639349998750e+00,1.663256622849999811e-02,-5.123966932300000332e-02,7.455075532200000632e-02,1.000000000000000000e+00
2.510282373999999983e+00,-2.632305482879999659e+00,1.294242888250000112e-01,-9.441989589380000325e+00,9.907446801660000843e-03,-7.151727378369999999e-02,6.335352361200000115e-02,1.000000000000000000e+00
2.515402770000000121e+00,-2.641856570549999894e+00,-6.199752429219999167e-02,-9.432309322360000081e+00,1.451963745060000019e-02,-8.100663870569999037e-02,5.790585651990000360e-02,1.000000000000000000e+00
2.520245565999999826e+00,-2.751432213040000185e+00,-1.511231570090000031e-01,-9.442227489789999595e+00,1.162498630579999852e-02,-9.140551090239999732e-02,8.442572504280000667e-02,1.000000000000000000e+00
2.525341653999999991e+00,-2.645458978959999818e+00,-2.014058579850000197e-01,-9.451059031019999779e+00,-1.662243157630000079e-02,-8.974125236269998862e-02,9.249886870380001624e-02,1.000000000000000000e+00
2.530261784999999986e+00,-2.640606570490000138e+00,-1.303843751619999936e-01,-9.486478719449999986e+00,-1.249144691969999998e-02,-1.146269291640000104e-01,1.035481467840000114e-01,1.000000000000000000e+00
2.535241558000000062e+00,-2.645021756590000273e+00,-1.905096758419999869e-01,-9.431846381030000614e+00,-2.249325811859999649e-02,-1.039027199149999969e-01,1.078882738949999975e-01,1.000000000000000000e+00
2.540240553999999928e+00,-2.678699862040000212e+00,-1.638579801560000049e-01,-9.404939669400000923e+00,-2.780383452769999778e-02,-1.226436495780000024e-01,9.367536753419998530e-02,1.000000000000000000e+00
2.545239479000000138e+00,-2.847838285089999921e+00,-1.941029145609999770e-02,-9.395223746550000143e+00,-2.905590645969999969e-02,-1.275508850809999872e-01,1.028635203839999984e-01,1.000000000000000000e+00
2.550231517999999920e+00,-2.954584257099999611e+00,1.473025758080000192e-01,-9.424974741689998936e+00,-2.442241646350000114e-02,-1.091461926700000029e-01,1.025054305790000092e-01,1.000000000000000000e+00
2.555225708000000040e+00,-2.982461567329999674e+00,2.288988998649999773e-01,-9.357679905580001289e+00,-3.662895783779999970e-02,-1.209628731009999986e-01,9.762279689310000841e-02,1.000000000000000000e+00
2.560248505000000119e+00,-2.927812862290000151e+00,3.761816293280000334e-01,-9.365823464540000032e+00,-2.178954519330000145e-02,-1.304063498970000068e-01,8.437009900810001073e-02,1.000000000000000000e+00
2.565373442999999920e+00,-2.883212380809999864e+00,3.078383070729999726e-01,-9.404059963959999990e+00,-3.563150763510000013e-02,-1.188842803240000023e-01,7.886165380480000819e-02,1.000000000000000000e+00
2.570266011000000184e+00,-2.842816657530000235e+00,1.319056755780000090e-01,-9.637494041300000092e+00,-3.163125738500000006e-02,-9.279482066630000137e-02,8.877766132349999839e-02,1.000000000000000000e+00
2.575205465999999888e+00,-3.051300710280000050e+00,1.982026232310000191e-01,-9.499622278660000418e+00,-1.425531506539999896e-02,-9.709013253450000935e-02,8.066153526310000654e-02,1.000000000000000000e+00
2.580346392000000044e+00,-3.171567258120000510e+00,2.755187218190000009e-01,-9.397461296339999492e+00,-1.371313724670000095e-02,-1.069140955809999988e-01,9.012987464670001170e-02,1.000000000000000000e+00
2.585338680000000000e+00,-3.024790596749999949e+00,3.342516822239999796e-01,-9.436912432239999760e+00,5.134847015139999986e-05,-1.127679124469999905e-01,8.130592107770000243e-02,1.000000000000000000e+00
2.590230861000000218e+00,-3.065182228370000317e+00,2.972250700569999959e-01,-9.336288742500000737e+00,-3.358959686010000445e-03,-9.980931133030000735e-02,6.971114873889999730e-02,1.000000000000000000e+00
2.595346178999999864e+00,-3.040328942149999936e+00,7.351695290050000442e-02,-9.328812123010001400e+00,-1.276182197029999965e-02,-7.478103041649999949e-02,6.799680739640000249e-02,1.000000000000000000e+00
2.600234289999999948e+00,-2.974277091829999886e+00,1.092666222010000021e-01,-9.290658041180000382e+00,-1.435582246629999933e-02,-8.621715009210000058e-02,7.017796486619999607e-02,1.000000000000000000e+00
2.605186746000000220e+00,-2.964259263420000234e+00,1.422560695410000076e-01,-9.332278337820000047e+00,-1.742751710120000325e-02,-7.895590364929999661e-02,6.074203178290000366e-02,1.000000000000000000e+00
2.610376077000000183e+00,-2.905594893009999957e+00,1.205357567099999833e-01,-9.326694984730000471e+00,-1.935360766950000241e-02,-7.734172791239998790e-02,7.247591018680001052e-02,1.000000000000000000e+00
2.615344812000000019e+00,-2.888950047679999855e+00,1.668350780049999982e-01,-9.210534118630000933e+00,-2.335888892409999917e-02,-9.349739551539998361e-02,6.224692240360000378e-02,1.000000000000000000e+00
2.620205420000000007e+00,-2.821370549400000094e+00,6.761719080479999811e-02,-9.238146932699999425e+00,-1.792585477229999974e-02,-9.930013120169998986e-02,5.391770973799999561e-02,1.000000000000000000e+00
2.625203141000000073e+00,-2.870458405440000416e+00,1.196204593619999978e-01,-9.294514132090000658e+00,-2.640709280970000156e-02,-9.069150686259999650e-02,4.838487878440000250e-02,1.000000000000000000e+00
2.630252834000000206e+00,-2.920308770280000132e+00,2.896694670450000175e-01,-9.310454044020000097e+00,-4.295939952139999490e-02,-1.093343198299999847e-01,5.442717298869999970e-02,1.000000000000000000e+00
2.635188005999999916e+00,-2.980476530990000317e+00,1.474695116059999977e-01,-9.277584040080000705e+00,-4.203132167460000429e-02,-1.134165897969999920e-01,5.586577579379999742e-02,1.000000000000000000e+00
2.640208635000000026e+00,-2.983075023050000052e+00,1.044808400960000050e-01,-9.305325448959999690e+00,-2.940337918699999914e-02,-1.053425297140000022e-01,4.845482483509999660e-02,1.000000000000000000e+00
2.645180069999999883e+00,-3.029308366440000011e+00,1.692574097810000122e-01,-9.261479877490000234e+00,-3.958477824929999833e-02,-1.067172735930000116e-01,4.081280529500000420e-02,1.000000000000000000e+00
2.650226082000000094e+00,-2.977813156999999933e+00,2.114108817089999925e-01,-9.158603440389999406e+00,-6.322237849240000540e-02,-9.825430810450000441e-02,5.927244201299999848e-02,1.000000000000000000e+00
2.655186344000000087e+00,-2.778654858749999956e+00,1.454643640630000068e-01,-9.156602621960001187e+00,-4.818109422919999996e-02,-1.061056405309999950e-01,5.373458564280000210e-02,1.000000000000000000e+00
2.660208098000000021e+00,-2.808533571920000416e+00,-1.215074969519999992e-01,-9.223533300939999791e+00,-7.296556234360000726e-02,-1.002860218290000105e-01,5.748594179750000227e-02,1.000000000000000000e+00
2.665200398000000082e+00,-2.914194671309999762e+00,-5.231021561489999916e-02,-9.377437329970000235e+00,-5.729205161330000462e-02,-1.058462783689999992e-01,6.483201682569998681e-02,1.000000000000000000e+00
2.670214302999999845e+00,-2.949657029829999999e+00,1.988845776130000187e-01,-9.384112569950000093e+00,-7.080177962780000167e-02,-1.199033632870000060e-01,5.024179816250000374e-02,1.000000000000000000e+00
2.675160224999999947e+00,-3.203239576719999704e+00,3.325577012550000044e-01,-9.408286057219999776e+00,-8.340449631210000714e-02,-1.337312310930000026e-01,7.027467340230000858e-02,1.000000000000000000e+00
2.680215662999999804e+00,-3.223396814080000006e+00,3.818024283519999562e-01,-9.376006420379999540e+00,-5.443876609209999384e-02,-1.321574300530000134e-01,7.234377413989999395e-02,1.000000000000000000e+00
2.685342825000000211e+00,-3.073678838560000237e+00,3.019700543600000175e-01,-9.461366490019999631e+00,-4.417866095899999901e-02,-1.082701832059999869e-01,8.206453919410000575e-02,1.000000000000000000e+00
2.690250158000000003e+00,-2.934576657340000061e+00,1.082491248550000035e-01,-9.540352348449999909e+00,-1.868342980740000242e-02,-8.202454447750000266e-02,7.035175710919999714e-02,1.000000000000000000e+00
2.695348536000000017e+00,-3.049035103430000060e+00,1.724354530120000145e-02,-9.370905297849999371e+00,-9.394546505060000262e-04,-9.276875108480001075e-02,6.524177640679999779e-02,1.000000000000000000e+00
2.700192288999999857e+00,-3.144880326729999620e+00,1.519692889770000166e-01,-9.350437679360000587e+00,-1.195443235339999945e-02,-1.040064468979999962e-01,8.882014453410001786e-02,1.000000000000000000e+00
2.705200914000000179e+00,-3.171991913280000297e+00,2.811236474200000113e-01,-9.280611863460000777e+00,-2.378401113670000101e-03,-1.154411658640000088e-01,1.133851855990000018e-01,1.000000000000000000e+00
2.710364919999999955e+00,-3.030838937009999956e+00,3.585891278839999918e-01,-9.252117590389998369e+00,-1.623565517370000044e-02,-1.206234022969999847e-01,7.945141196249999593e-02,1.000000000000000000e+00
2.715336701000000019e+00,-3.071468176769999836e+00,4.008680710890000221e-01,-9.282149156030000015e+00,-1.910618878900000039e-02,-1.186624243859999983e-01,1.062160506839999879e-01,1.000000000000000000e+00
2.720221620999999868e+00,-2.961241669170000090e+00,2.955535931809999961e-01,-9.345403192330000053e+00,-1.712856814270000139e-02,-1.084892600769999937e-01,9.043655544520000367e-02,1.000000000000000000e+00
2.725328678999999976e+00,-2.936222086459999492e+00,1.815314744150000048e-01,-9.304382030630000244e+00,9.373166598379998812e-03,-9.699662774800001108e-02,8.905605971810000299e-02,1.000000000000000000e+00
2.730365248000000022e+00,-2.887785680070000360e+00,1.250582665019999984e-01,-9.360714158700000453e+00,-1.276703272009999980e-02,-9.963139891619998689e-02,7.463732361790000047e-02,1.000000000000000000e+00
2.735185766999999935e+00,-2.954221561270000240e+00,3.467701318069999483e-01,-9.314020212069999971e+00,-1.162938494239999961e-02,-1.009634807709999943e-01,8.378937840460000397e-02,1.000000000000000000e+00
2.740207515999999899e+00,-2.984882072469999592e+00,3.561917113539999624e-01,-9.351573405389999039e+00,-2.841345965859999947e-02,-1.254420429470000098e-01,7.568803429600000354e-02,1.000000000000000000e+00
2.745333427999999909e+00,-2.968441809800000275e+00,2.799086273409999714e-01,-9.351157225810000639e+00,-2.287973649799999662e-02,-1.291765868660000038e-01,8.237614482639998847e-02,1.000000000000000000e+00
2.750350447000000198e+00,-3.032169016570000153e+00,2.160517845840000117e-01,-9.350119114930000919e+00,-1.830945536490000136e-02,-1.430150568490000107e-01,6.979527324439999125e-02,1.000000000000000000e+00
2.755318753000000065e+00,-3.110951169119999804e+00,1.718177800539999744e-01,-9.397222226889999419e+00,-1.408563181760000109e-02,-1.310110390190000196e-01,7.131085544819999733e-02,1.000000000000000000e+00
2.760359285999999912e+00,-3.099144119209999992e+00,2.153761503440000113e-01,-9.306085911939998567e+00,-3.159260749819999686e-02,-1.325474679470000083e-01,7.401974499230000448e-02,1.000000000000000000e+00
2.765114175999999979e+00,-3.031334319309999970e+00,1.373197821819999997e-01,-9.225271084510000108e+00,-2.134620398279999873e-02,-1.324898749589999980e-01,7.822643220420000265e-02,1.000000000000000000e+00
2.770172854000000129e+00,-2.982531417689999742e+00,9.294233232789998744e-02,-9.252292362429999528e+00,-4.108636081219999708e-02,-1.563180983069999974e-01,7.671853899960001666e-02,1.000000000000000000e+00
2.775242117999999980e+00,-2.888091092759999423e+00,9.010730983139998707e-02,-9.253517520309999966e+00,-5.053818225859999652e-02,-1.378781199459999940e-01,9.046711027619998291e-02,1.000000000000000000e+00
2.780145454999999988e+00,-2.890920470969999823e+00,1.573603069660000076e-01,-9.333894540839999365e+00,-6.397447735069999863e-02,-1.420120447869999969e-01,8.414689451460000136e-02,1.000000000000000000e+00
2.785103052999999829e+00,-2.862919242099999817e+00,2.005334042660000260e-01,-9.272432648660000609e+00,-6.178411841389999659e-02,-1.645083427429999967e-01,8.904759585860000382e-02,1.000000000000000000e+00
2.790047872999999790e+00,-2.841132065450000077e+00,2.073739908760000028e-01,-9.158698717449999194e+00,-9.899188578130001248e-02,-1.605643481020000152e-01,9.589606523509999758e-02,1.000000000000000000e+00
2.794953425000000102e+00,-2.722978271970000197e+00,1.295352201199999886e-01,-9.309411256969999826e+00,-8.845037221910000136e-02,-1.657260805369999979e-01,1.008309870959999965e-01,1.000000000000000000e+00
2.799956053999999916e+00,-2.721493878629999585e+00,2.674209199559999806e-01,-9.453794008939999216e+00,-1.113344505430000075e-01,-1.618051975970000167e-01,1.090088412169999965e-01,1.000000000000000000e+00
2.805029488999999820e+00,-2.966724776750000014e+00,3.331641427159999780e-01,-9.381423184730000031e+00,-1.235317215320000106e-01,-1.793487370010000137e-01,1.160318255419999917e-01,1.000000000000000000e+00
2.810116945999999949e+00,-3.127643652979999800e+00,2.560710392280000081e-01,-9.293281959939999837e+00,-1.294423043730000000e-01,-2.037965506320000009e-01,1.131475791340000037e-01,1.000000000000000000e+00
2.815069246999999830e+00,-3.115650140590000117e+00,1.449004009039999985e-01,-9.199655581739998311e+00,-1.272323280569999937e-01,-2.024970054630000071e-01,1.290016919370000070e-01,1.000000000000000000e+00
2.820058640000000061e+00,-2.986074204869999971e+00,-2.901166171580000022e-02,-9.309768984369998890e+00,-1.294213831419999960e-01,-2.119570225480000014e-01,1.486341208220000043e-01,1.000000000000000000e+00
2.825070037000000145e+00,-3.022641602020000207e+00,4.046380180820000061e-02,-9.680251817529999414e+00,-1.104670464990000073e-01,-2.325350493189999868e-01,1.687269210819999921e-01,1.000000000000000000e+00
2.830064543999999849e+00,-2.707593363570000022e+00,-2.220101267319999905e-01,-9.622156186910000741e+00,-1.378043889999999994e-01,-2.757883071900000260e-01,2.136523425580000024e-01,1.000000000000000000e+00
2.835190894000000128e+00,-2.926023056270000477e+00,-2.204006457090000037e-01,-9.421447736610000234e+00,-1.406522095199999878e-01,-2.956443130970000110e-01,2.190375179050000065e-01,1.000000000000000000e+00
2.840160711999999865e+00,-2.886589748290000035e+00,-1.380218477710000169e-01,-9.486660505750000638e+00,-1.513834297659999995e-01,-3.421146273610000121e-01,2.497067004439999793e-01,1.000000000000000000e+00
2.845128934999999970e+00,-3.041368514329999773e+00,2.846497848529999999e-02,-9.559361000310000023e+00,-1.908657252790000036e-01,-3.900199830529999523e-01,2.748951911929999881e-01,1.000000000000000000e+00
2.850205889000000159e+00,-3.429821888470000246e+00,1.940347812279999973e-01,-9.429116079279999951e+00,-1.990804821249999856e-01,-4.191065132619999911e-01,2.863649427889999877e-01,1.000000000000000000e+00
2.855153255999999917e+00,-3.541609946299999923e+00,1.681652671620000039e-01,-9.452302893600000644e+00,-2.189443707470000167e-01,-4.015802443029999891e-01,2.837632596489999548e-01,1.000000000000000000e+00
2.860362798000000151e+00,-3.515840714280000334e+00,3.223188870420000129e-01,-9.230445272280000779e+00,-2.003761529919999840e-01,-4.136230349539999906e-01,2.702006697650000122e-01,1.000000000000000000e+00
2.865338346999999786e+00,-3.445938326010000274e+00,5.593755387969999715e-01,-9.430173479380000501e+00,-1.810400038960000013e-01,-3.808356821540000436e-01,2.620991468430000082e-01,1.000000000000000000e+00
2.870227337000000212e+00,-3.581015489499999926e+00,6.077816596449999720e-01,-9.664059392140000426e+00,-1.475602388380000130e-01,-3.795619904990000237e-01,2.551335394379999899e-01,1.000000000000000000e+00
2.875215120000000013e+00,-3.411237891769999919e+00,6.961802567290000798e-01,-9.697558341639998858e+00,-1.315347850320000012e-01,-3.741167485710000240e-01,2.353875935080000092e-01,1.000000000000000000e+00
2.880336583000000061e+00,-3.399814872739999938e+00,8.052268338379999779e-01,-9.751343707839998487e+00,-1.226685643200000064e-01,-3.548801541330000031e-01,1.976476460700000159e-01,1.000000000000000000e+00
2.885325833000000006e+00,-3.177642486379999909e+00,8.152124404749999664e-01,-9.750198629460001598e+00,-1.152959093449999889e-01,-3.783445656300000182e-01,1.504249125719999969e-01,1.000000000000000000e+00
2.890365098000000188e+00,-3.157188019639999954e+00,8.480669545899999218e-01,-9.925596697419999614e+00,-1.022434532640000004e-01,-4.012192785740000267e-01,1.098988130689999981e-01,1.000000000000000000e+00
2.895183729999999844e+00,-3.154488113029999763e+00,1.099355691450000005e+00,-1.001972927159999927e+01,-8.318963646889999952e-02,-4.176052510739999835e-01,7.603449374439999464e-02,1.000000000000000000e+00
2.900225167999999965e+00,-3.117987643629999805e+00,1.077694260059999909e+00,-9.774944363660001301e+00,-7.369611412289998886e-02,-4.126352667809999875e-01,2.243762835860000152e-02,1.000000000000000000e+00
2.905178639999999923e+00,-3.091005820940000426e+00,7.735647443790000244e-01,-9.849371535870000471e+00,-3.610024601219999352e-02,-4.441488683219999567e-01,-1.940112933519999930e-02,1.000000000000000000e+00
2.910360132000000100e+00,-2.825078171749999978e+00,7.057110322709999606e-01,-1.014840825849999995e+01,-2.038105204699999784e-02,-4.491500258450000227e-01,-4.956760630009999363e-02,1.000000000000000000e+00
2.915358884000000206e+00,-2.872138613610000224e+00,8.025494313230000509e-01,-1.023904539169999950e+01,1.069887913760000225e-02,-4.544923901560000146e-01,-6.852707266810000031e-02,1.000000000000000000e+00
2.920362367000000070e+00,-3.056340165750000004e+00,7.738366201230000296e-01,-1.018983215570000134e+01,4.396424163130000298e-03,-5.302258133889999892e-01,-7.814300805330000321e-02,1.000000000000000000e+00
2.925356379000000118e+00,-3.056473144479999959e+00,7.957762839259999721e-01,-1.028080831169999954e+01,4.921719059350000008e-02,-5.637224912639999808e-01,-1.058602109549999920e-01,1.000000000000000000e+00
2.930352749999999951e+00,-2.972226589040000366e+00,9.110521838779999104e-01,-1.024890861409999943e+01,6.462791562080000274e-02,-6.388186216350000279e-01,-1.226733177900000138e-01,1.000000000000000000e+00
