t,ax,ay,az,wx,wy,wz,zv
5.041025000000000193e-03,-2.578435945520000327e+00,5.350539848249999952e-01,-9.444261041439999005e+00,2.174834720789999790e-03,3.702342743050000395e-03,-1.079641096290000039e-02,1.000000000000000000e+00
1.015787100000000061e-02,-2.619078629300000127e+00,5.208655927359999716e-01,-9.424571421589998721e+00,-7.779928855600000762e-03,-1.664249598979999911e-02,-3.087872173639999700e-03,1.000000000000000000e+00
1.521632799999999945e-02,-2.629714005079999861e+00,5.125025092670000282e-01,-9.434824520050000274e+00,8.916422724719999526e-03,-1.092809811229999810e-02,2.637978177520000026e-03,1.000000000000000000e+00
2.021012800000000081e-02,-2.627859317119999982e+00,5.376572626590000459e-01,-9.415826974119999804e+00,-1.261348370460000159e-02,-1.820935122670000114e-02,5.824411753569999628e-03,1.000000000000000000e+00
2.510321100000000027e-02,-2.616096106350000117e+00,5.078758358470000234e-01,-9.422650682660000498e+00,3.970928955819999842e-03,1.695879967880000285e-03,9.262489620599998743e-04,1.000000000000000000e+00
3.023437600000000031e-02,-2.629306301059999740e+00,4.707372146720000261e-01,-9.454501864950000112e+00,-1.018728874620000203e-02,-4.104335326700000140e-03,1.192537136380000199e-03,1.000000000000000000e+00
3.518061299999999947e-02,-2.577259302959999943e+00,5.079205152390000588e-01,-9.401139108069999750e+00,3.997080493719999857e-03,-7.802082225680000843e-03,-3.345042467120000126e-03,1.000000000000000000e+00
4.009292700000000043e-02,-2.601525144690000069e+00,4.805303309449999727e-01,-9.413456737860000700e+00,-4.874796140939999939e-03,-1.324820704760000176e-02,-6.123246625069998957e-03,1.000000000000000000e+00
4.523431099999999927e-02,-2.618119721140000244e+00,5.230470649610000633e-01,-9.443918511610000621e+00,-1.320363674310000117e-02,-1.924002775920000087e-03,5.356077570470000118e-03,1.000000000000000000e+00
5.023111799999999821e-02,-2.627509188509999927e+00,5.007467511519999581e-01,-9.420314933189999351e+00,-9.556996636090000011e-03,-3.340219380329999873e-03,8.051952347159999773e-03,1.000000000000000000e+00
5.518138000000000210e-02,-2.629762228130000157e+00,5.019177676930000054e-01,-9.429377360560001975e+00,-6.573253311219999680e-03,-2.076174691319999932e-02,3.354611806569999990e-03,1.000000000000000000e+00
6.008734799999999876e-02,-2.591963827879999904e+00,4.791954656119999933e-01,-9.431269457919999155e+00,-7.679388858379999558e-03,-3.025367390359999693e-03,-5.555579438810000215e-03,1.000000000000000000e+00
6.512195199999999684e-02,-2.637548059699999836e+00,4.910991442970000231e-01,-9.434625198089998221e+00,-5.330041982229999364e-03,2.010945975779999950e-02,3.381091170010000566e-03,1.000000000000000000e+00
7.009152100000000385e-02,-2.627314542720000201e+00,5.161243895579999963e-01,-9.426641798119998583e+00,-7.728452328590000066e-03,-1.927139423790000250e-02,1.036793924870000119e-02,1.000000000000000000e+00
7.512174600000000313e-02,-2.608551097799999940e+00,5.518226026660000283e-01,-9.426775653630000917e+00,9.888100437819999367e-03,-1.247971877460000122e-02,5.638952832669999818e-03,1.000000000000000000e+00
8.003909600000000402e-02,-2.595429750420000126e+00,5.373373830550000063e-01,-9.443888701000000552e+00,-7.146776188159999384e-03,6.938299629840000236e-04,3.227011300619999929e-03,1.000000000000000000e+00
8.507214999999999916e-02,-2.594384917540000224e+00,5.352029283100000479e-01,-9.414155826040000008e+00,1.924670184960000077e-03,7.714495062829999916e-03,2.137633971869999736e-03,1.000000000000000000e+00
9.021575499999999470e-02,-2.630800631270000078e+00,5.278927514269999843e-01,-9.446626017010000709e+00,-1.143807079639999960e-02,2.996767638249999734e-03,4.257200751450000362e-03,1.000000000000000000e+00
9.505040300000000553e-02,-2.611492119690000280e+00,5.399258651780000084e-01,-9.425596672979999369e+00,-1.498150173570000129e-03,-1.492511248220000078e-03,2.761361189190000408e-03,1.000000000000000000e+00
1.000870789999999955e-01,-2.645598971949999711e+00,5.141894029079999706e-01,-9.393162137850000093e+00,3.872573841360000147e-03,6.802589632569999798e-04,-2.862186171109999937e-03,1.000000000000000000e+00
1.052146780000000059e-01,-2.656513456939999962e+00,5.149694839019999248e-01,-9.428599361930000811e+00,-7.819248363380000566e-03,-1.694150269029999999e-04,1.167730800809999893e-02,1.000000000000000000e+00
1.101104299999999953e-01,-2.572897308359999968e+00,5.194940121219999707e-01,-9.447120522529999675e+00,3.350670915100000154e-03,1.043519377709999953e-02,-6.033672951160000061e-03,1.000000000000000000e+00
1.152510119999999999e-01,-2.581841954570000208e+00,5.110517624689999705e-01,-9.454631628810000521e+00,-4.423792939629999851e-03,-5.133156664670000292e-03,-1.194436475630000077e-02,1.000000000000000000e+00
1.200833629999999985e-01,-2.629772165009999885e+00,4.968639183690000127e-01,-9.446772147480000825e+00,-1.091137342150000009e-02,-3.227191045880000017e-04,-3.894268535079999614e-03,1.000000000000000000e+00
1.251146750000000085e-01,-2.596485981479999872e+00,5.410124913710000483e-01,-9.427077266930000476e+00,4.620224237439999986e-03,-3.463983535769999886e-03,-8.153998292980000479e-03,1.000000000000000000e+00
1.300395940000000083e-01,-2.618480371140000429e+00,4.921813135109999737e-01,-9.437600999029999826e+00,-3.608589177019999833e-04,5.112370476130000639e-03,-5.276259966189999692e-03,1.000000000000000000e+00
1.350703420000000099e-01,-2.602612063140000043e+00,5.064601603630000115e-01,-9.435429500210000597e+00,-2.983426209539999895e-03,1.792001305149999984e-03,-8.538722991939999216e-03,1.000000000000000000e+00
1.400372079999999964e-01,-2.651927882709999906e+00,5.052204259670000086e-01,-9.444718722080001072e+00,-1.476965611799999989e-03,1.166326692329999835e-03,9.050002321599999802e-03,1.000000000000000000e+00
1.451130509999999929e-01,-2.615732825999999900e+00,5.004928859889999915e-01,-9.442226905269999193e+00,-2.583310473709999732e-03,-5.084680393340000604e-03,6.928639952090000914e-03,1.000000000000000000e+00
1.502111989999999897e-01,-2.630443488400000085e+00,5.255596323040000462e-01,-9.441720709310001070e+00,2.309419214729999895e-03,-5.466759204860000346e-03,3.131728153679999680e-04,1.000000000000000000e+00
1.550668470000000077e-01,-2.630698339940000352e+00,5.303123797890000324e-01,-9.441792020980001254e+00,-4.835043102499999614e-03,4.006732255220000344e-03,-5.523156374689999933e-03,1.000000000000000000e+00
1.602377749999999990e-01,-2.623567757410000034e+00,5.125719577739999977e-01,-9.419745024339999162e+00,4.782548174259999840e-03,5.059908144180000518e-04,-2.298858016730000176e-03,1.000000000000000000e+00
1.650539480000000059e-01,-2.631609901830000098e+00,5.232174530919999622e-01,-9.428072123180001540e+00,7.456367369740000105e-03,-3.452513134109999951e-03,3.271335270260000358e-03,1.000000000000000000e+00
1.701121190000000061e-01,-2.648468097649999908e+00,5.290517487360000271e-01,-9.440115612199999617e+00,1.351603213699999889e-02,-8.357979357239999491e-03,1.868977211420000048e-02,1.000000000000000000e+00
1.751056219999999886e-01,-2.588011583120000125e+00,4.898944812150000105e-01,-9.422410444160000509e+00,-5.887041799720001134e-03,-3.635971108449999410e-03,1.152634434399999949e-02,1.000000000000000000e+00
1.802182599999999912e-01,-2.601179399989999919e+00,4.827940746259999916e-01,-9.427656528119999990e+00,9.725771844390000004e-03,-1.413261331620000068e-02,-5.808908026669999539e-04,1.000000000000000000e+00
1.850941560000000097e-01,-2.643443839749999746e+00,4.920301415370000320e-01,-9.459934995910000310e+00,5.651711020619999866e-03,-1.356827374550000076e-02,8.891902863980000529e-03,1.000000000000000000e+00
1.900446899999999884e-01,-2.601416423620000362e+00,5.300416365560000065e-01,-9.461699082979999176e+00,8.909214287999999218e-03,-7.456322200600000623e-03,2.126395702360000129e-03,1.000000000000000000e+00
1.950793229999999989e-01,-2.556630064170000161e+00,5.146662997049999966e-01,-9.435297398260001245e+00,1.370850601230000094e-03,2.436473732809999945e-03,-7.431459613140001079e-03,1.000000000000000000e+00
2.000577070000000013e-01,-2.640522399339999993e+00,5.101073212259999989e-01,-9.423723864850000353e+00,3.955456893889999770e-03,-1.561805489469999999e-03,1.173263043169999950e-02,1.000000000000000000e+00
2.050649290000000069e-01,-2.570254684890000085e+00,5.077802299849999423e-01,-9.417741867829999336e+00,1.662249676879999985e-02,-8.421786129470001242e-03,-4.941960796710000506e-03,1.000000000000000000e+00
2.100455430000000012e-01,-2.638501707170000099e+00,5.006970667910000117e-01,-9.423971117609999837e+00,9.677587077020001136e-03,-2.041123062370000033e-02,-2.137464471159999848e-03,1.000000000000000000e+00
2.152428899999999923e-01,-2.622408065979999758e+00,5.208502855690000377e-01,-9.425737542760000309e+00,9.613282978530000855e-03,3.700214205310000185e-03,-5.439086817200000147e-05,1.000000000000000000e+00
2.202109260000000013e-01,-2.602169580069999988e+00,5.447870049409999638e-01,-9.408063938899999812e+00,4.207455553110000211e-03,5.441671237350000252e-03,-7.458043750380000461e-03,1.000000000000000000e+00
2.250867370000000089e-01,-2.616528944809999757e+00,4.897821434149999820e-01,-9.438865319879999660e+00,1.173993758859999924e-02,8.583644405010000880e-03,-4.375656135380000082e-03,1.000000000000000000e+00
2.300873910000000022e-01,-2.602545719910000166e+00,5.300600124629999410e-01,-9.461559382239999039e+00,5.825126077979999976e-03,-1.165393367409999978e-02,-1.300446130339999971e-02,1.000000000000000000e+00
2.350364179999999970e-01,-2.632312789399999797e+00,5.193801034189999832e-01,-9.460179910589998187e+00,-1.502719940619999875e-03,-1.089352183040000026e-02,-8.372370153670000842e-03,1.000000000000000000e+00
2.400772840000000019e-01,-2.624708744139999883e+00,5.243517178190000294e-01,-9.424042429280000022e+00,-3.042565193030000083e-03,-6.938540376719999798e-03,6.505453493450000062e-03,1.000000000000000000e+00
2.450981240000000005e-01,-2.586541218309999834e+00,5.147798065490000186e-01,-9.431091178750000026e+00,9.055375121530000529e-03,7.833109237250000453e-03,1.225205138329999843e-03,1.000000000000000000e+00
2.500764910000000119e-01,-2.600477973719999891e+00,5.012753050710000435e-01,-9.478772382849999900e+00,-5.493066739290000319e-03,-6.404964253309999682e-03,4.091550130400000047e-03,1.000000000000000000e+00
2.552019170000000003e-01,-2.670413387470000011e+00,4.965845899710000233e-01,-9.493829666729999062e+00,8.872380713000000210e-04,-7.391503080729999731e-03,1.449450664220000226e-02,1.000000000000000000e+00
2.600820400000000143e-01,-2.610996445129999621e+00,5.196964393590000064e-01,-9.417658281199999593e+00,1.464506518100000022e-02,4.119710996749999764e-03,1.564319431780000075e-02,1.000000000000000000e+00
2.652370219999999890e-01,-2.575398477519999840e+00,5.482896792999999436e-01,-9.414159917690000157e+00,4.292010795330000392e-03,-8.371275849639999919e-03,-3.560177283359999834e-03,1.000000000000000000e+00
2.700441379999999891e-01,-2.608711841319999891e+00,4.956358744120000215e-01,-9.449645657090000483e+00,3.233775030820000129e-03,1.538661308590000143e-05,-4.431818611919999609e-03,1.000000000000000000e+00
2.750837680000000063e-01,-2.626572784439999975e+00,4.934303271909999955e-01,-9.431596205660001786e+00,9.800739586350000823e-03,5.088010802870000099e-03,1.371129881590000014e-03,1.000000000000000000e+00
2.800795099999999760e-01,-2.620303494919999920e+00,5.109974749989999454e-01,-9.458323469059999766e+00,-5.156026221810000240e-03,1.497424952689999957e-02,1.018590480089999993e-02,1.000000000000000000e+00
2.852556450000000021e-01,-2.611162157079999879e+00,5.004689205910000105e-01,-9.451335509870000706e+00,1.178753282869999912e-02,1.599014503879999955e-03,-2.209633821619999810e-03,1.000000000000000000e+00
2.900839749999999939e-01,-2.621917652110000052e+00,4.898325949600000895e-01,-9.438481289000000274e+00,4.134241957219999750e-03,-2.364616654809999913e-02,-3.088994883000000229e-03,1.000000000000000000e+00
2.951203980000000060e-01,-2.619428465649999982e+00,4.836394759409999855e-01,-9.465939789289999240e+00,-2.714511007070000148e-03,3.650290658699999972e-03,-4.108792636540000397e-03,1.000000000000000000e+00
3.000985620000000131e-01,-2.585530287700000152e+00,4.884609412809999829e-01,-9.443202472299999428e+00,1.179663813670000149e-03,4.457786679270000531e-03,-3.428455675020000357e-03,1.000000000000000000e+00
3.050614870000000201e-01,-2.625140121290000295e+00,5.102173940040000133e-01,-9.422886244980000825e+00,8.087703026829999933e-03,-3.682819660750000224e-03,-6.747070699930000220e-03,1.000000000000000000e+00
3.102329469999999811e-01,-2.609919171280000061e+00,4.838160015519999968e-01,-9.444539273860000250e+00,-8.713331073520000358e-03,4.671435803169999949e-03,-1.136321015660000065e-02,1.000000000000000000e+00
3.151353969999999838e-01,-2.627588975749999722e+00,4.957321743929999913e-01,-9.435541728410001383e+00,-4.967546556140000139e-03,-1.695130020379999975e-03,1.070594415070000088e-03,1.000000000000000000e+00
3.202351749999999830e-01,-2.564868900200000024e+00,5.086393675649999446e-01,-9.438091412900000421e+00,1.358314068059999916e-03,-1.086043193939999961e-04,3.590490203350000034e-03,1.000000000000000000e+00
3.252623880000000134e-01,-2.630435012830000030e+00,4.944672324909999972e-01,-9.451709019360000852e+00,7.498243357989999979e-04,1.082007773220000114e-02,8.293211460109998698e-03,1.000000000000000000e+00
3.301212689999999950e-01,-2.577643918360000175e+00,5.208399833710000149e-01,-9.426930551930000846e+00,-1.455864217130000034e-02,-1.001816941429999920e-03,-1.244913414120000020e-02,1.000000000000000000e+00
3.350959130000000230e-01,-2.598625331590000087e+00,4.931575015990000144e-01,-9.453729127010001676e+00,8.618018589909999180e-03,1.426613889630000008e-04,-9.338684380049998290e-03,1.000000000000000000e+00
3.400877700000000114e-01,-2.643352069809999705e+00,4.824753640649999675e-01,-9.459052952380000434e+00,2.785756252710000404e-03,4.235964268450000125e-03,6.720442790540000731e-03,1.000000000000000000e+00
3.451015849999999885e-01,-2.596019240750000012e+00,5.325624602709999600e-01,-9.447264314910000849e+00,-7.668530568479998977e-03,-4.333294928069999011e-03,-5.195605568590000445e-03,1.000000000000000000e+00
3.500885519999999973e-01,-2.579629831480000135e+00,4.883887162950000249e-01,-9.451551782969998428e+00,-2.065612701699999845e-03,-1.851370674559999841e-03,-7.536383811380000311e-03,1.000000000000000000e+00
3.550907159999999729e-01,-2.599178873820000124e+00,4.657089747140000235e-01,-9.469835043160001575e+00,1.750209927559999781e-02,-6.919824518259999786e-03,-1.110324449839999832e-02,1.000000000000000000e+00
3.600912470000000032e-01,-2.664836171859999769e+00,5.114594299549999334e-01,-9.411351290009999815e+00,-1.017726957799999950e-02,-1.333058578889999984e-03,1.255548745389999978e-02,1.000000000000000000e+00
3.651973969999999792e-01,-2.620563899420000009e+00,5.163428546149999576e-01,-9.394828609750000226e+00,5.567769054319999210e-03,2.015865175050000034e-03,1.614654064179999945e-02,1.000000000000000000e+00
3.700980039999999804e-01,-2.615178699249999905e+00,5.064522693169999368e-01,-9.451102285639999323e+00,-1.181757729499999937e-02,4.267181269819999775e-03,9.676574263720000117e-04,1.000000000000000000e+00
3.750847010000000203e-01,-2.605264038950000138e+00,5.043486481009999967e-01,-9.404418860399999858e+00,7.662391755729999580e-03,9.791916236280000241e-03,-9.150187252089999213e-04,1.000000000000000000e+00
3.800997740000000014e-01,-2.610092189760000014e+00,5.050725419289999740e-01,-9.450312012039999487e+00,-8.313634432850000935e-03,9.125156328079999518e-03,9.365348145369999794e-03,1.000000000000000000e+00
3.852397060000000151e-01,-2.605419814040000226e+00,5.162075743299999742e-01,-9.415914652399999696e+00,-5.770899588239999370e-04,-1.272227894510000006e-02,-1.507967826909999923e-03,1.000000000000000000e+00
3.900615630000000000e-01,-2.614010239990000262e+00,4.885355043550000387e-01,-9.450435346160000805e+00,-2.288873074579999970e-04,1.100348541509999943e-03,-5.838129669430000210e-03,1.000000000000000000e+00
3.952518990000000176e-01,-2.630146259019999988e+00,5.184108930599999887e-01,-9.436210421449999330e+00,-9.277440258300000174e-04,9.026823099700001084e-04,-4.115390591319999930e-03,1.000000000000000000e+00
4.001022109999999854e-01,-2.579913324600000113e+00,5.087265343919999960e-01,-9.441884959960001211e+00,1.033481210470000092e-02,-2.255710028109999751e-02,-1.100995577870000214e-02,1.000000000000000000e+00
4.051132170000000254e-01,-2.604028651940000216e+00,4.979927397360000008e-01,-9.444258703350000062e+00,7.561000529680000394e-03,5.739971995350000300e-03,-4.481057170779999613e-03,1.000000000000000000e+00
4.101109479999999752e-01,-2.635418646459999792e+00,4.981372262409999863e-01,-9.436474040830001186e+00,9.954162873329999370e-03,8.198037743570000743e-03,7.084659766409999795e-03,1.000000000000000000e+00
4.150589610000000040e-01,-2.600214354349999812e+00,5.175401746409999948e-01,-9.395891270549999064e+00,6.204990204419999229e-04,3.845098195599999658e-03,-2.133302157739999996e-03,1.000000000000000000e+00
4.200563900000000017e-01,-2.597523800089999835e+00,4.862863371880000174e-01,-9.430489121200000824e+00,-9.005733882080001413e-04,9.196163155139998541e-04,-8.759068325159999682e-03,1.000000000000000000e+00
4.250544259999999852e-01,-2.605631703219999817e+00,4.873942984300000392e-01,-9.438916757799999502e+00,-2.128339605410000269e-03,-4.661397542799999676e-04,-1.003381051120000138e-02,1.000000000000000000e+00
4.302557920000000258e-01,-2.633829039179999665e+00,5.205797615320000293e-01,-9.458995669239998350e+00,-1.086344476789999998e-03,4.951234906909999893e-03,-4.617359023540000378e-03,1.000000000000000000e+00
4.350604470000000168e-01,-2.606169463360000105e+00,5.278795996840000004e-01,-9.432174882330000898e+00,-3.889245446770000277e-03,1.621256815270000120e-03,-3.445014823229999943e-03,1.000000000000000000e+00
4.402543300000000270e-01,-2.586994515029999775e+00,5.067754733899999531e-01,-9.392928329089999195e+00,-5.334364250300000637e-03,-2.839121501890000052e-03,-7.287033833560000590e-03,1.000000000000000000e+00
4.451320440000000045e-01,-2.602156428329999827e+00,5.016971472119999831e-01,-9.426534246090000124e+00,-2.413402078670000023e-03,2.075092680750000029e-02,7.848390378060001501e-04,1.000000000000000000e+00
4.500938950000000216e-01,-2.582708508279999648e+00,4.943479169600000223e-01,-9.448158633400000284e+00,4.604764748359999743e-03,-2.255056286229999846e-03,2.507917582989999724e-03,1.000000000000000000e+00
4.550700120000000237e-01,-2.626735573790000000e+00,4.853504080449999591e-01,-9.409608830259999834e+00,6.632530130450000174e-04,-1.481470838190000056e-02,4.274274688210000055e-04,1.000000000000000000e+00
4.600797260000000222e-01,-2.598708333699999873e+00,5.218064537830000571e-01,-9.450230763500000464e+00,6.498020607979999863e-03,-1.388996653260000068e-02,1.380586065349999987e-03,1.000000000000000000e+00
4.652202269999999862e-01,-2.636357973139999977e+00,4.946685637489999787e-01,-9.433886946939999518e+00,5.864473991100000068e-03,5.525759421290000160e-03,1.034985296429999889e-02,1.000000000000000000e+00
4.702553400000000217e-01,-2.549915953479999775e+00,4.968279702730000191e-01,-9.441910678919999356e+00,1.204150263220000149e-02,-8.729794062670000188e-03,-3.397901076820000494e-03,1.000000000000000000e+00
4.750756130000000077e-01,-2.618789290959999683e+00,5.194562008619999505e-01,-9.447420382260000693e+00,1.054670196029999958e-02,4.158411175010000294e-03,7.169078569860000069e-03,1.000000000000000000e+00
4.800700210000000134e-01,-2.615081376350000042e+00,4.953715974519999898e-01,-9.489618771039999956e+00,3.686652053149999816e-04,8.308000396939998512e-04,5.826569627970000845e-03,1.000000000000000000e+00
4.852344279999999954e-01,-2.606854815280000182e+00,4.956891389689999650e-01,-9.450431839029999281e+00,1.047902507709999988e-03,-2.831712597979999836e-03,3.397377207880000142e-03,1.000000000000000000e+00
4.900906050000000125e-01,-2.625778419199999991e+00,4.872684435610000198e-01,-9.455557511480000343e+00,-6.609066622330000496e-04,-4.043974913659999747e-03,1.786251366140000074e-02,1.000000000000000000e+00
4.952615519999999938e-01,-2.558307641989999937e+00,5.053696982449999986e-01,-9.426962700639998971e+00,-5.837324075399999250e-03,1.214163610710000023e-03,-3.715743310750000035e-03,1.000000000000000000e+00
5.000985119999999950e-01,-2.629724526469999990e+00,5.125552258350000168e-01,-9.423280797260000341e+00,-7.150030229239999306e-03,6.461888551710000001e-04,8.743064478040001725e-03,1.000000000000000000e+00
5.052553360000000549e-01,-2.600757082919999963e+00,4.991951377959999991e-01,-9.458718605860001460e+00,-2.420527394860000174e-03,-6.210549734529999429e-03,2.002091612670000350e-03,1.000000000000000000e+00
5.100778719999999877e-01,-2.628297124019999931e+00,5.150118252069999514e-01,-9.413791084380001450e+00,2.838353160769999800e-03,5.121052265169999743e-03,1.437824964520000200e-02,1.000000000000000000e+00
5.152309400000000261e-01,-2.638993874600000122e+00,4.733096589760000250e-01,-9.443018347899998943e+00,-1.079442817720000121e-02,3.343403805049999862e-04,6.200490985069999871e-03,1.000000000000000000e+00
5.200548830000000233e-01,-2.619249309690000249e+00,5.019257318029999304e-01,-9.421516710189999699e+00,2.416259609159999815e-03,-9.795979596669999664e-03,4.692865535619999799e-03,1.000000000000000000e+00
5.250830170000000408e-01,-2.576365861249999778e+00,4.849174234549999962e-01,-9.450852694789999120e+00,-1.761343702669999900e-02,9.529327973719999359e-03,-4.220309667289999511e-03,1.000000000000000000e+00
5.300324050000000398e-01,-2.646420225209999977e+00,4.753569834279999795e-01,-9.460043132460000948e+00,8.141559548680000341e-03,1.029057428239999947e-02,1.761616766449999871e-02,1.000000000000000000e+00
5.350582919999999909e-01,-2.567979141179999925e+00,5.136012277560000339e-01,-9.434407755949999697e+00,1.124250516300000051e-02,6.233625113960000741e-03,5.297762807460000035e-03,1.000000000000000000e+00
5.400588240000000484e-01,-2.609380826619999816e+00,4.756735385629999868e-01,-9.437578202679999251e+00,1.204188447450000102e-02,-5.214940756560000786e-03,-9.125178679820000055e-03,1.000000000000000000e+00
5.450557790000000180e-01,-2.651261235500000257e+00,5.065639860630000157e-01,-9.429145305369999619e+00,-6.140836514530000415e-03,-2.976727904749999938e-03,1.332329586150000043e-02,1.000000000000000000e+00
5.502392820000000517e-01,-2.534347505209999962e+00,4.899236342450000170e-01,-9.423367306489998541e+00,-1.015551621089999914e-03,-3.923344425860000526e-03,-1.847563497720000267e-02,1.000000000000000000e+00
5.551015080000000212e-01,-2.602295836800000206e+00,5.006092423769999966e-01,-9.419131860880000318e+00,-1.026634359729999921e-03,-2.575987949969999868e-03,-7.607016246770001433e-03,1.000000000000000000e+00
5.600526059999999529e-01,-2.625970434640000128e+00,5.125955213130000132e-01,-9.421859824540000261e+00,1.085210475140000125e-03,-6.312190089369999323e-04,-1.044243806969999975e-03,1.000000000000000000e+00
5.650500400000000312e-01,-2.570510705479999825e+00,5.206983098780000319e-01,-9.430301489670000592e+00,-1.071267016230000035e-02,-1.463754940779999833e-02,-1.350842416289999969e-03,1.000000000000000000e+00
5.700592930000000225e-01,-2.575870478950000209e+00,5.061833892479999930e-01,-9.463240467200000339e+00,-6.451391149310000891e-03,1.972405053680000020e-02,-5.190246272829999834e-03,1.000000000000000000e+00
5.752418379999999498e-01,-2.603718270819999958e+00,4.754258839450000163e-01,-9.452833054950000147e+00,6.552798440680001040e-04,8.409535512330000790e-04,-6.052243523300000240e-03,1.000000000000000000e+00
5.800741600000000053e-01,-2.617602419259999813e+00,4.765165652589999912e-01,-9.455819961810000507e+00,1.089133438649999945e-03,1.129545271400000158e-04,1.054094173010000114e-02,1.000000000000000000e+00
5.852741609999999595e-01,-2.558894209710000034e+00,4.983155054169999820e-01,-9.420696041459999392e+00,1.019258983429999861e-03,-3.750783856960000079e-03,-1.477080397310000064e-02,1.000000000000000000e+00
5.902453549999999716e-01,-2.621316763609999878e+00,5.146474123409999768e-01,-9.452220476009999928e+00,-3.984125796709999875e-03,7.194941863420000264e-03,-1.456007594239999920e-03,1.000000000000000000e+00
5.950659640000000028e-01,-2.614185888819999803e+00,4.933609517499999431e-01,-9.435532376060001170e+00,1.992163248360000020e-03,-6.103641819210000111e-03,1.112240180370000116e-02,1.000000000000000000e+00
6.001129560000000307e-01,-2.580933607560000009e+00,4.742651696029999697e-01,-9.451491577220000551e+00,-7.516170153389999239e-04,2.006423845890000293e-02,-3.801862476389999967e-03,1.000000000000000000e+00
6.050582970000000227e-01,-2.605089266909999868e+00,4.981091326569999644e-01,-9.440095153930000649e+00,9.152552112940000664e-03,-2.457282505929999587e-03,-1.000186894089999975e-04,1.000000000000000000e+00
6.101077179999999656e-01,-2.604394854900000222e+00,5.157175257909999422e-01,-9.462051549679999951e+00,1.208415348079999903e-02,-2.383908489719999916e-03,9.462811052799998540e-03,1.000000000000000000e+00
6.152221890000000304e-01,-2.588787535929999883e+00,5.088017185200000014e-01,-9.451407406060001293e+00,9.421393275259998951e-03,5.853850394490000414e-03,-7.274935953319999066e-03,1.000000000000000000e+00
6.202261180000000484e-01,-2.652566765140000449e+00,5.090527341389999849e-01,-9.423868826279999666e+00,1.158371940260000121e-02,1.024398580190000012e-02,6.717839743939998769e-03,1.000000000000000000e+00
6.252166540000000383e-01,-2.555226334849999947e+00,4.765864886899999764e-01,-9.445260573869999732e+00,-7.223175838590000473e-03,2.607678761710000188e-03,-5.427029915149999932e-03,1.000000000000000000e+00
6.301792139999999875e-01,-2.573677352819999875e+00,5.017733542530000701e-01,-9.421561133860000936e+00,3.583628218619999868e-03,9.829198010270000924e-03,-8.532534353440000829e-03,1.000000000000000000e+00
6.352462359999999642e-01,-2.625250888190000076e+00,4.839093789239999888e-01,-9.436092932560001145e+00,-6.902714958410001000e-04,-8.278858847919999889e-03,-1.526521518829999935e-04,1.000000000000000000e+00
6.402381539999999482e-01,-2.616157773409999887e+00,4.610243240290000100e-01,-9.463737310810000025e+00,2.875789068639999623e-03,9.184731170540002057e-03,1.007571443920000052e-02,1.000000000000000000e+00
6.452418599999999449e-01,-2.584856041699999718e+00,4.970872057310000147e-01,-9.432127536060001205e+00,-4.984403494749999747e-03,-7.016308605670000011e-03,-1.056624017660000130e-02,1.000000000000000000e+00
6.501137439999999934e-01,-2.640618553189999940e+00,5.007319919740000902e-01,-9.423770042080001019e+00,3.406934440139999885e-03,-2.152050845320000166e-03,-3.345966571940000266e-03,1.000000000000000000e+00
6.550942239999999472e-01,-2.602181855029999991e+00,4.550662193419999779e-01,-9.466007593829999678e+00,4.207748919730000363e-03,6.843673065300000420e-03,-1.516758813520000058e-03,1.000000000000000000e+00
6.600910840000000501e-01,-2.585239195800000278e+00,4.968326829810000289e-01,-9.449662608220000592e+00,2.259072847659999907e-03,-4.224679432809999601e-04,-7.349473889920000134e-03,1.000000000000000000e+00
6.651108730000000469e-01,-2.617957808569999933e+00,5.292197257140000000e-01,-9.421073058080001061e+00,3.513344563540000748e-04,-1.679073832929999996e-02,1.469464041289999981e-04,1.000000000000000000e+00
6.702538649999999487e-01,-2.587429691580000135e+00,5.150189125349999841e-01,-9.418194872289999964e+00,1.859583705659999600e-02,-9.504751302299999788e-03,-1.474549248810000032e-02,1.000000000000000000e+00
6.750932240000000473e-01,-2.615488788109999962e+00,4.968693617289999809e-01,-9.444927396400000674e+00,-1.107348222289999962e-02,2.752311294900000160e-03,-4.538473673160000298e-03,1.000000000000000000e+00
6.802403049999999896e-01,-2.641443605840000153e+00,5.125874841369999491e-01,-9.420805931569999458e+00,1.081163808699999937e-02,-1.053359359499999974e-02,1.235581748189999891e-02,1.000000000000000000e+00
6.852358640000000278e-01,-2.623594937680000072e+00,5.173871760360000405e-01,-9.419406001649999638e+00,-8.013140410179999534e-03,-6.333389319479999779e-03,1.592197641730000099e-02,1.000000000000000000e+00
6.901064630000000033e-01,-2.569578977589999980e+00,4.913319666729999979e-01,-9.400539388610001268e+00,-2.019751351330000000e-03,1.522439904509999969e-02,-9.199953638019998676e-04,1.000000000000000000e+00
6.952334510000000023e-01,-2.602535198509999592e+00,4.623993387100000518e-01,-9.437819610220000044e+00,-1.392671605570000018e-03,-2.352770790459999747e-02,7.902203127739999139e-03,1.000000000000000000e+00
7.000932890000000075e-01,-2.548835464769999781e+00,4.754384146329999616e-01,-9.440480353859999951e+00,3.150555770840000099e-03,5.826291162519999780e-04,-7.503526285289999903e-03,1.000000000000000000e+00
7.052140230000000232e-01,-2.615800338279999693e+00,5.098281754910000130e-01,-9.463798101080000080e+00,-3.147786483170000177e-03,-1.551862992349999949e-02,-2.547030802820000189e-03,1.000000000000000000e+00
7.101016660000000202e-01,-2.638983060940000236e+00,5.089690744439999692e-01,-9.430077033270000797e+00,6.115411873910000205e-03,3.304674522949999776e-03,8.779717609290001515e-03,1.000000000000000000e+00
7.152401299999999740e-01,-2.606444773170000229e+00,4.910281979530000118e-01,-9.444079255129999240e+00,-2.362060546879999820e-02,-4.225186537950000217e-03,2.981543075290000598e-04,1.000000000000000000e+00
7.202489349999999790e-01,-2.575771402490000028e+00,5.100161723439999850e-01,-9.431167751110001163e+00,-1.099417731169999995e-02,5.674757063390000605e-03,-1.686749747020000086e-03,1.000000000000000000e+00
7.251020519999999969e-01,-2.626682966820000242e+00,4.881107030709999628e-01,-9.499416526950000161e+00,1.488825399430000057e-02,-3.671298036350000189e-03,8.588859811430000352e-03,1.000000000000000000e+00
7.302438089999999660e-01,-2.550531455029999783e+00,4.930525799200000114e-01,-9.470192186030001125e+00,9.187597781420000359e-03,-9.578873869030000206e-04,-1.011924818159999975e-02,1.000000000000000000e+00
7.352516319999999883e-01,-2.641948048229999735e+00,4.994164889289999798e-01,-9.431406236039999058e+00,-6.317523773760000752e-03,3.201447194439999751e-03,6.298451218749999934e-03,1.000000000000000000e+00
7.402511619999999626e-01,-2.581610191639999830e+00,5.029707473439999355e-01,-9.431538337989998411e+00,9.470387594769999343e-04,-2.610693220050000225e-03,-6.188948638740000667e-03,1.000000000000000000e+00
7.452407380000000137e-01,-2.605515091109999570e+00,5.209677379360000415e-01,-9.411537167969999729e+00,1.680107787250000040e-02,-4.832302220170000412e-03,-3.872012952340000026e-03,1.000000000000000000e+00
7.502346090000000522e-01,-2.645952899959999716e+00,4.565639836199999468e-01,-9.440271095019999947e+00,-4.471585620189999326e-03,1.190487109120000157e-02,8.122941479090000153e-03,1.000000000000000000e+00
7.551023079999999998e-01,-2.602862823030000161e+00,5.126298985059999369e-01,-9.419369761289999587e+00,4.418699536470000258e-03,-1.019299495970000082e-03,1.077762339259999988e-03,1.000000000000000000e+00
7.600937159999999748e-01,-2.629521697379999967e+00,5.098614201739999352e-01,-9.457973924970000112e+00,1.216772827319999913e-03,-1.642869319769999902e-03,1.547957398000000123e-02,1.000000000000000000e+00
7.650856569999999746e-01,-2.551480718579999696e+00,5.040477289260000271e-01,-9.439088022720000026e+00,-7.368503604079999769e-03,9.816077537829998728e-03,-5.660416558379999935e-03,1.000000000000000000e+00
7.700728860000000120e-01,-2.627175134250000266e+00,5.147976344669999982e-01,-9.443277875619999762e+00,4.101623781029999777e-03,1.601263647900000265e-03,2.847025170920000365e-04,1.000000000000000000e+00
7.750398160000000480e-01,-2.562952252929999730e+00,5.088933057940000504e-01,-9.423967025950000576e+00,2.216511406000000114e-03,-4.400836769489999481e-03,-8.845107629899999838e-03,1.000000000000000000e+00
7.800999259999999991e-01,-2.655295021059999705e+00,5.149718585220000033e-01,-9.419666698410001260e+00,2.869822550570000352e-03,1.935430569570000025e-03,1.574357226489999859e-02,1.000000000000000000e+00
7.852495200000000342e-01,-2.557386435490000220e+00,4.896232995909999830e-01,-9.454623445499999335e+00,-2.094871923329999844e-02,-3.515755757689999900e-03,-8.633127436039999669e-05,1.000000000000000000e+00
7.902386300000000530e-01,-2.583283677809999901e+00,4.765819221129999894e-01,-9.449751455549998624e+00,-2.686239778999999911e-03,1.329241087660000238e-03,-2.812711521979999879e-03,1.000000000000000000e+00
7.950693380000000143e-01,-2.573056006049999844e+00,4.920649936550000048e-01,-9.441905418230000180e+00,-1.016309019179999912e-02,2.577801002190000142e-03,-3.905008314179999902e-03,1.000000000000000000e+00
8.000971449999999541e-01,-2.631613993479999802e+00,5.174808091360000306e-01,-9.409124846130000108e+00,-5.894868634640000431e-03,-1.152973622079999858e-02,1.169514097270000011e-02,1.000000000000000000e+00
8.051110519999999937e-01,-2.559288761979999993e+00,5.085880027040000639e-01,-9.465749235149999663e+00,-9.138803929090000278e-03,-2.017954830079999717e-04,1.245857216420000147e-03,1.000000000000000000e+00
8.101260689999999487e-01,-2.596836694609999885e+00,4.790173325659999870e-01,-9.456140864330000895e+00,8.506243117149999908e-03,-4.405724816020000455e-03,-1.879970310260000105e-03,1.000000000000000000e+00
8.152123759999999608e-01,-2.649996622390000223e+00,5.054864199600000996e-01,-9.430630575500000390e+00,1.836477662439999978e-03,-4.503794480120000381e-03,1.076225750150000028e-02,1.000000000000000000e+00
8.201079249999999599e-01,-2.605055656899999850e+00,5.280504627390000261e-01,-9.432170790680000749e+00,6.710070185359999322e-03,-8.183994330470000314e-03,3.723979927599999941e-03,1.000000000000000000e+00
8.250709579999999654e-01,-2.595474174090000030e+00,5.100774740769999926e-01,-9.437502799349999805e+00,-1.249861530960000126e-02,3.118796739730000087e-04,3.845859784630000378e-03,1.000000000000000000e+00
8.300537559999999759e-01,-2.613005739120000115e+00,5.078189910929999940e-01,-9.427663542379999484e+00,-3.871168475599999839e-03,1.938888058069999920e-02,8.023710921410000252e-03,1.000000000000000000e+00
8.352494740000000473e-01,-2.576170046420000137e+00,5.483583240889999821e-01,-9.412711472450000727e+00,-4.147744271899999995e-03,6.495438516140000611e-03,-1.956689171490000323e-03,1.000000000000000000e+00
8.402390450000000177e-01,-2.609207808140000306e+00,4.981508894399999665e-01,-9.444339367370000460e+00,7.852268405259999959e-03,1.675621839240000162e-03,1.399616245180000012e-03,1.000000000000000000e+00
8.450622049999999552e-01,-2.609309222690000318e+00,5.126051659239999614e-01,-9.426347783609999809e+00,-1.316799968480000110e-02,-5.494611337780000090e-03,1.291579566899999981e-03,1.000000000000000000e+00
8.500620730000000291e-01,-2.621572199680000104e+00,5.125146015629999940e-01,-9.439293774419999394e+00,1.347016659569999887e-03,-2.025689929720000254e-02,4.368030931800000183e-03,1.000000000000000000e+00
8.550404719999999958e-01,-2.554079502900000076e+00,5.385755100150000363e-01,-9.425802424689999626e+00,5.564326420430001224e-03,2.429876709360000078e-03,4.987544845789999674e-03,1.000000000000000000e+00
8.600463050000000109e-01,-2.615611537709999990e+00,5.067433246860000295e-01,-9.414514137950000361e+00,-1.006396301090000008e-02,1.906396821140000225e-02,1.050340384240000015e-02,1.000000000000000000e+00
8.650892439999999795e-01,-2.576893099989999936e+00,4.862758523269999911e-01,-9.439650917299999833e+00,-3.500695340339999954e-03,9.385601151729998934e-04,3.424577880649999802e-04,1.000000000000000000e+00
8.701767550000000240e-01,-2.630418061690000364e+00,4.932594276039999892e-01,-9.464266303119998724e+00,8.804141543810000206e-03,9.609907865520000286e-03,8.955858647819999602e-03,1.000000000000000000e+00
8.750816759999999750e-01,-2.610039290530000056e+00,4.921973878630000465e-01,-9.455488537899999102e+00,5.272231064740000306e-03,-3.143515670670000376e-03,-1.399137545380000063e-04,1.000000000000000000e+00
8.800963920000000051e-01,-2.617154967759999895e+00,5.233489705170000228e-01,-9.427240933060001993e+00,-2.679460216309999688e-03,8.098858408630000075e-03,-2.828035736460000199e-03,1.000000000000000000e+00
8.852377529999999606e-01,-2.581067170809999922e+00,4.981757316200000063e-01,-9.433006656979999960e+00,-3.740888088940000269e-03,5.964636802669999634e-03,-3.389820922170000070e-03,1.000000000000000000e+00
8.902081490000000041e-01,-2.597992002129999811e+00,4.839519028909999854e-01,-9.439216617530000519e+00,-3.481417428699999650e-03,-3.303170902650000122e-03,-1.008972804990000000e-02,1.000000000000000000e+00
8.952255500000000366e-01,-2.613804488280000005e+00,4.935789053490000078e-01,-9.422834807050000094e+00,-6.899671629069999666e-03,1.850254135210000058e-03,-4.355350043619999993e-03,1.000000000000000000e+00
9.000885950000000468e-01,-2.626727098219999945e+00,5.055078280740000762e-01,-9.428227606010000983e+00,-3.297248855229999685e-03,5.622635595499999965e-03,-3.532097907740000022e-03,1.000000000000000000e+00
9.052131279999999780e-01,-2.612261058240000100e+00,4.781084375600000436e-01,-9.431700250549999609e+00,-3.454029094429999797e-03,-1.550944056360000108e-02,-8.483899757269999786e-03,1.000000000000000000e+00
9.100939639999999775e-01,-2.622391407109999850e+00,4.934837378790000173e-01,-9.426901910359999803e+00,-1.368073187769999928e-02,-5.428407806899999619e-03,1.016375981270000069e-02,1.000000000000000000e+00
9.152256490000000300e-01,-2.589742060170000304e+00,4.876575159440000307e-01,-9.424826273130001653e+00,-1.493949675930000181e-03,-3.352922853079999804e-03,-2.521980786699999904e-03,1.000000000000000000e+00
9.202330850000000062e-01,-2.639844061690000299e+00,5.160972092910000031e-01,-9.442553068480000533e+00,8.954674936830000001e-03,-2.361796563489999660e-03,3.835833631460000039e-03,1.000000000000000000e+00
9.252385920000000263e-01,-2.629199041290000149e+00,4.813967385160000112e-01,-9.460599012779999484e+00,-1.603394746779999991e-02,-1.295108161870000239e-02,1.177773065870000094e-02,1.000000000000000000e+00
9.301446169999999514e-01,-2.592847624970000098e+00,4.540512701459999967e-01,-9.455862047389999248e+00,-9.771415963770001614e-03,8.532300591470001055e-03,5.235715303569999160e-03,1.000000000000000000e+00
9.350724740000000423e-01,-2.611519592220000074e+00,5.353684210700000445e-01,-9.415230177270000667e+00,1.320605981160000121e-03,-2.052467316390000230e-03,-3.261089790609999779e-03,1.000000000000000000e+00
9.402287070000000524e-01,-2.621286076210000093e+00,4.778344429240000135e-01,-9.459414186910001021e+00,1.157298404720000055e-02,2.601243788380000217e-03,1.227001659569999879e-03,1.000000000000000000e+00
9.451756590000000013e-01,-2.605006264800000082e+00,4.866114409570000410e-01,-9.404783602060000192e+00,1.944803260269999806e-02,-5.211836658420000018e-03,6.135681178420000379e-04,1.000000000000000000e+00
9.502477950000000062e-01,-2.622342307269999839e+00,4.827133010069999952e-01,-9.442925408919998986e+00,2.966597676280000170e-04,1.564408885319999807e-03,8.753996342420000340e-03,1.000000000000000000e+00
9.550961719999999655e-01,-2.579523448499999816e+00,5.018193853519999914e-01,-9.430230178000000407e+00,-1.095847412939999869e-02,-9.240591898560000317e-04,1.174779608850000129e-04,1.000000000000000000e+00
9.600636019999999604e-01,-2.608273157640000228e+00,4.934447941080000177e-01,-9.438341003739999735e+00,-8.820056915280000825e-03,-1.932406984270000280e-02,3.010928630830000171e-03,1.000000000000000000e+00
9.650741520000000184e-01,-2.602531399120000088e+00,5.307474467380000061e-01,-9.397442007120000440e+00,-5.797470454130000846e-03,-2.850527176629999958e-03,-7.641002535819999518e-03,1.000000000000000000e+00
9.702213320000000474e-01,-2.610149765170000080e+00,4.601790688440000054e-01,-9.434472053349999499e+00,-6.528652738780000089e-05,-6.601278670130000456e-03,-4.671108443289999530e-03,1.000000000000000000e+00
9.750821509999999526e-01,-2.654928525829999941e+00,5.284032216990000030e-01,-9.390476844280000179e+00,-1.637800782920000031e-02,-3.126827301459999750e-03,1.504429429769999979e-02,1.000000000000000000e+00
9.802168759999999592e-01,-2.581889300849999902e+00,4.769351194640000235e-01,-9.424883556280001073e+00,-9.020843543110000293e-03,-1.305119507010000027e-02,7.073476444929999727e-04,1.000000000000000000e+00
9.851985770000000198e-01,-2.582830965609999918e+00,4.960137312810000143e-01,-9.412397584189999833e+00,-1.183149963620000120e-02,-8.675346150989998728e-03,-4.434765316549999989e-03,1.000000000000000000e+00
9.900529700000000322e-01,-2.631035609070000003e+00,4.733235779039999813e-01,-9.427415705099999599e+00,1.510450500060000123e-03,6.718284450470000425e-03,9.303200989959998710e-03,1.000000000000000000e+00
9.952263449999999567e-01,-2.622833013390000190e+00,5.041912655829999812e-01,-9.445900625339998413e+00,1.677937922070000002e-03,4.728537984189999134e-03,4.445374011989999471e-03,1.000000000000000000e+00
1.000077356999999889e+00,-2.596509362349999961e+00,4.925511697370000275e-01,-9.398196040360000225e+00,-1.281481143089999858e-02,1.094533363359999822e-03,8.709168061609999859e-03,1.000000000000000000e+00
1.005226871999999938e+00,-2.592042446069999784e+00,5.090609174460000164e-01,-9.433939553910001052e+00,-1.294948533180000083e-02,-7.213497534390000271e-03,-1.301052235070000208e-02,1.000000000000000000e+00
1.010174426000000070e+00,-2.606673905749999687e+00,5.029433844130000164e-01,-9.436308036610000727e+00,-1.577191520479999951e-03,3.100452711809999901e-03,-5.973157007249999852e-03,1.000000000000000000e+00
1.015053106000000094e+00,-2.633386556109999610e+00,4.804286606689999739e-01,-9.435506072580000847e+00,1.341437175870000172e-02,-4.114285577090000430e-03,3.519204910840000380e-03,1.000000000000000000e+00
1.020088126999999956e+00,-2.625464530939999985e+00,4.874924615749999801e-01,-9.448367892240000288e+00,-7.737508974970000279e-03,1.955778105180000156e-03,3.521925304090000111e-03,1.000000000000000000e+00
1.025169178999999930e+00,-2.579363289499999823e+00,4.899077425560000032e-01,-9.434735672729999578e+00,-1.309704780580000019e-02,1.579940505329999884e-02,-8.350169286129999202e-03,1.000000000000000000e+00
1.030104797999999988e+00,-2.653777602229999921e+00,4.780327419749999529e-01,-9.438961765989999364e+00,-8.323798887429999585e-03,-7.020712364460001157e-04,9.684486314649999594e-03,1.000000000000000000e+00
1.035207433999999926e+00,-2.582384390890000159e+00,5.005235003230000812e-01,-9.445517178979999429e+00,-2.227041870360000134e-03,-2.081356942650000250e-02,-1.183980377390000168e-03,1.000000000000000000e+00
1.040247417000000008e+00,-2.581978148170000154e+00,5.053358325079999602e-01,-9.440678506779999424e+00,5.663784220810000325e-03,5.052961409090000501e-03,-1.404381915929999933e-02,1.000000000000000000e+00
1.045193792999999927e+00,-2.603885444079999889e+00,4.814574557269999944e-01,-9.445651034500000875e+00,2.495914231990000029e-04,-1.623451896009999937e-02,-9.227298200129999475e-03,1.000000000000000000e+00
1.050241639000000005e+00,-2.644503285669999926e+00,5.160135495950000095e-01,-9.453218254880001226e+00,8.802167139950000871e-03,-7.060935720800000370e-03,-1.730162301100000117e-03,1.000000000000000000e+00
1.055235391000000078e+00,-2.643488847929999608e+00,5.158759312230000171e-01,-9.467636071810000331e+00,-1.615854352709999997e-02,-1.364843454210000126e-02,7.060377392919999981e-03,1.000000000000000000e+00
1.060222776000000033e+00,-2.619844937489999914e+00,4.801351576150000300e-01,-9.468939555619998671e+00,-2.499051624910000012e-03,6.716409698130001299e-04,1.020933687689999994e-02,1.000000000000000000e+00
1.065110323000000081e+00,-2.577219555470000145e+00,5.470587857980000468e-01,-9.431351290989999470e+00,-1.872984319929999961e-02,9.548894595349998946e-04,-6.551581434909999405e-03,1.000000000000000000e+00
1.070254556000000079e+00,-2.552767543519999904e+00,5.003480706909999576e-01,-9.456880869039999027e+00,-4.960603080689999882e-03,8.564284071329999332e-03,-2.155669033530000292e-02,1.000000000000000000e+00
1.075242403999999929e+00,-2.675935073509999818e+00,5.150797758759999567e-01,-9.416721292610001015e+00,-8.600964210930000034e-03,-3.608662867920000086e-03,1.055169291789999873e-02,1.000000000000000000e+00
1.080064823000000063e+00,-2.582319508959999954e+00,4.992138424959999821e-01,-9.469824521769998782e+00,-9.664973244070000635e-03,3.994095139209999888e-03,-1.320718415079999951e-02,1.000000000000000000e+00
1.085132178000000058e+00,-2.605333012540000048e+00,4.753961463939999632e-01,-9.459849071200000736e+00,-1.970601081849999991e-02,-1.248768996450000043e-02,-8.942130953069999180e-03,1.000000000000000000e+00
1.090123415999999956e+00,-2.622075765279999970e+00,5.281040195570000373e-01,-9.425067096150000268e+00,-1.290130335840000003e-02,3.626113990320000303e-03,-6.030087359250000355e-03,1.000000000000000000e+00
1.095093300999999908e+00,-2.638711258270000304e+00,5.136978930640000440e-01,-9.440463402719998953e+00,-4.567859228700000412e-03,-1.871757209299999792e-03,5.223829764869999948e-03,1.000000000000000000e+00
1.100037898000000069e+00,-2.598341546219999909e+00,5.006633471850000516e-01,-9.433310608360001126e+00,1.208211760970000215e-02,7.042441517109999764e-03,-2.371160080659999708e-03,1.000000000000000000e+00
1.105225933000000049e+00,-2.618368727460000045e+00,4.935605659749999763e-01,-9.422974507779999342e+00,2.679820172490000180e-02,-3.662253264339999839e-03,8.130710572000000511e-03,1.000000000000000000e+00
1.110092622000000029e+00,-2.607999309140000221e+00,5.137001946190000723e-01,-9.442674064510001131e+00,7.391824852680000356e-03,5.822096019979999121e-03,6.730053573849999150e-04,1.000000000000000000e+00
1.115202934999999895e+00,-2.589887606120000019e+00,5.208109034069999810e-01,-9.431778576490000177e+00,-1.688103191549999993e-02,7.868129760029998754e-03,1.135024242099999872e-03,1.000000000000000000e+00
1.120234284999999996e+00,-2.636667769740000278e+00,4.973796858719999880e-01,-9.404377359339999742e+00,-7.749767042700000073e-03,1.057462114839999995e-02,8.214313536879999655e-03,1.000000000000000000e+00
1.125210282000000062e+00,-2.601572198700000005e+00,5.219773533699999524e-01,-9.440876659700000673e+00,6.054934114220000309e-03,1.878427108749999895e-03,6.700867321340000723e-03,1.000000000000000000e+00
1.130072460999999917e+00,-2.634792039000000141e+00,5.329026154779999969e-01,-9.424789448250001200e+00,-3.826947882770000142e-03,-7.700701244180000772e-04,1.064698025579999957e-02,1.000000000000000000e+00
1.135238248999999922e+00,-2.612805248109999923e+00,5.244075761919999579e-01,-9.434930903039999706e+00,4.619707819069999999e-03,-7.177015766499999019e-03,1.489006914199999913e-02,1.000000000000000000e+00
1.140084352999999995e+00,-2.586692609480000016e+00,5.078975727550000263e-01,-9.410562185459999895e+00,6.434912793339999694e-03,-1.109793130310000181e-02,-9.938827715810002322e-04,1.000000000000000000e+00
1.145211734999999953e+00,-2.631360895500000296e+00,4.838048956360000430e-01,-9.447250870910000486e+00,-9.815138764679999170e-03,2.537587890399999827e-03,3.816430456940000156e-03,1.000000000000000000e+00
1.150079615000000111e+00,-2.585959911290000246e+00,4.991256527560000156e-01,-9.450245376549998966e+00,-2.277404302730000156e-03,-9.843464009459998443e-03,2.072025556119999785e-03,1.000000000000000000e+00
1.155102236999999921e+00,-2.635686942009999534e+00,5.231587451749999396e-01,-9.436296346169999794e+00,1.355035137389999991e-02,5.942392162979999622e-03,8.208695799110000621e-03,1.000000000000000000e+00
1.160099578999999936e+00,-2.574339031600000105e+00,4.922876964949999823e-01,-9.425637589510001746e+00,1.482099201529999896e-02,3.459211671719999732e-03,-1.168240979310000011e-02,1.000000000000000000e+00
1.165098697999999988e+00,-2.637901110930000126e+00,5.038451190259999324e-01,-9.456142033369999922e+00,-9.467189200219999420e-03,5.456004291769998545e-04,1.125657372179999886e-02,1.000000000000000000e+00
1.170226573000000103e+00,-2.573270817840000113e+00,4.993760107879999799e-01,-9.426040909619999297e+00,3.726720344280000548e-03,5.979254841800000185e-03,-3.021509153770000119e-03,1.000000000000000000e+00
1.175223361000000022e+00,-2.674476106870000258e+00,5.029349088460000061e-01,-9.443966442409999829e+00,-9.709664620459999146e-03,-4.423893056810000203e-03,1.356396824120000011e-02,1.000000000000000000e+00
1.180075946999999958e+00,-2.627121065979999948e+00,5.352710616420000012e-01,-9.411343691219999030e+00,7.167415227739999499e-03,-1.867683837190000024e-03,1.485809311270000141e-02,1.000000000000000000e+00
1.185248598000000042e+00,-2.599545661309999645e+00,5.195151645080000602e-01,-9.445780798350000396e+00,3.082175273449999989e-03,-3.666515462100000157e-03,1.302872318770000037e-03,1.000000000000000000e+00
1.190090753000000001e+00,-2.579741767420000276e+00,5.253184804920000284e-01,-9.448030623110001969e+00,1.096732635050000002e-02,-8.131335489449999579e-03,-4.613908473399999655e-03,1.000000000000000000e+00
1.195214079999999957e+00,-2.617261935259999728e+00,5.148816594880000208e-01,-9.431430201439999550e+00,3.409632481630000319e-03,1.512493472549999844e-04,-9.153956547379998518e-03,1.000000000000000000e+00
1.200077918000000077e+00,-2.669983471620000159e+00,4.995488466040000075e-01,-9.421420264079999995e+00,-1.136127673089999852e-02,3.449299139900000293e-03,6.974095944319999400e-03,1.000000000000000000e+00
1.205026517000000075e+00,-2.628978384279999858e+00,5.206105585289999560e-01,-9.457647761760000549e+00,-1.911666989329999927e-02,-5.136004183439999739e-03,7.198248524219999847e-03,1.000000000000000000e+00
1.210056621000000110e+00,-2.626578921920000198e+00,5.193696185570000345e-01,-9.463602870769999953e+00,-1.304944138969999987e-02,-1.709702052180000001e-02,6.181842181829999734e-03,1.000000000000000000e+00
1.215217980000000031e+00,-2.565246501339999874e+00,5.182753935800000766e-01,-9.441697912960000494e+00,-7.108035497370000615e-03,4.673949442799999951e-03,-1.266432739790000067e-02,1.000000000000000000e+00
1.220224465000000036e+00,-2.649990192649999798e+00,5.209934203670000263e-01,-9.416848718380000705e+00,-3.070596605540000176e-03,-7.394033484159999794e-03,-5.937221460039999489e-03,1.000000000000000000e+00
1.225082057000000058e+00,-2.649420576069999811e+00,5.040699407580000457e-01,-9.438854213960000905e+00,-2.148679923269999643e-03,-6.853048689659999287e-04,1.192092709240000041e-02,1.000000000000000000e+00
1.230080628999999925e+00,-2.598200091919999899e+00,4.886751685540000611e-01,-9.436001162620000215e+00,5.208529066289999468e-03,-9.882273152469998878e-03,-2.560304012150000415e-03,1.000000000000000000e+00
1.235189188999999965e+00,-2.626922620790000273e+00,5.064188054389999749e-01,-9.441327910600000095e+00,1.911543868479999991e-02,-1.083548273890000066e-02,5.061535630380000622e-03,1.000000000000000000e+00
1.240095812999999936e+00,-2.612981773730000068e+00,5.353375144749999981e-01,-9.399694169960000067e+00,1.763048348950000158e-04,-4.170059226449999643e-03,4.042698536069999973e-03,1.000000000000000000e+00
1.245087816999999930e+00,-2.602790050059999860e+00,5.207021823349999856e-01,-9.434663776529999879e+00,2.251423429699999821e-04,-8.278697729109999598e-03,6.198467221110000140e-03,1.000000000000000000e+00
1.250117906999999917e+00,-2.590632287009999590e+00,5.110006898690000465e-01,-9.457184235899999791e+00,-1.256537903099999923e-02,5.685357376929999623e-03,8.233017288150001282e-04,1.000000000000000000e+00
1.255126160000000102e+00,-2.647532278099999914e+00,5.103731325550000530e-01,-9.410558678330000149e+00,1.352779660370000137e-02,-6.936495192350000498e-03,1.948206685480000089e-03,1.000000000000000000e+00
1.260242132999999987e+00,-2.615832194719999837e+00,4.933923698009999859e-01,-9.444142383500000903e+00,-1.144009083509999955e-02,1.288925297560000044e-02,-7.785781752319999131e-03,1.000000000000000000e+00
1.265074961000000053e+00,-2.612896433530000007e+00,5.314038282869999463e-01,-9.432535532330000194e+00,6.712949369100000736e-03,1.093875057999999997e-02,2.665344625709999919e-03,1.000000000000000000e+00
1.270276769000000083e+00,-2.599136203720000093e+00,5.003082136040000183e-01,-9.454786527110000449e+00,-1.794390263970000029e-03,-9.457595879210000875e-04,2.761539071800000328e-03,1.000000000000000000e+00
1.275108686999999907e+00,-2.590876032640000215e+00,5.097712576720000444e-01,-9.465281033119998355e+00,1.181143894790000030e-02,-1.727887894960000205e-03,-6.781164556739999703e-03,1.000000000000000000e+00
1.280120675000000041e+00,-2.676187879220000010e+00,5.280125053490000164e-01,-9.437850589880000030e+00,2.409030683339999975e-03,-7.214382290839999740e-03,4.180645570160000137e-03,1.000000000000000000e+00
1.285160802000000047e+00,-2.635364285930000161e+00,5.017543938249999780e-01,-9.448384843370000397e+00,9.155425243080000594e-03,-4.384382627900000259e-04,-5.902760662139999899e-03,1.000000000000000000e+00
1.290123125000000037e+00,-2.650171102170000292e+00,5.173211250620000090e-01,-9.434329430010000905e+00,1.411424833350000000e-03,1.060846494510000061e-03,-5.848601460459999270e-03,1.000000000000000000e+00
1.295228480000000015e+00,-2.607719323149999990e+00,5.207538029249999534e-01,-9.433157463629999739e+00,1.672994904220000134e-02,-4.792762454600000763e-03,-6.668153218920000631e-03,1.000000000000000000e+00
1.300135301999999937e+00,-2.622222772540000246e+00,4.836049160849999473e-01,-9.466202824139999805e+00,1.054827473129999957e-03,-1.218579523270000090e-02,-1.664888812230000056e-03,1.000000000000000000e+00
1.305116077000000097e+00,-2.619335526670000025e+00,5.112483444870000726e-01,-9.437471235169999417e+00,-6.422338541599999749e-03,2.642115578060000137e-05,-3.356420667840000031e-03,1.000000000000000000e+00
1.310126915999999975e+00,-2.617443721569999937e+00,4.946790851430000191e-01,-9.420010397280000447e+00,-3.410614561289999902e-03,-2.833432517950000042e-03,3.636704757809999800e-03,1.000000000000000000e+00
1.315248956000000025e+00,-2.636758370629999959e+00,5.161466744560000430e-01,-9.424178038360000897e+00,-7.033977657560000658e-03,3.117639804260000352e-03,7.227704394609998917e-03,1.000000000000000000e+00
1.320226853999999950e+00,-2.598972245329999708e+00,4.972767734860000233e-01,-9.401648811160001173e+00,6.509480997919999887e-03,-2.007309906179999964e-02,-3.689576871689999663e-03,1.000000000000000000e+00
1.325216844000000060e+00,-2.592885618900000022e+00,5.062250364329999863e-01,-9.457287696279999878e+00,-6.475033704189999545e-03,4.418432712550000689e-03,-5.515072494749999853e-03,1.000000000000000000e+00
1.330255138999999920e+00,-2.626513455470000036e+00,5.157969477020000193e-01,-9.445781382879999910e+00,8.084437809879999742e-03,-5.229651927949999918e-03,1.600196585060000010e-02,1.000000000000000000e+00
1.335115910000000072e+00,-2.589929107180000134e+00,5.111084976249999912e-01,-9.454135954249998974e+00,-1.024737302209999951e-02,-2.606073860079999825e-03,-1.317159389150000023e-03,1.000000000000000000e+00
1.340120970999999939e+00,-2.600409000140000426e+00,5.065586523009999453e-01,-9.429120755449998725e+00,1.434800215070000141e-02,-9.046852588649999596e-03,-1.207492686810000132e-02,1.000000000000000000e+00
1.345113326000000109e+00,-2.638284265020000241e+00,5.470611604180000143e-01,-9.409991107569998903e+00,-4.529426340010000648e-03,9.569381363690000059e-03,1.148093678060000018e-02,1.000000000000000000e+00
1.350133062999999911e+00,-2.598599028109999765e+00,5.304163150869999344e-01,-9.422076682160000161e+00,-9.481540881100000359e-03,1.005330216139999934e-02,-1.213350682519999911e-03,1.000000000000000000e+00
1.355092278000000094e+00,-2.604530171720000009e+00,4.923921432500000250e-01,-9.405923419740000568e+00,-2.842485555449999969e-04,-2.132614608849999621e-03,3.467149566860000011e-03,1.000000000000000000e+00
1.360258783999999999e+00,-2.609804604990000332e+00,5.235164725709999800e-01,-9.391253673879999653e+00,-1.092862221410000143e-03,3.009171457960000372e-03,7.429255638270000281e-04,1.000000000000000000e+00
1.365140790000000104e+00,-2.599970316459999875e+00,5.025149298679999488e-01,-9.476170091400000217e+00,2.003278583290000331e-02,8.785991929469999170e-03,-5.759317427869999973e-04,1.000000000000000000e+00
1.370137906999999933e+00,-2.579469380219999941e+00,5.087218216839999307e-01,-9.448607546210000763e+00,-1.374526601279999795e-02,-4.250074736769999563e-03,-1.530863903459999883e-02,1.000000000000000000e+00
1.375106670000000086e+00,-2.655926596959999664e+00,5.482114994969999877e-01,-9.421440137819999450e+00,5.377474240960000360e-03,7.285483181479999147e-03,8.694961667060000302e-03,1.000000000000000000e+00
1.380030332000000026e+00,-2.608899180590000366e+00,5.327560100810000421e-01,-9.433534480239998743e+00,3.158182371409999807e-03,-1.926418743099999773e-03,-7.285574451089999945e-03,1.000000000000000000e+00
1.385265114999999936e+00,-2.680335646550000117e+00,5.017945066390000486e-01,-9.440279862849999759e+00,-1.351732667540000120e-02,7.396888919170000430e-03,9.842706844210000194e-03,1.000000000000000000e+00
1.390101212999999891e+00,-2.646997732830000061e+00,5.518059437919999866e-01,-9.435752156289998638e+00,-9.690500795840001000e-03,8.584815077479998960e-03,7.951015606519999668e-03,1.000000000000000000e+00
1.395232891000000031e+00,-2.604514097370000059e+00,5.445048269990000467e-01,-9.441410328189999035e+00,-9.138621389870000417e-03,4.653065465390000474e-03,8.010738529260001380e-04,1.000000000000000000e+00
1.400114693999999993e+00,-2.617439629920000232e+00,4.942801489540000204e-01,-9.467617367110001680e+00,9.677450871099999843e-04,-1.940561924130000107e-03,5.891656037420000581e-03,1.000000000000000000e+00
1.405093056999999979e+00,-2.587657655120000122e+00,5.554140147539999850e-01,-9.423217084370000052e+00,-1.110342517500000070e-02,-1.444953028110000127e-02,-1.644548960030000131e-02,1.000000000000000000e+00
1.410137822000000041e+00,-2.605600723559999832e+00,5.314645820309999991e-01,-9.422044533460001148e+00,2.464460209010000194e-03,2.644164487720000002e-05,-5.430107936260000941e-03,1.000000000000000000e+00
1.415238578999999941e+00,-2.638069453229999972e+00,4.720796422569999984e-01,-9.439911614059999678e+00,-5.632685497400000650e-04,-7.327545434240000273e-03,-1.253605261450000188e-02,1.000000000000000000e+00
1.420257260000000077e+00,-2.618911163769999995e+00,5.122737785450000025e-01,-9.455442945189998838e+00,-6.379046011720000166e-03,4.544982686640000429e-03,-1.324010081590000151e-02,1.000000000000000000e+00
1.425228981999999922e+00,-2.643318752059999888e+00,4.786504354819999807e-01,-9.498867076379999830e+00,-6.000740686429999497e-04,2.740986458959999983e-02,-9.764175862070000392e-03,1.000000000000000000e+00
1.430252666999999978e+00,-2.622816939040000239e+00,5.112575141740000051e-01,-9.432944697659999989e+00,-2.149371197449999674e-03,4.238257184619999458e-03,-5.403460003439999708e-03,1.000000000000000000e+00
1.435264258999999987e+00,-2.635280699290000417e+00,5.244548128670000198e-01,-9.432173128760000580e+00,1.576458103950000023e-02,4.108672961590000179e-03,-9.828725829719999266e-03,1.000000000000000000e+00
1.440133394999999927e+00,-2.632829214490000069e+00,4.767290754980000322e-01,-9.434082177249999646e+00,7.547092391179999237e-04,5.648329854010000414e-03,3.011469263579999531e-03,1.000000000000000000e+00
1.445091300000000079e+00,-2.580954065820000309e+00,5.015468154879999529e-01,-9.446621340830001046e+00,-3.141314722599999887e-03,-2.458345610649999985e-03,-3.090871497990000175e-03,1.000000000000000000e+00
1.450123263999999912e+00,-2.650767899020000318e+00,5.315151066419999681e-01,-9.430575045919999511e+00,7.881647907199999456e-03,8.258416317399999707e-03,1.325264945629999955e-02,1.000000000000000000e+00
1.455087400000000031e+00,-2.564851656810000158e+00,5.217574270090000743e-01,-9.454636889510000586e+00,5.332430824639999498e-03,-3.886380698529999945e-03,-9.445021860299999267e-03,1.000000000000000000e+00
1.460208740999999977e+00,-2.653567758869999960e+00,5.074969560650000044e-01,-9.461126251519999641e+00,-5.998617270959999805e-04,-8.166600018739998690e-03,3.202867228539999726e-03,1.000000000000000000e+00
1.465127177000000058e+00,-2.609667242350000027e+00,5.066228766439999642e-01,-9.424175115749999776e+00,5.877732299270000370e-03,-1.709852949720000112e-03,-5.877303890880000367e-03,1.000000000000000000e+00
1.470259975000000052e+00,-2.613591430059999610e+00,5.184760307190000583e-01,-9.418999758929999189e+00,-4.069746064490000100e-04,-1.350403297689999928e-02,-6.505718920379999605e-04,1.000000000000000000e+00
1.475235775000000027e+00,-2.589664611019999896e+00,4.900318438600000936e-01,-9.405765014310000893e+00,-2.149352803830000165e-03,1.577556692060000029e-02,-6.007338874040000186e-03,1.000000000000000000e+00
1.480107904000000030e+00,-2.643360545379999760e+00,5.029478048600000140e-01,-9.410670906529999158e+00,6.173047702760000449e-03,-1.638750545679999900e-03,1.672285795210000023e-02,1.000000000000000000e+00
1.485110877000000107e+00,-2.637143862819999907e+00,5.148285410620000446e-01,-9.418657813630000319e+00,-8.726569823919999927e-03,-8.118907921020001445e-03,2.844269014890000308e-02,1.000000000000000000e+00
1.490127189000000074e+00,-2.530045716359999641e+00,4.908543392239999581e-01,-9.431737075430000061e+00,5.911788437520000550e-03,-6.950228475029998979e-03,-4.292691126469999792e-03,1.000000000000000000e+00
1.495248703999999984e+00,-2.591707515029999964e+00,4.979674226320000008e-01,-9.436423187419999081e+00,5.501310341060001129e-03,-1.948614977299999856e-02,-7.976486347620000139e-03,1.000000000000000000e+00
1.500139426999999914e+00,-2.600701261079999771e+00,4.990306314159999590e-01,-9.448535650020000176e+00,-8.235777728260000596e-03,-1.030257157979999963e-02,-4.033398814500000103e-03,1.000000000000000000e+00
1.505093548000000059e+00,-2.635269593379999886e+00,4.812388810730000022e-01,-9.454716968999999693e+00,-1.728536561129999719e-02,-1.108579454010000112e-03,2.738103270530000289e-03,1.000000000000000000e+00
1.510144887000000047e+00,-2.587627552239999851e+00,4.812933512070000086e-01,-9.448718020850000343e+00,-7.893827860239999421e-04,-1.385043654589999951e-02,-1.538091339170000009e-02,1.000000000000000000e+00
1.515238724999999897e+00,-2.621402396070000140e+00,4.979175556079999954e-01,-9.447933007949998796e+00,1.262630685230000174e-03,-8.396810851990000463e-03,-1.126229390499999990e-02,1.000000000000000000e+00
1.520235900999999945e+00,-2.599827108599999992e+00,4.871478493879999871e-01,-9.440587905890000187e+00,4.724197555330000159e-03,1.953656971450000099e-02,8.183135651050000496e-05,1.000000000000000000e+00
1.525198749000000076e+00,-2.647173089399999846e+00,4.848942252430000210e-01,-9.447418628690000375e+00,-1.072190050039999870e-02,-1.434496231380000091e-02,9.304240345950001365e-03,1.000000000000000000e+00
1.530248547000000015e+00,-2.580406368809999851e+00,5.186056849800000368e-01,-9.388837844910000285e+00,-1.322664041069999963e-02,-1.439263764769999933e-02,-1.124210422859999890e-03,1.000000000000000000e+00
1.535102748999999989e+00,-2.629553846079999868e+00,5.346120132120000257e-01,-9.467409861839998442e+00,-7.878281176090001087e-03,1.026990916579999941e-02,8.645767346020001229e-03,1.000000000000000000e+00
1.540101984000000090e+00,-2.589367089380000042e+00,4.897397655780000303e-01,-9.432298216450000439e+00,3.071693237869999645e-03,4.774193279449999959e-03,-5.444274283949999613e-03,1.000000000000000000e+00
1.545092628999999995e+00,-2.604389301949999957e+00,5.050714459509999532e-01,-9.438974040950000699e+00,3.597439732400000041e-03,-1.696613803510000143e-02,-1.387455849910000129e-03,1.000000000000000000e+00
1.550103315000000093e+00,-2.637729261490000088e+00,4.731637477000000258e-01,-9.430488536680000422e+00,-1.712027937169999887e-03,-1.338871382179999958e-02,5.061503034090000970e-04,1.000000000000000000e+00
1.555106303000000079e+00,-2.620320738309999786e+00,5.077802665180000119e-01,-9.405279276619999962e+00,6.682548671959999756e-03,2.862728899340000188e-03,7.265237625689999722e-03,1.000000000000000000e+00
1.560276911999999960e+00,-2.639341080599999945e+00,5.027172475069999757e-01,-9.446569902909999428e+00,9.151767939329999088e-03,3.536368953060000080e-03,1.626024395229999989e-02,1.000000000000000000e+00
1.565077955000000021e+00,-2.597588097500000082e+00,5.053812790849999681e-01,-9.412101816110000740e+00,-1.377717312429999931e-02,-4.267336800689999592e-03,5.866032559419999230e-03,1.000000000000000000e+00
1.570249569000000012e+00,-2.628276081230000116e+00,5.148157181129999760e-01,-9.428385426919998480e+00,-3.131109289820000439e-03,-1.647186116319999775e-03,2.632663119579999912e-03,1.000000000000000000e+00
1.575215768999999932e+00,-2.603773215879999992e+00,5.146850044049999795e-01,-9.436065460030000906e+00,-1.628733053800000136e-02,-1.714928820729999873e-02,-3.953018691389999922e-03,1.000000000000000000e+00
1.580247742000000066e+00,-2.598228441229999852e+00,4.574597634160000315e-01,-9.445587906130000988e+00,-4.112165886910000394e-03,3.342647338289999551e-03,-6.531515158709999894e-03,1.000000000000000000e+00
1.585103726000000046e+00,-2.578219380159999741e+00,4.884050829079999989e-01,-9.436736491160001350e+00,-1.751235686240000186e-02,-1.208272762599999980e-02,-1.111271418629999896e-02,1.000000000000000000e+00
1.590121810999999941e+00,-2.611386613490000119e+00,5.062461522860000063e-01,-9.440207382140000547e+00,-6.115716416389999945e-03,-7.132679224010000062e-03,-2.913096919660000065e-03,1.000000000000000000e+00
1.595051788999999998e+00,-2.609931446240000064e+00,4.847374272459999967e-01,-9.454182716000000042e+00,-6.780401337889999970e-03,-3.045187704270000198e-02,1.302098389709999962e-03,1.000000000000000000e+00
1.600091413999999990e+00,-2.639595932150000213e+00,4.823370150410000168e-01,-9.466587439539999593e+00,1.012890040870000063e-02,-2.329020295289999706e-03,8.399851620199998842e-03,1.000000000000000000e+00
1.605096757999999957e+00,-2.617111420880000150e+00,5.576909467100000795e-01,-9.414888816479999534e+00,-8.043252862989999641e-03,-2.355617471039999928e-05,8.386945351960000891e-03,1.000000000000000000e+00
1.610087083000000030e+00,-2.627267780970000022e+00,5.182633012830000219e-01,-9.434900507900000122e+00,-9.084528312089999377e-03,8.144052699209999510e-03,1.381069421770000048e-02,1.000000000000000000e+00
1.615227597000000070e+00,-2.562247904049999914e+00,5.180924382279999962e-01,-9.446227957599999669e+00,-1.804041489959999980e-02,3.349519567559999886e-03,-3.564932383600000112e-03,1.000000000000000000e+00
1.620245775999999971e+00,-2.630211433209999949e+00,5.420693434800000210e-01,-9.442734270269999897e+00,-2.235578373070000111e-02,-5.072914063930000599e-03,-8.657550439240000242e-03,1.000000000000000000e+00
1.625212619000000025e+00,-2.647795312950000035e+00,4.893881025959999631e-01,-9.460601935389998829e+00,-1.128508709369999878e-03,-1.328221987929999886e-04,2.221115492279999992e-02,1.000000000000000000e+00
1.630098762000000034e+00,-2.557603293109999676e+00,5.230835975790000258e-01,-9.422199431760001076e+00,-2.621849998829999927e-03,7.461795583369999242e-03,-1.117169973439999936e-03,1.000000000000000000e+00
1.635224951999999954e+00,-2.665620600240000027e+00,5.279624556620000631e-01,-9.423540324970000270e+00,6.328561808909999656e-03,-1.637732796370000229e-02,1.175594329829999889e-02,1.000000000000000000e+00
1.640087598000000035e+00,-2.542460084520000052e+00,4.763984187720000096e-01,-9.449766068600000679e+00,3.665750380609999852e-03,5.457542836669999897e-03,-1.117532700299999834e-02,1.000000000000000000e+00
1.645086335000000011e+00,-2.625283913680000136e+00,4.846640697490000038e-01,-9.463654893220001085e+00,-3.927951911459999978e-04,-1.057814434170000102e-02,-3.711441531780000245e-04,1.000000000000000000e+00
1.650086844999999913e+00,-2.627797065540000254e+00,5.088426715849999615e-01,-9.427426226499999729e+00,6.659981794659999843e-03,-1.609371276570000040e-03,9.837816469369998259e-04,1.000000000000000000e+00
1.655095479000000092e+00,-2.590666773799999767e+00,5.015748360070000356e-01,-9.427259637760000643e+00,7.736539933830000049e-03,-1.232961425559999866e-03,2.259367611260000054e-03,1.000000000000000000e+00
1.660234662999999999e+00,-2.641526023429999981e+00,5.635562220149999968e-01,-9.432268405830001257e+00,1.494585257020000085e-02,-1.275377534329999972e-02,4.956857766960000126e-03,1.000000000000000000e+00
1.665096322999999989e+00,-2.600783094150000085e+00,5.159212682020000162e-01,-9.425688442919998522e+00,1.043076999490000038e-02,-6.748348008840000280e-03,2.969853580000000014e-03,1.000000000000000000e+00
1.670229232000000064e+00,-2.642525848120000020e+00,5.101431962569999978e-01,-9.421017528500000182e+00,-2.652973402290000234e-03,-4.228143021460000622e-03,3.923654090610000783e-03,1.000000000000000000e+00
1.675241771000000046e+00,-2.610157656220000177e+00,5.039191706429999584e-01,-9.443139928460000831e+00,-5.566961597650000280e-03,2.822408685459999733e-03,4.924191161989999828e-04,1.000000000000000000e+00
1.680146324000000080e+00,-2.609562612930000025e+00,5.110127091009999400e-01,-9.449088607729999367e+00,1.301772077569999988e-03,-1.667543197980000079e-03,-4.412110894920000422e-03,1.000000000000000000e+00
1.685120312000000009e+00,-2.648335118920000397e+00,5.252788791340000651e-01,-9.459270394520000735e+00,7.505137939010000231e-03,3.061121096830000162e-03,-1.035674940790000040e-03,1.000000000000000000e+00
1.690094224999999950e+00,-2.640042506869999972e+00,5.075261456260000692e-01,-9.440642266419999373e+00,-2.244513481860000315e-03,-7.843256928029999908e-03,8.364029228689999484e-03,1.000000000000000000e+00
1.695111846000000089e+00,-2.598205937140000366e+00,5.193150388260000527e-01,-9.453784656589999003e+00,1.299385796300000021e-03,2.805713796989999648e-03,-4.709326662120000111e-03,1.000000000000000000e+00
1.700064806000000095e+00,-2.602105574919999942e+00,4.992821950249999863e-01,-9.423245141419998916e+00,-8.533446118239999476e-03,7.497819140550000643e-03,-4.935434088109999159e-03,1.000000000000000000e+00
1.705054529000000096e+00,-2.637110252809999889e+00,5.086868234360000240e-01,-9.446440723569999420e+00,9.035729803139999974e-03,1.496349275110000002e-02,-7.800851017240000148e-05,1.000000000000000000e+00
1.710100846000000008e+00,-2.655442905099999695e+00,4.932198262460000260e-01,-9.447480588010000346e+00,-4.793081432579999850e-03,-5.982769653199999926e-03,1.338670402770000128e-02,1.000000000000000000e+00
1.715205977000000104e+00,-2.617425309129999711e+00,5.457312269890000067e-01,-9.426445983289999830e+00,-9.083073586229999108e-03,-2.042390406129999836e-05,8.538885042069999792e-03,1.000000000000000000e+00
1.720250972000000100e+00,-2.575717918740000112e+00,5.216512266889999916e-01,-9.446324988230001551e+00,9.575722739100000006e-03,-1.625932194290000132e-02,-7.192655466500000793e-04,1.000000000000000000e+00
1.725223131999999993e+00,-2.630216401640000257e+00,4.989612194420000035e-01,-9.465801257599999019e+00,1.397406682370000083e-02,1.181004475799999828e-02,6.616507191210000728e-03,1.000000000000000000e+00
1.730260683000000022e+00,-2.606262110079999861e+00,5.122627822269999465e-01,-9.447521504539999171e+00,-1.889756415040000012e-03,-4.441706929359999674e-03,-6.668865680689999541e-03,1.000000000000000000e+00
1.735085191000000027e+00,-2.610871065180000006e+00,5.264956345119999881e-01,-9.436784421949999668e+00,1.312795211560000052e-03,3.021603217349999853e-03,1.439426559950000156e-03,1.000000000000000000e+00
1.740084074000000092e+00,-2.605522397629999709e+00,4.777035100209999774e-01,-9.447780447739999587e+00,-3.744571004059999656e-03,-7.710932753979999298e-03,-3.357144538310000148e-03,1.000000000000000000e+00
1.745089474000000029e+00,-2.620348210840000025e+00,4.910280152900000084e-01,-9.424868358710000393e+00,-3.506184089929999942e-03,1.025104150179999805e-02,-6.552548147739999974e-03,1.000000000000000000e+00
1.750099392999999948e+00,-2.664119548029999951e+00,5.158788903650000091e-01,-9.444953699880000997e+00,-2.068763133140000049e-04,2.299958141520000096e-03,6.034708116199999015e-03,1.000000000000000000e+00
1.755085975999999937e+00,-2.622809340259999900e+00,5.041266759139999554e-01,-9.427075513360000159e+00,2.138587646189999900e-03,-7.704848423599999947e-03,-6.821770220989999958e-04,1.000000000000000000e+00
1.760232744999999932e+00,-2.608915839459999830e+00,5.086833528380000358e-01,-9.445352928330001063e+00,-4.575336643030000175e-04,-1.504703704270000074e-02,-8.369830437000000400e-03,1.000000000000000000e+00
1.765232335000000097e+00,-2.614887022820000073e+00,5.221063500450000561e-01,-9.401633613590000493e+00,6.163130514319999954e-03,1.279343105849999919e-02,-7.349310908470000139e-03,1.000000000000000000e+00
1.770222653000000035e+00,-2.648106278600000252e+00,4.884498353649999736e-01,-9.441967962070000553e+00,2.152829896659999923e-03,5.267004016790000206e-04,1.088356226679999816e-02,1.000000000000000000e+00
1.775226482000000106e+00,-2.623018599089999903e+00,4.883845515770000034e-01,-9.452493447739998444e+00,-3.490026574580000463e-04,-1.103162299839999944e-02,1.265008188779999897e-02,1.000000000000000000e+00
1.780106567999999889e+00,-2.583250944590000042e+00,4.991607240699999504e-01,-9.448683534060000611e+00,-6.904887035490000005e-03,1.360869966450000031e-02,-1.125598512590000010e-02,1.000000000000000000e+00
1.785079794000000053e+00,-2.626824713380000009e+00,5.087704465990000591e-01,-9.431318557760000942e+00,8.152603171770000587e-03,5.205810070039999793e-03,-4.911820404229999201e-03,1.000000000000000000e+00
1.790091802000000065e+00,-2.625777542409999832e+00,5.170189272449999818e-01,-9.435309673220000803e+00,-1.380758360030000112e-03,-4.926480352879999969e-03,7.060689385979999899e-03,1.000000000000000000e+00
1.795039188999999924e+00,-2.588045193130000143e+00,5.348966023069999798e-01,-9.434044183330000166e+00,3.111653029920000320e-03,3.091997932640000251e-04,-3.716660197820000067e-03,1.000000000000000000e+00
1.800104652999999999e+00,-2.641723591819999939e+00,5.255929865839999993e-01,-9.418995082760000415e+00,1.455591060220000170e-02,-8.445740677420000495e-03,1.228138338770000046e-03,1.000000000000000000e+00
1.805089444000000043e+00,-2.606427822040000120e+00,5.252868432449999681e-01,-9.442495200810000711e+00,1.023938413710000130e-03,-1.760862022640000135e-02,2.783422824000000417e-03,1.000000000000000000e+00
1.810217852999999932e+00,-2.617312788670000057e+00,5.315946016189999623e-01,-9.405250050519999405e+00,1.405556406830000063e-02,-1.214885385709999930e-03,4.502135328949999175e-03,1.000000000000000000e+00
1.815202704000000056e+00,-2.579228557209999995e+00,5.266137444670000445e-01,-9.423629172300000079e+00,1.607016287740000229e-02,4.250527359550000488e-03,-4.112515132870000339e-03,1.000000000000000000e+00
1.820243867999999932e+00,-2.622310743079999895e+00,5.230267528249999964e-01,-9.449180962190000699e+00,2.249347977340000228e-03,-7.369015365839999814e-04,-2.418705960739999869e-03,1.000000000000000000e+00
1.825227222999999954e+00,-2.587784204100000096e+00,5.253250563629999759e-01,-9.438667166960000188e+00,9.030790999530000779e-03,3.485667984930000424e-04,6.107322406020000705e-03,1.000000000000000000e+00
1.830077713000000106e+00,-2.595709444149999712e+00,4.706603865770000450e-01,-9.449475561219999875e+00,1.061175391079999947e-02,3.785371081899999851e-03,-1.922216382809999874e-03,1.000000000000000000e+00
1.835093217000000054e+00,-2.601539465470000145e+00,5.122867476240000606e-01,-9.440881335880000336e+00,1.523779425770000091e-02,-3.813256509599999896e-03,4.355630371720000359e-03,1.000000000000000000e+00
1.840074792000000015e+00,-2.638926362319999885e+00,5.039970581849999576e-01,-9.455032610820000016e+00,5.750337615609999939e-03,-1.534585375339999995e-02,7.036447990689999148e-03,1.000000000000000000e+00
1.844933135000000002e+00,-2.602853470679999948e+00,4.983129481340000111e-01,-9.420675583189998648e+00,-4.647545982149999672e-03,-2.216557040809999986e-03,-3.793562762439999913e-03,1.000000000000000000e+00
1.849980415999999961e+00,-2.621092307209999639e+00,4.836748029829999740e-01,-9.460136655970000419e+00,-1.012271037330000120e-03,6.322043947880000465e-03,-1.839937991460000076e-03,1.000000000000000000e+00
1.855165619999999960e+00,-2.610768481590000079e+00,4.728079930640000095e-01,-9.472436165569998678e+00,-1.073194108900000186e-02,4.224742762739999713e-03,2.673412207510000513e-03,1.000000000000000000e+00
1.860148691000000021e+00,-2.605761174820000026e+00,5.114710473269999946e-01,-9.406805463270000445e+00,2.011530566960000304e-03,-3.703488502650000187e-03,1.644450239839999957e-04,1.000000000000000000e+00
1.865000290000000005e+00,-2.647588392199999863e+00,5.041493626699999897e-01,-9.437135719610001416e+00,-6.117121083659999171e-04,1.806012587619999820e-03,7.898228242989999842e-03,1.000000000000000000e+00
1.870026519999999914e+00,-2.584555305190000318e+00,5.087806026669999815e-01,-9.440360526869998381e+00,-1.414621900770000190e-02,6.889197975400000468e-04,-2.442487981169999978e-03,1.000000000000000000e+00
1.875012216000000009e+00,-2.641438637400000289e+00,4.935199417039999870e-01,-9.426457673730000764e+00,-1.186260301620000075e-02,1.180219091480000024e-02,4.523352254180000413e-03,1.000000000000000000e+00
1.880003925000000020e+00,-2.609461782909999972e+00,4.828285979499999936e-01,-9.427394077789999827e+00,1.476657111199999872e-02,9.420893620700000791e-04,-7.954018190499999655e-03,1.000000000000000000e+00
1.885008315999999962e+00,-2.646452958429999835e+00,4.623704048760000074e-01,-9.448004904150000272e+00,-1.987793948500000182e-03,-1.600237912500000054e-03,6.771906744689999182e-03,1.000000000000000000e+00
1.890002304000000022e+00,-2.614183550729999972e+00,4.932379098920000593e-01,-9.453117717110000484e+00,-5.276381038130000152e-03,-1.727811060849999969e-02,7.123409304770000720e-03,1.000000000000000000e+00
1.895019849000000089e+00,-2.603910578519999852e+00,5.270343444989999959e-01,-9.400576798019999458e+00,9.237265214319998960e-03,-3.416126128289999841e-04,-2.902615116909999793e-03,1.000000000000000000e+00
1.900012451999999907e+00,-2.619680394580000016e+00,5.079050254089999550e-01,-9.408992159660000354e+00,1.329760253429999872e-02,-2.444069832560000211e-03,-1.354579813780000053e-03,1.000000000000000000e+00
1.904995709000000037e+00,-2.562826872979999671e+00,4.932501848520000065e-01,-9.445224333520000570e+00,7.021341938529999764e-03,2.113100374119999871e-03,-1.920331642030000119e-02,1.000000000000000000e+00
1.910027941999999923e+00,-2.655259365220000056e+00,5.004079476519999181e-01,-9.446227957599999669e+00,9.445318020879998541e-03,-1.504769455640000107e-02,5.860741715880000285e-03,1.000000000000000000e+00
1.915017914999999959e+00,-2.587948162490000037e+00,5.065334447950000651e-01,-9.431541260599999532e+00,1.186111476269999937e-02,-1.965003553780000044e-03,-1.064373552799999928e-02,1.000000000000000000e+00
1.920151587000000104e+00,-2.664520530039999890e+00,4.756120906999999898e-01,-9.439095621499999922e+00,6.664553657169999985e-03,-1.062367018309999869e-02,1.866849604990000007e-03,1.000000000000000000e+00
1.925015319999999974e+00,-2.592349027800000094e+00,4.922110145299999906e-01,-9.427359006479999692e+00,-1.052297931160000102e-02,-6.958867423239999996e-03,-3.050691448149999872e-04,1.000000000000000000e+00
1.930119417000000004e+00,-2.624135912690000350e+00,5.125133229220000253e-01,-9.425762092679999427e+00,6.880842149260000054e-03,-5.235197022560000336e-03,4.138251300900000137e-03,1.000000000000000000e+00
1.935138422000000080e+00,-2.616667476499999978e+00,5.055814412989999562e-01,-9.408554937289999032e+00,1.264461129900000015e-02,-9.630088694389998816e-03,-3.189835231749999639e-03,1.000000000000000000e+00
1.940024996000000002e+00,-2.654438111969999792e+00,4.805035160030000085e-01,-9.423625080649999930e+00,-3.261413425209999922e-03,-1.537763141099999890e-02,4.243198316540000049e-03,1.000000000000000000e+00
1.945137844000000005e+00,-2.632741243949999976e+00,4.993080601179999967e-01,-9.438852460399999700e+00,3.720013424750000242e-03,-1.818071352320000094e-03,1.416839472950000116e-02,1.000000000000000000e+00
1.950028625999999932e+00,-2.629688286120000384e+00,4.969569669479999563e-01,-9.451996019610000133e+00,-5.530081689359999698e-03,-1.618571230210000007e-03,2.366541884840000099e-03,1.000000000000000000e+00
1.955022209000000011e+00,-2.630968096790000210e+00,4.958867804330000517e-01,-9.433250987130000098e+00,-8.322253823279999671e-03,1.498976722360000069e-02,-2.664088038730000330e-03,1.000000000000000000e+00
1.960146348999999955e+00,-2.622484053820000049e+00,4.862632120409999814e-01,-9.432893259730001034e+00,1.596975140270000260e-02,2.910515526310000160e-03,3.761789295820000198e-03,1.000000000000000000e+00
1.965003829999999896e+00,-2.637183025779999745e+00,5.220509300630000737e-01,-9.434575513729999585e+00,1.282298355359999748e-03,-5.219943821429999867e-03,8.923930581660000170e-04,1.000000000000000000e+00
1.970126502999999918e+00,-2.597328569779999707e+00,5.457319941739999791e-01,-9.431103453700000472e+00,2.116935141380000066e-02,3.666224656629999985e-03,-2.575060585510000402e-03,1.000000000000000000e+00
1.975040928000000084e+00,-2.606248958340000144e+00,4.863147960980000462e-01,-9.426929382889998266e+00,-1.287442073229999942e-02,-1.384945958850000020e-02,-4.417436197399999404e-03,1.000000000000000000e+00
1.980016825000000091e+00,-2.637420633930000147e+00,4.860970251609999515e-01,-9.457557745389999937e+00,2.973622642459999681e-03,-3.433418925849999678e-03,2.876821905370000217e-03,1.000000000000000000e+00
1.985053111000000037e+00,-2.610777833940000292e+00,4.743573779309999683e-01,-9.436240232070000289e+00,-3.938484936949999266e-03,-6.904494017359999458e-03,7.910197600720000324e-04,1.000000000000000000e+00
1.990056269999999961e+00,-2.633432733340000276e+00,4.960484007350000057e-01,-9.408620988260000928e+00,-3.548365086320000132e-03,-1.005389727650000085e-02,4.373317118729999620e-03,1.000000000000000000e+00
1.995060688999999998e+00,-2.647731015550000233e+00,5.184910090919999659e-01,-9.435601349649999747e+00,3.034683875739999873e-03,1.163009181620000207e-02,4.412654787300000596e-03,1.000000000000000000e+00
2.000108935000000088e+00,-2.603560742169999997e+00,5.206208607280000678e-01,-9.456454752580000900e+00,4.481565672899999464e-03,7.022777572270000497e-03,-8.320702239869999864e-03,1.000000000000000000e+00
2.005124824000000139e+00,-2.596270585159999644e+00,4.824144276579999668e-01,-9.467316922860000261e+00,1.017923373729999817e-02,-3.634132444860000387e-03,-1.777989044790000139e-02,1.000000000000000000e+00
2.010326352999999955e+00,-2.573447343459999814e+00,4.775091564930000199e-01,-9.465062421929999914e+00,-3.451820462940000112e-03,2.856186823920000076e-03,-1.512177474799999977e-02,1.000000000000000000e+00
2.015274337000000138e+00,-2.651388076749999989e+00,4.851897010580000225e-01,-9.426431370239999552e+00,8.961221203209999292e-03,1.038359943779999968e-02,-2.498347079380000123e-03,1.000000000000000000e+00
2.020138407000000136e+00,-2.633103355259999834e+00,5.113354382489999628e-01,-9.423437449119999698e+00,4.443029407410000083e-03,-4.477635025979999177e-03,7.731295656409999280e-03,1.000000000000000000e+00
2.025122056999999920e+00,-2.559395437230000070e+00,4.756211507890000245e-01,-9.421196976719999228e+00,3.468193113800000296e-03,-1.626983284949999934e-04,-1.258968934420000123e-02,1.000000000000000000e+00
2.030129399999999862e+00,-2.650858207649999798e+00,4.576815164069999997e-01,-9.438533311439998741e+00,-5.727541632949999760e-03,-2.329864073540000111e-03,6.229367572810000364e-03,1.000000000000000000e+00
2.035260300000000022e+00,-2.569697343270000101e+00,4.721277557150000415e-01,-9.419487834710000840e+00,1.615637540819999871e-02,-3.820271231230000291e-04,-1.740537956359999860e-02,1.000000000000000000e+00
2.040281277000000060e+00,-2.625871942699999906e+00,4.603111707909999795e-01,-9.397640744560000314e+00,3.756220918149999824e-03,1.309640891850000037e-02,3.396054264160000211e-03,1.000000000000000000e+00
2.045147382000000125e+00,-2.620984170659999890e+00,4.959761757489999923e-01,-9.416970883460001218e+00,-4.669364541770000022e-03,6.784418597819999626e-03,6.185902748259999818e-04,1.000000000000000000e+00
2.050239257999999953e+00,-2.571892515230000065e+00,5.063556770750000657e-01,-9.440693704350000104e+00,8.155341260139999798e-03,1.870025182140000117e-03,-1.005523465570000094e-02,1.000000000000000000e+00
2.055145018000000157e+00,-2.631592658429999787e+00,5.064566166989999951e-01,-9.439925642589999555e+00,4.289821721610000138e-03,-5.372820422050000357e-03,-3.710035467520000126e-03,1.000000000000000000e+00
2.060283132999999989e+00,-2.639365045999999992e+00,5.052077126160000597e-01,-9.449283838039999495e+00,8.071161806579999279e-03,7.444493472579999382e-03,3.525392618030000029e-03,1.000000000000000000e+00
2.065122913000000171e+00,-2.587933549449999759e+00,4.896008320310000217e-01,-9.453615729760000974e+00,-3.082769457249999977e-03,-1.277546491470000004e-02,-3.459425643089999894e-04,1.000000000000000000e+00
2.070249239999999880e+00,-2.621744925899999856e+00,5.172144863500000023e-01,-9.440712409050000531e+00,1.178564596920000235e-02,-9.330475702879998529e-03,-7.475121878090000387e-03,1.000000000000000000e+00
2.075268826999999927e+00,-2.599718095270000084e+00,5.054748391200000190e-01,-9.423851290620000043e+00,-5.548525135960000534e-03,4.881274886430000265e-03,-2.712441235779999849e-02,1.000000000000000000e+00
2.080140770999999944e+00,-2.684102305609999739e+00,4.863526804230000056e-01,-9.434441073689999513e+00,1.159440074120000018e-02,1.487874193119999734e-03,-3.924880176780000743e-03,1.000000000000000000e+00
2.085113414999999915e+00,-2.629229728690000378e+00,4.950116050330000128e-01,-9.397423886939998638e+00,5.428213626150000647e-04,-3.810829948630000026e-03,-1.040915027260000056e-02,1.000000000000000000e+00
2.090198759000000184e+00,-2.651394214229999768e+00,5.125844153970000594e-01,-9.422993212489998882e+00,1.351081952449999929e-02,-4.609372932460000308e-03,1.225924585010000059e-03,1.000000000000000000e+00
2.095148822000000077e+00,-2.613941558670000109e+00,4.588903076749999976e-01,-9.432822532579999475e+00,3.310003783549999787e-03,-2.900836989279999972e-02,5.513757932930000820e-03,1.000000000000000000e+00
2.100141927000000130e+00,-2.592067872769999948e+00,4.827594417040000363e-01,-9.423463168080001395e+00,3.916090354320000098e-03,-1.141242566519999960e-03,-1.144388224930000062e-03,1.000000000000000000e+00
2.105152657000000094e+00,-2.606580382249999772e+00,4.614019617030000187e-01,-9.422914886550000091e+00,3.306750673800000397e-03,-2.072783885519999692e-03,-7.288387045260000946e-03,1.000000000000000000e+00
2.109901962999999991e+00,-2.634625742519999925e+00,4.777935629249999705e-01,-9.453985147599999195e+00,3.778397571300000542e-03,-9.088436141609999852e-03,-2.624674234540000069e-04,1.000000000000000000e+00
2.115049684999999791e+00,-2.564987558149999902e+00,4.409288998529999892e-01,-9.440296229460001243e+00,9.242519736290000579e-03,-1.631263457239999839e-02,-1.316430978479999833e-02,1.000000000000000000e+00
2.120249047000000164e+00,-2.664260710059999759e+00,4.861279682890000120e-01,-9.449522322969999166e+00,1.763280830349999795e-03,9.617877658460000870e-04,1.331774517889999961e-02,1.000000000000000000e+00
2.125149849000000035e+00,-2.511618663790000205e+00,4.839395548659999879e-01,-9.410169971269999323e+00,9.617328643799999063e-03,-2.950700931249999968e-03,-1.663755811749999952e-02,1.000000000000000000e+00
2.130143821999999965e+00,-2.627867500429999836e+00,4.733456436049999771e-01,-9.409250518340000369e+00,1.133869960900000043e-02,-4.911237396300000349e-03,-2.050119219349999956e-03,1.000000000000000000e+00
2.135272285000000103e+00,-2.609161630920000086e+00,4.851828329260000072e-01,-9.424254610720000258e+00,4.200406838209999952e-03,-2.367466920989999904e-03,-7.294259499759999862e-03,1.000000000000000000e+00
2.140153408000000201e+00,-2.580913733809999666e+00,5.004778345499999448e-01,-9.426752857280000342e+00,-3.376342356200000110e-03,-9.550206363199999909e-03,-6.076779216529999694e-03,1.000000000000000000e+00
2.145140169999999902e+00,-2.583399120890000233e+00,4.743642095310000584e-01,-9.425044884320000094e+00,3.254822921010000134e-03,-1.284426543859999974e-03,-9.295212104920000384e-03,1.000000000000000000e+00
2.150280304999999892e+00,-2.577616738090000137e+00,5.188371191160000562e-01,-9.377253205569999750e+00,9.762509725989999831e-03,-7.643609307709999835e-03,-2.234741486610000022e-02,1.000000000000000000e+00
2.155156444999999810e+00,-2.646038824670000178e+00,4.766076045429999963e-01,-9.450607195599999955e+00,3.931601066139999573e-03,-7.887389510869998940e-03,-5.847123917189999374e-03,1.000000000000000000e+00
2.160285351999999826e+00,-2.609495977440000392e+00,5.245204254490000162e-01,-9.423643785350000357e+00,4.387978930029999038e-03,-4.871723242100000316e-03,-5.716159008439999738e-03,1.000000000000000000e+00
2.165132832999999923e+00,-2.641021288770000197e+00,4.909968529670000192e-01,-9.449594219159999753e+00,1.043962873520000098e-02,-1.236386131499999860e-02,9.566530585290000666e-03,1.000000000000000000e+00
2.170264802000000159e+00,-2.601803084850000225e+00,4.923943352069999890e-01,-9.425041961710000749e+00,-5.891543347390000400e-03,-1.437796745449999825e-04,5.509047303350000924e-03,1.000000000000000000e+00
2.175259264000000137e+00,-2.571958273940000428e+00,4.876760379810000101e-01,-9.418023022859999926e+00,5.453584250060000520e-03,-5.303416401149999970e-04,-1.074356213209999925e-02,1.000000000000000000e+00
2.180136705999999869e+00,-2.591105457479999874e+00,4.849717474580000354e-01,-9.442767003489999311e+00,3.899003844710000142e-03,-1.997564919290000310e-03,-1.430285046809999993e-03,1.000000000000000000e+00
2.185114288999999932e+00,-2.608316704520000417e+00,5.210001789010000328e-01,-9.422561250810000288e+00,-5.172314122319999520e-03,1.714516431089999765e-02,-7.416685111819999558e-03,1.000000000000000000e+00
2.190290006000000123e+00,-2.595579388029999990e+00,5.125734921440000535e-01,-9.416597373969999296e+00,6.069894414399999716e-03,-7.747504860160000194e-03,2.001646440479999851e-03,1.000000000000000000e+00
2.195160702999999991e+00,-2.598061560230000122e+00,5.055418764739999515e-01,-9.425776705720000592e+00,6.268733646720000760e-03,2.300001913679999583e-03,-1.361632719639999968e-02,1.000000000000000000e+00
2.200121026000000146e+00,-2.628360836899999775e+00,4.579528441619999946e-01,-9.423265015160000146e+00,-1.493239868429999985e-02,-2.721765544269999851e-03,-9.294381365179999951e-03,1.000000000000000000e+00
2.205118414999999832e+00,-2.621530990880000189e+00,5.105449089260000184e-01,-9.399392556669999621e+00,2.502408344300000205e-03,3.397797467189999938e-03,-1.530766300860000005e-02,1.000000000000000000e+00
2.210121866999999796e+00,-2.658794845870000145e+00,5.381425619580000319e-01,-9.371011680840000579e+00,1.593793928620000286e-02,-3.073296882209999858e-02,-1.444054651069999950e-03,1.000000000000000000e+00
2.215008941999999870e+00,-2.625838917209999845e+00,5.225953026059999562e-01,-9.379346962979999702e+00,4.306414164600000025e-03,-1.116386428480000033e-02,-2.694255206730000306e-03,1.000000000000000000e+00
2.220059589999999972e+00,-2.644818635230000048e+00,4.225067791839999809e-01,-9.412298215469999008e+00,1.416348270139999995e-03,-1.389491651209999977e-02,-1.038808841259999949e-02,1.000000000000000000e+00
2.224961486999999849e+00,-2.656397137079999915e+00,4.947614661970000105e-01,-9.442953465969999627e+00,-1.024924218649999989e-02,-4.429929889739999543e-03,-6.747395731510000792e-03,1.000000000000000000e+00
2.230114654999999946e+00,-2.575072898829999790e+00,4.446202286519999602e-01,-9.431752272999998965e+00,-1.333665009589999999e-02,-1.355071831489999996e-02,-4.703859798609999650e-03,1.000000000000000000e+00
2.235100215000000112e+00,-2.613285432850000145e+00,4.627216294659999840e-01,-9.412072005499998895e+00,2.545103430750000287e-03,-1.254519820210000039e-02,4.188112448900000416e-03,1.000000000000000000e+00
2.240097667000000126e+00,-2.652849089209999622e+00,4.816326661640000228e-01,-9.443204810389998372e+00,-1.260762847959999954e-02,-2.047135867179999957e-02,1.205328479410000195e-02,1.000000000000000000e+00
2.245119749000000109e+00,-2.560874569870000173e+00,5.129289910509999828e-01,-9.393799266700000317e+00,7.696243701500000631e-04,-2.127282787109999716e-04,-1.871993951499999892e-02,1.000000000000000000e+00
2.250114968000000104e+00,-2.613616564500000017e+00,4.639748809309999777e-01,-9.411594451110000037e+00,-1.531900465489999773e-02,-7.591978646809999752e-03,-1.815004274250000063e-02,1.000000000000000000e+00
2.255106802999999882e+00,-2.647819278350000083e+00,4.865584686609999987e-01,-9.420787226869999031e+00,1.161178224719999893e-03,-6.021591834720000334e-03,-9.120915085079998874e-03,1.000000000000000000e+00
2.260283036000000134e+00,-2.639029530429999770e+00,4.760516146280000527e-01,-9.392461880619999093e+00,-6.884056609119999608e-03,-3.239431884139999576e-03,2.090718597170000172e-03,1.000000000000000000e+00
2.265133727999999902e+00,-2.621860661229999945e+00,4.806187033479999982e-01,-9.422917809159999436e+00,-1.619332656260000225e-02,-1.167012006039999834e-02,-5.826562643050000809e-03,1.000000000000000000e+00
2.270260083000000151e+00,-2.629234112609999841e+00,4.923423127589999782e-01,-9.433214162249999646e+00,-1.225374639030000004e-02,2.861683024089999808e-03,1.687152311209999967e-03,1.000000000000000000e+00
2.275279503000000147e+00,-2.627769300749999815e+00,4.527114729100000234e-01,-9.478168571739999493e+00,5.016627255829999611e-03,4.990315064790000130e-03,6.845458876340000144e-03,1.000000000000000000e+00
2.280149231000000221e+00,-2.632662918009999853e+00,4.900543114199999994e-01,-9.446992512230000472e+00,-4.552633035930000452e-04,-7.483486086129999965e-03,-1.382225193079999852e-02,1.000000000000000000e+00
2.285132293000000203e+00,-2.607843534050000134e+00,4.492397051460000346e-01,-9.450666232310000581e+00,-1.585866138340000231e-02,-1.091915648429999872e-02,1.318387687209999918e-03,1.000000000000000000e+00
2.290139683000000037e+00,-2.536493869590000116e+00,4.065978834449999746e-01,-9.417812010460000494e+00,1.766554079949999786e-02,-1.033841748720000031e-03,-4.973424598569999716e-03,1.000000000000000000e+00
2.295135372999999923e+00,-2.581213593540000240e+00,3.340635757729999988e-01,-9.429398403349999569e+00,-1.054285932329999953e-02,-1.228321343660000037e-02,-6.158322095869999367e-03,1.000000000000000000e+00
2.300113957999999847e+00,-2.586450617410000152e+00,3.613162147599999763e-01,-9.435956154430000353e+00,6.387671455739999705e-03,4.993804730469999717e-03,2.251965459440000237e-03,1.000000000000000000e+00
2.305127222999999947e+00,-2.599790868239999941e+00,4.676838915160000387e-01,-9.407206445289999053e+00,-5.847028805870000063e-04,-7.596305571500000346e-03,-1.883187144990000270e-02,1.000000000000000000e+00
2.310238888999999851e+00,-2.694813376980000008e+00,4.988954972619999984e-01,-9.387417456710000607e+00,-6.385016720740000103e-03,3.578406991440000098e-03,-7.655196357520000112e-03,1.000000000000000000e+00
2.315268620999999971e+00,-2.694183846900000123e+00,4.835694429119999915e-01,-9.379583694349999945e+00,-2.007515542209999809e-02,-2.679562894630000205e-03,-6.675467826429999987e-03,1.000000000000000000e+00
2.320150985999999804e+00,-2.645896493590000453e+00,4.142338947490000201e-01,-9.400691948829999589e+00,-1.651862636210000082e-02,-7.014552131300000673e-03,-7.123661693190000074e-03,1.000000000000000000e+00
2.325119545999999815e+00,-2.681779415619999885e+00,4.618129536559999471e-01,-9.408813295959999934e+00,-5.005435086789999585e-04,6.836397573350001290e-03,7.327999919650000655e-04,1.000000000000000000e+00
2.330150676000000143e+00,-2.628366682120000242e+00,4.845523895350000165e-01,-9.390077615830000113e+00,-7.182250265029999081e-03,5.004977807399999153e-03,-1.537963561710000045e-02,1.000000000000000000e+00
2.335268534999999979e+00,-2.675551627149999945e+00,4.870514032769999724e-01,-9.370237189330000049e+00,-2.169966697690000126e-02,-1.067339070140000019e-02,-6.507569924000000422e-05,1.000000000000000000e+00
2.340285005000000140e+00,-2.670470670619999876e+00,4.334363156080000001e-01,-9.387264311980000997e+00,-9.064608253540001534e-03,-5.454302765430000047e-03,4.262359812860000083e-03,1.000000000000000000e+00
2.345150283999999807e+00,-2.595239196290000105e+00,4.239365197269999719e-01,-9.372592228029999362e+00,-2.146047540009999796e-02,-3.857627976689999901e-03,-1.396358013149999987e-02,1.000000000000000000e+00
2.350141062000000058e+00,-2.639810743940000037e+00,4.788739055070000417e-01,-9.345648107000000593e+00,-6.705999374389999719e-03,-1.441093906759999960e-02,-7.753770798439999119e-03,1.000000000000000000e+00
2.355125623000000168e+00,-2.688506385789999786e+00,5.008867076120000483e-01,-9.437183065880001109e+00,-2.540988475079999920e-02,8.563121780749999301e-03,-5.948044359679999747e-03,1.000000000000000000e+00
2.360284274000000071e+00,-2.683572144259999792e+00,4.772971942420000113e-01,-9.408757766380000831e+00,-1.619172655049999979e-02,-1.229895092549999902e-02,-9.972602128980000136e-05,1.000000000000000000e+00
2.365116184000000121e+00,-2.647308698479999833e+00,5.262616430929999423e-01,-9.385311424339999320e+00,-2.910885494200000142e-03,6.426922045649999249e-03,-1.169509813189999886e-02,1.000000000000000000e+00
2.370250192999999950e+00,-2.719604996140000175e+00,4.727278770330000102e-01,-9.393920262740000027e+00,-3.155261278150000431e-02,1.013874076310000011e-02,3.965621348469999287e-03,1.000000000000000000e+00
2.375155273999999928e+00,-2.602752932920000095e+00,4.463665243299999585e-01,-9.398553183230001551e+00,-1.098344475029999941e-02,4.412904381750000146e-03,-1.821165904399999966e-02,1.000000000000000000e+00
2.380131829000000199e+00,-2.628411398049999903e+00,4.303514282700000027e-01,-9.446104623480000129e+00,-7.569397799669999767e-03,7.890040054920000046e-03,-7.375234272329999306e-03,1.000000000000000000e+00
2.385139421999999954e+00,-2.629384919250000063e+00,4.760986321080000194e-01,-9.390990054500001349e+00,-2.124842442569999795e-02,-1.548295142130000140e-03,-5.959052592520000351e-03,1.000000000000000000e+00
2.390290557000000149e+00,-2.674356864399999978e+00,4.687173992829999913e-01,-9.444058796869999384e+00,-2.809503860770000069e-02,1.974439062179999746e-02,-1.225150562820000177e-02,1.000000000000000000e+00
2.395124909000000191e+00,-2.659870366150000276e+00,5.449401862089999771e-01,-9.421554704110000955e+00,-1.767837814990000020e-02,-1.225705491380000168e-03,-1.184950023890000113e-02,1.000000000000000000e+00
2.400125318000000174e+00,-2.696405322340000410e+00,5.250195706100000415e-01,-9.396846963839999844e+00,-1.674661226570000119e-02,6.308669224380000079e-03,-5.150434561069999230e-03,1.000000000000000000e+00
2.405095030000000023e+00,-2.644223884209999653e+00,4.952391667120000229e-01,-9.380261739739999882e+00,-1.968611404300000048e-02,1.689093559980000062e-02,1.564269885419999982e-03,1.000000000000000000e+00
2.410162177000000128e+00,-2.635870189620000303e+00,4.515274142240000010e-01,-9.364320074239998348e+00,-1.933044195180000022e-02,1.443835534159999996e-02,-1.888808608059999727e-02,1.000000000000000000e+00
2.415162451000000043e+00,-2.636334299999999686e+00,3.973973993039999764e-01,-9.404206094430000107e+00,-2.649660594759999793e-02,1.794388145209999813e-02,-2.394583309070000103e-03,1.000000000000000000e+00
2.420280933999999995e+00,-2.638527133869999819e+00,4.748153142989999798e-01,-9.416210420480000565e+00,-2.023288235070000093e-02,2.809332311150000011e-02,-1.405214518309999897e-02,1.000000000000000000e+00
2.425159058000000201e+00,-2.640203542649999680e+00,5.732686377340000528e-01,-9.436785006470000070e+00,-2.687514945859999921e-02,2.056134492159999994e-02,-1.126539148389999953e-02,1.000000000000000000e+00
2.430279017999999791e+00,-2.572277715149999811e+00,5.708978900140000423e-01,-9.419992277100000422e+00,-4.329288005830000258e-02,1.838466338809999906e-02,-2.358579449360000135e-02,1.000000000000000000e+00
2.435146587999999834e+00,-2.656548528250000096e+00,5.367695931039999646e-01,-9.403599360710000354e+00,-3.231647610659999642e-02,5.249097011979999769e-03,-2.491817064580000018e-02,1.000000000000000000e+00
2.439985195999999856e+00,-2.605731656470000157e+00,5.771850805250000604e-01,-9.380676165760000629e+00,-1.593101769689999822e-02,1.761448755859999771e-02,-2.007227763529999959e-02,1.000000000000000000e+00
2.445115450999999940e+00,-2.635625567209999964e+00,5.983248261219999975e-01,-9.425223748019998737e+00,1.532488036899999975e-02,3.206369653340000042e-02,-1.633714511990000048e-02,1.000000000000000000e+00
2.450116630000000129e+00,-2.606793440479999724e+00,5.612251121860000191e-01,-9.445636421450000597e+00,-1.729292795059999763e-02,9.571813978250000299e-03,-2.032445371150000055e-02,1.000000000000000000e+00
2.455107561000000160e+00,-2.605114693609999588e+00,5.455207625760000179e-01,-9.474109651739999194e+00,-7.622891105710000344e-03,-2.401395235210000093e-03,-2.594582736490000027e-02,1.000000000000000000e+00
2.460082696000000180e+00,-2.571569566880000046e+00,5.484403763499999807e-01,-9.398696975619998284e+00,-9.092939086260000414e-03,3.181780502199999666e-02,-3.267230466009999473e-02,1.000000000000000000e+00
2.465147355000000040e+00,-2.704262173320000073e+00,5.740161316330000263e-01,-9.368698727720000008e+00,-1.503271702679999898e-02,1.184179540720000159e-02,-1.969245076179999832e-02,1.000000000000000000e+00
2.470275759000000182e+00,-2.655184838679999881e+00,5.536311864580000242e-01,-9.379837376850000297e+00,-1.196545735000000173e-02,1.492478139699999866e-02,-2.215708605950000160e-02,1.000000000000000000e+00
2.475121716999999943e+00,-2.601666306720000321e+00,5.940546745220000036e-01,-9.371337844050000143e+00,-1.655916869639999928e-02,2.518375217909999547e-02,-3.874707594509999714e-02,1.000000000000000000e+00
2.480116957999999983e+00,-2.663426012810000021e+00,6.095561950369999815e-01,-9.381179439109999407e+00,-6.039404310289999377e-03,3.368865698580000151e-02,-4.142116010190000086e-02,1.000000000000000000e+00
2.485130931000000043e+00,-2.636873229179999889e+00,4.595018271699999879e-01,-9.382653018790000132e+00,1.308625657109999986e-02,3.801954165100000088e-02,-3.385550156239999775e-02,1.000000000000000000e+00
2.490281439999999957e+00,-2.591081199820000069e+00,5.378304272689999888e-01,-9.395671490319999819e+00,2.914975862949999857e-03,2.681400068099999701e-02,-4.047464951869999411e-02,1.000000000000000000e+00
2.495130714000000083e+00,-2.621314717779999803e+00,5.759223305799999748e-01,-9.390138990630001459e+00,8.875962346790000623e-03,2.290864847600000004e-02,-2.892152220009999719e-02,1.000000000000000000e+00
2.500147343000000077e+00,-2.607997847830000104e+00,5.769137527699998991e-01,-9.417937098139999463e+00,1.264114864170000178e-02,2.552861720319999847e-02,-3.882583603259999461e-02,1.000000000000000000e+00
2.505132010000000076e+00,-2.643967863620000358e+00,5.634126122929999925e-01,-9.457790969619999544e+00,2.327005378899999963e-02,3.400382027030000170e-02,-2.018688432869999994e-02,1.000000000000000000e+00
2.510066568000000053e+00,-2.622527600709999795e+00,5.970524680990000332e-01,-9.431302191149999459e+00,3.781942278150000197e-02,2.205194346609999981e-02,-2.741798385979999850e-02,1.000000000000000000e+00
2.514825598999999912e+00,-2.598058929880000090e+00,5.662099879259999691e-01,-9.410397350280000239e+00,2.053818665440000288e-02,2.872751466929999997e-02,-3.331582248210000069e-02,1.000000000000000000e+00
2.519873151000000089e+00,-2.636066881240000104e+00,5.626144476529999494e-01,-9.419493679929999530e+00,3.096472658220000146e-02,1.418103091420000114e-02,-2.720388770099999715e-02,1.000000000000000000e+00
2.524743620000000188e+00,-2.543710961359999967e+00,5.213414666200000269e-01,-9.497969835279999273e+00,4.580822587010000002e-02,2.366169542069999909e-02,-4.665711522099999509e-02,1.000000000000000000e+00
2.529758140000000211e+00,-2.496967914890000362e+00,6.066111180280000514e-01,-9.509173950860001057e+00,4.570306837560000196e-02,2.740166895090000165e-02,-5.082063004369999359e-02,1.000000000000000000e+00
2.534843781999999823e+00,-2.549580437919999998e+00,6.268480695670000102e-01,-9.513647296880000326e+00,5.024932324889999635e-02,1.446743682029999999e-02,-3.594098612669999887e-02,1.000000000000000000e+00
2.539741026999999818e+00,-2.540806764350000080e+00,5.665004587730000374e-01,-9.496369414339998372e+00,4.393780231480000353e-02,1.052065752449999995e-02,-4.918532073499999602e-02,1.000000000000000000e+00
2.544847256000000169e+00,-2.590046596079999652e+00,6.820714326819999895e-01,-9.356259517379999835e+00,4.124922305349999763e-02,1.010521594430000003e-02,-6.118093430999999721e-02,1.000000000000000000e+00
2.549736187000000154e+00,-2.564306297879999974e+00,5.418099984240000166e-01,-9.461691484189998391e+00,4.125514253969999462e-02,1.296214945610000072e-02,-6.076105684040000038e-02,1.000000000000000000e+00
2.554831103999999797e+00,-2.630628489570000283e+00,5.824329545830000399e-01,-9.467274837279999744e+00,4.098416864869999787e-02,2.444526180620000002e-04,-5.914710089560000494e-02,1.000000000000000000e+00
2.559812992999999981e+00,-2.595257316460000130e+00,6.789418294200000314e-01,-9.432154424060000153e+00,4.765057191250000185e-02,3.363799070940000184e-03,-5.520345270630000467e-02,1.000000000000000000e+00
2.564791950000000043e+00,-2.591907129249999997e+00,6.526654515859999783e-01,-9.460656880449999306e+00,3.929224982859999549e-02,3.755569690840000491e-03,-7.273513823750001051e-02,1.000000000000000000e+00
2.570005581999999844e+00,-2.618166190629999779e+00,6.402310635569999908e-01,-9.518167989169999288e+00,6.349311769009999273e-02,1.904533989729999960e-02,-7.095488905909999588e-02,1.000000000000000000e+00
2.575007760000000090e+00,-2.557149119610000021e+00,6.298043620889999250e-01,-9.455803595199999023e+00,6.963619589810000898e-02,-2.441399265079999964e-03,-6.308408081529999489e-02,1.000000000000000000e+00
2.580002766999999864e+00,-2.591651985449999973e+00,5.764272478949999945e-01,-9.440935696409999522e+00,1.006249114870000072e-01,-2.032850170509999891e-03,-4.057189077139999878e-02,1.000000000000000000e+00
2.585154558999999796e+00,-2.515321317700000225e+00,4.917141343909999796e-01,-9.464631044780000835e+00,8.355665951969999672e-02,-4.190761130300000269e-03,-4.916503652930000190e-02,1.000000000000000000e+00
2.589917751999999851e+00,-2.471679452110000064e+00,4.880531276650000305e-01,-9.444138876369999380e+00,8.003848791119999584e-02,1.757977297529999964e-03,-4.157738760109999654e-02,1.000000000000000000e+00
2.595031550999999936e+00,-2.482470310720000128e+00,5.320607578260000414e-01,-9.455601935149999804e+00,6.898195296530000575e-02,-9.647875092920000020e-03,-4.217695072290000846e-02,1.000000000000000000e+00
2.599969744000000027e+00,-2.463276073169999858e+00,4.988695225710000347e-01,-9.450051899800000044e+00,5.802786722780000489e-02,-1.350340247149999992e-02,-6.196943670509999502e-02,1.000000000000000000e+00
2.605050666999999986e+00,-2.531756611929999679e+00,3.659671458389999743e-01,-9.424441657730000088e+00,7.848571240899999968e-02,-5.214391276239999269e-03,-6.071398407219999460e-02,1.000000000000000000e+00
2.610053391000000111e+00,-2.537361884600000117e+00,4.014258511020000197e-01,-9.449798217299999692e+00,9.963056445119999882e-02,-6.623498629780000518e-04,-5.573505535719999737e-02,1.000000000000000000e+00
2.615034652999999931e+00,-2.500316933050000134e+00,5.383605520899999997e-01,-9.435133147610001103e+00,8.590623736380000042e-02,-2.819463424379999722e-02,-7.215557247399999319e-02,1.000000000000000000e+00
2.620081247999999974e+00,-2.548822897550000022e+00,6.186481773030000353e-01,-9.507076101789998290e+00,8.141170442100000015e-02,-2.184301242229999898e-02,-6.755737960339999737e-02,1.000000000000000000e+00
2.625005032999999877e+00,-2.416458354019999977e+00,4.578440865580000185e-01,-9.486530157369999827e+00,1.089622527360000065e-01,-3.468472510580000723e-02,-7.317925989630000294e-02,1.000000000000000000e+00
2.630149525000000210e+00,-2.410889760109999891e+00,2.649161888600000125e-01,-9.373200130789999918e+00,1.141802892090000021e-01,-5.095990002159999505e-02,-7.818756252530000006e-02,1.000000000000000000e+00
2.635156605999999790e+00,-2.405132073359999900e+00,8.710749782769999783e-02,-9.436564057200000022e+00,1.088710874320000105e-01,-3.753743693230000150e-02,-8.218758553270000267e-02,1.000000000000000000e+00
2.640031398000000085e+00,-2.466981065159999709e+00,1.266288494199999948e-01,-9.549700607030001009e+00,9.223520010710001271e-02,-3.390172123909999946e-02,-6.303866952660000522e-02,1.000000000000000000e+00
2.645018325000000114e+00,-2.473462828400000202e+00,2.515327930099999776e-01,-9.567190086500000135e+00,8.297817409039999481e-02,-4.216339066619999992e-02,-6.337218731639999991e-02,1.000000000000000000e+00
2.649987934999999961e+00,-2.576578919479999730e+00,3.090495460259999883e-01,-9.553222935939999161e+00,5.400183424349999650e-02,-5.852365866300000136e-02,-5.394727364180000595e-02,1.000000000000000000e+00
2.655171331000000023e+00,-2.677974178119999937e+00,4.963536672919999782e-01,-9.540223169119999014e+00,5.513484776020000089e-02,-6.723580509420000462e-02,-5.592652782799999861e-02,1.000000000000000000e+00
2.660152298999999942e+00,-2.731487741640000522e+00,5.691871771060000862e-01,-9.511873857470000360e+00,3.259205445649999977e-02,-6.865417212249999568e-02,-3.486350551249999680e-02,1.000000000000000000e+00
2.665031508999999854e+00,-2.706806597109999490e+00,6.468123416439999218e-01,-9.476613743510000631e+00,4.189177602530000377e-02,-6.943547725680000726e-02,-2.692059241240000317e-02,1.000000000000000000e+00
2.670136691999999812e+00,-2.617510941589999973e+00,6.049265624749999848e-01,-9.484951363749999587e+00,5.871447920800000608e-02,-7.305070757869999709e-02,-3.863134607669999748e-02,1.000000000000000000e+00
2.675155852000000056e+00,-2.590503399940000229e+00,4.524560003109999728e-01,-9.492265486149999987e+00,7.041201740499999917e-02,-5.545963719489999805e-02,-4.220274835819999570e-02,1.000000000000000000e+00
2.680132184000000084e+00,-2.594438693559999898e+00,3.421565370649999882e-01,-9.443385427649999997e+00,5.584650859240000015e-02,-5.838444456459999932e-02,-2.935499884190000131e-02,1.000000000000000000e+00
2.685025296000000061e+00,-2.638336579729999798e+00,2.189212756049999931e-01,-9.415572707100000827e+00,4.651146009560000461e-02,-7.077486813069999716e-02,-2.681579627100000307e-02,1.000000000000000000e+00
2.690177083000000025e+00,-2.584581900929999954e+00,2.590111112680000272e-01,-9.435240115119999160e+00,6.023836508390000011e-02,-7.711445540189999781e-02,-2.576236985620000003e-02,1.000000000000000000e+00
2.695170198000000017e+00,-2.549570793309999583e+00,2.918091094229999793e-01,-9.482782203019999301e+00,4.465182125570000410e-02,-8.019452542069999135e-02,-2.892783097920000046e-02,1.000000000000000000e+00
2.700035296999999890e+00,-2.559163674300000135e+00,4.096067829379999581e-01,-9.475475679389999684e+00,2.868128940459999804e-02,-9.190817922350000280e-02,-2.376942895349999987e-02,1.000000000000000000e+00
2.705154981000000181e+00,-2.651045254660000072e+00,4.338290777849999613e-01,-9.454514724430000072e+00,2.579743601379999932e-02,-1.195117905739999931e-01,-7.504124194379999113e-03,1.000000000000000000e+00
2.710131248999999798e+00,-2.629780932830000140e+00,4.191221051820000487e-01,-9.379572003910000788e+00,3.837718442080000070e-02,-1.044352725149999966e-01,-1.736660301690000005e-02,1.000000000000000000e+00
2.715033371000000084e+00,-2.628896843479999745e+00,4.391114386350000176e-01,-9.385928679460000978e+00,1.881223358209999780e-02,-9.400505572560001466e-02,-2.512732055039999628e-03,1.000000000000000000e+00
2.720035355999999904e+00,-2.530104460809999622e+00,4.082385633250000256e-01,-9.494655596160001210e+00,3.603899478909999843e-02,-8.811583369969999691e-02,-1.038629654789999940e-02,1.000000000000000000e+00
2.725006444999999999e+00,-2.547862820340000223e+00,4.012894748390000155e-01,-9.476464690429999393e+00,3.445851802830000171e-02,-9.605508297680000196e-02,-1.350105926389999836e-02,1.000000000000000000e+00
2.730175524999999936e+00,-2.589482824720000131e+00,2.627407627829999592e-01,-9.419552132119999754e+00,2.489572949709999844e-02,-1.191524639730000001e-01,-1.351058296860000070e-02,1.000000000000000000e+00
2.735119833000000167e+00,-2.660823136829999935e+00,1.998186070600000142e-01,-9.429356317779999941e+00,2.285749092699999874e-02,-1.111773028969999938e-01,-6.357694044709999263e-03,1.000000000000000000e+00
2.740175493999999823e+00,-2.650930396109999698e+00,2.156960664810000095e-01,-9.387308735639999568e+00,1.047433074560000059e-02,-1.408460885289999909e-01,-1.133733801539999961e-02,1.000000000000000000e+00
2.745169520000000141e+00,-2.624322375170000221e+00,2.107094006419999999e-01,-9.393473688010001155e+00,4.879132844510000559e-03,-1.010073199870000077e-01,-4.963575862350000888e-03,1.000000000000000000e+00
2.750038784000000014e+00,-2.597919813670000355e+00,1.644137508750000143e-01,-9.382418040990000208e+00,1.866216422059999982e-03,-1.031918302180000052e-01,-1.180281117559999968e-02,1.000000000000000000e+00
2.755003474000000008e+00,-2.722970380920000100e+00,9.774257221650001215e-02,-9.427001279080000629e+00,-1.127705257389999965e-02,-1.089227572079999873e-01,-1.236260402950000066e-03,1.000000000000000000e+00
2.760174265999999932e+00,-2.702502470170000226e+00,1.500914667409999903e-01,-9.418349770589998116e+00,-7.450737990439999792e-03,-1.004900932309999995e-01,7.867919281130000483e-03,1.000000000000000000e+00
2.765016065999999828e+00,-2.728967867770000222e+00,2.447078423609999887e-01,-9.357226316589999371e+00,-3.145126625900000056e-02,-1.156132370229999845e-01,1.367018744350000092e-02,1.000000000000000000e+00
2.770138762000000199e+00,-2.718561624570000390e+00,2.769160761950000271e-01,-9.347826035560000690e+00,-4.295951128009999759e-02,-1.223949864509999985e-01,1.263052783910000032e-02,1.000000000000000000e+00
2.775142401000000092e+00,-2.682192672599999828e+00,2.559958185680000220e-01,-9.410951477039999347e+00,-3.977552428840000487e-02,-1.190439015630000152e-01,1.474176906050000090e-02,1.000000000000000000e+00
2.780017954999999930e+00,-2.647778654080000127e+00,2.437734658540000043e-01,-9.438992161130000724e+00,-4.747177287939999962e-02,-1.243383809919999944e-01,1.137888059020000092e-02,1.000000000000000000e+00
2.785173600999999888e+00,-2.660827228480000084e+00,2.630022267309999884e-01,-9.417563004130000692e+00,-3.552307933570000159e-02,-1.378781646489999901e-01,1.303999312219999984e-02,1.000000000000000000e+00
2.789985795000000213e+00,-2.684628375309999537e+00,2.817782388720000419e-01,-9.456407990829999832e+00,-4.110073670739999852e-02,-1.163196042180000001e-01,1.531825400889999869e-02,1.000000000000000000e+00
2.794977344999999946e+00,-2.690312558430000056e+00,2.902835620890000246e-01,-9.440617131979999854e+00,-4.321851581339999915e-02,-1.254862099890000082e-01,1.450020819899999931e-02,1.000000000000000000e+00
2.800004320999999852e+00,-2.677815188159999860e+00,2.941128928530000186e-01,-9.402999056729999694e+00,-5.016207322480000647e-02,-1.224793195720000061e-01,1.654581911860000115e-02,1.000000000000000000e+00
2.805063475999999945e+00,-2.748816769840000340e+00,2.838067672910000172e-01,-9.387633145289999703e+00,-5.939453095200000060e-02,-1.268765479329999890e-01,1.691879890859999958e-02,1.000000000000000000e+00
2.810145800999999999e+00,-2.695774915490000367e+00,2.608356780809999997e-01,-9.405902961469999823e+00,-6.615308672189999795e-02,-1.246504336599999901e-01,2.053672634070000114e-02,1.000000000000000000e+00
2.815009346000000079e+00,-2.635865221179999995e+00,2.455302281269999831e-01,-9.373397699189998988e+00,-6.386376172299999820e-02,-1.254961788650000021e-01,1.121857203539999848e-02,1.000000000000000000e+00
2.820113780999999875e+00,-2.686694367929999938e+00,2.198057120230000050e-01,-9.455787228580000203e+00,-6.255716085430000628e-02,-1.151631325479999940e-01,3.235730901359999689e-02,1.000000000000000000e+00
2.824988578000000139e+00,-2.551632986530000036e+00,1.773559240300000006e-01,-9.517444351069999087e+00,-8.332722634080000357e-02,-1.245413497089999932e-01,2.509447745980000061e-02,1.000000000000000000e+00
2.830022092000000100e+00,-2.657072259859999619e+00,2.053789811329999881e-01,-9.473570138030000365e+00,-8.957949280740000464e-02,-1.280029714110000050e-01,3.102202899749999937e-02,1.000000000000000000e+00
2.835012874999999877e+00,-2.626827928249999999e+00,1.616728546689999990e-01,-9.420813530360000243e+00,-1.132644414900000063e-01,-1.427829265589999896e-01,4.325314611199999881e-02,1.000000000000000000e+00
2.840143777999999841e+00,-2.591101365830000169e+00,2.495205398730000190e-01,-9.438326390700000346e+00,-9.206667542459999465e-02,-1.716453135009999853e-01,4.044887796039999678e-02,1.000000000000000000e+00
2.845137041000000089e+00,-2.654327637329999767e+00,2.595952860979999777e-01,-9.533454405630001460e+00,-1.003986224530000054e-01,-1.992886215449999887e-01,4.244980961080000587e-02,1.000000000000000000e+00
2.850004497000000026e+00,-2.847429996549999842e+00,4.301261681469999987e-01,-9.555801262000001017e+00,-1.078834831709999942e-01,-2.207637876269999966e-01,5.345000326629999882e-02,1.000000000000000000e+00
2.855003062000000202e+00,-2.914053217009999752e+00,4.256470134390000215e-01,-9.424249350030001082e+00,-8.572842180730000372e-02,-2.264784127470000075e-01,5.158428847790000327e-02,1.000000000000000000e+00
2.859997681999999930e+00,-2.995875175650000166e+00,3.692831385189999649e-01,-9.500904135160000763e+00,-6.684039533140000156e-02,-2.353474646810000126e-01,6.220031157139999795e-02,1.000000000000000000e+00
2.865010364000000198e+00,-2.865306429499999918e+00,3.951444692780000101e-01,-9.500073529560001617e+00,-5.924115329980000205e-02,-2.380448132750000168e-01,5.098341405390000025e-02,1.000000000000000000e+00
2.870000570999999834e+00,-2.934133005230000091e+00,4.688188503630000281e-01,-9.523414073130000546e+00,-5.267086625099999531e-02,-2.224514931439999788e-01,5.647642537949999764e-02,1.000000000000000000e+00
2.875151896999999845e+00,-2.885015046309999942e+00,5.175194971790000320e-01,-9.526487489229999994e+00,-6.257672607900000017e-02,-2.321186065670000076e-01,4.284111782909999500e-02,1.000000000000000000e+00
2.879983472000000155e+00,-2.832196187059999648e+00,6.330117067630000038e-01,-9.478490643300000684e+00,-3.731459379200000037e-02,-2.230521887539999859e-01,4.533701762559999571e-02,1.000000000000000000e+00
2.885141071000000057e+00,-2.879381132080000238e+00,5.782681630539999729e-01,-9.498389521989999196e+00,-2.717646770179999935e-02,-2.226182520389999864e-01,5.127143859860000541e-02,1.000000000000000000e+00
2.890143162000000210e+00,-2.906198996380000121e+00,3.772999658340000506e-01,-9.508885781569999196e+00,-8.165270090100000891e-03,-2.506631016729999883e-01,5.034445598719999859e-02,1.000000000000000000e+00
2.895010222999999883e+00,-2.864771299709999663e+00,2.802005046930000076e-01,-9.565212064419998939e+00,-1.879235915840000298e-02,-2.528555095200000213e-01,6.587748974559999582e-02,1.000000000000000000e+00
2.900147830999999954e+00,-2.833971964559999890e+00,2.922634838600000062e-01,-9.537270749050000163e+00,-2.642027102409999842e-02,-2.561802566049999896e-01,7.624273747210000285e-02,1.000000000000000000e+00
2.905022643000000127e+00,-2.854728336860000049e+00,3.315252164020000003e-01,-9.541922958769999852e+00,6.238806992770000275e-03,-2.903254628180000352e-01,9.024862200020000724e-02,1.000000000000000000e+00
2.909982414999999989e+00,-2.817749728550000388e+00,4.241623643720000003e-01,-9.563687046810001036e+00,-1.716761849820000116e-02,-2.995310425759999950e-01,7.886295020580000315e-02,1.000000000000000000e+00
2.914969938000000038e+00,-2.878612193540000419e+00,3.756725838280000063e-01,-9.532266072629999698e+00,-1.057509984820000082e-02,-3.067135214810000066e-01,9.757301956419998923e-02,1.000000000000000000e+00
2.919967370000000173e+00,-2.788715357250000082e+00,4.062824242880000436e-01,-9.564968318789999202e+00,-2.489333227279999852e-02,-3.249692618849999715e-01,7.526697218420000390e-02,1.000000000000000000e+00
2.925150873999999845e+00,-2.876503530819999988e+00,3.838330939299999800e-01,-9.558097848500000993e+00,-2.970685437319999997e-02,-3.219489753249999975e-01,8.474002778530000113e-02,1.000000000000000000e+00
2.930056158999999827e+00,-2.966477523990000087e+00,4.719635050639999774e-01,-9.448518114360000553e+00,-1.050156168640000061e-02,-3.411460220809999777e-01,9.037230163809999162e-02,1.000000000000000000e+00
