t,ax,ay,az,wx,wy,wz,zv
5.172659999999999932e-03,-2.790293858610000122e+00,6.333016296200000284e-01,-9.394787693219999625e+00,-3.741037566209999901e-03,9.923568926750000324e-03,7.203320506960000057e-03,1.000000000000000000e+00
1.012699400000000027e-02,-2.696022168239999850e+00,6.368902286969999604e-01,-9.383515188580000554e+00,8.792778477069999182e-03,1.856085099279999873e-02,-3.932367544620000120e-03,1.000000000000000000e+00
1.509099199999999925e-02,-2.724730960859999662e+00,6.141705204320000444e-01,-9.400969596730000433e+00,1.736876741050000228e-02,-1.285362057390000007e-02,-4.916552454229999349e-03,1.000000000000000000e+00
2.004908799999999963e-02,-2.730727570920000069e+00,5.830313954010000188e-01,-9.425781381900000255e+00,-1.027851598340000141e-03,1.529896818100000104e-02,-3.132570534939999735e-03,1.000000000000000000e+00
2.499991400000000155e-02,-2.711180574409999711e+00,5.759779332250000161e-01,-9.416184116989999353e+00,1.155999582260000026e-02,6.129967048760000432e-03,-1.135947741570000023e-02,1.000000000000000000e+00
3.020596799999999971e-02,-2.748806248450000211e+00,6.296284210000000492e-01,-9.404457438839999739e+00,8.632884360850001312e-03,4.012232646349999689e-03,-3.605689620599999805e-03,1.000000000000000000e+00
3.502385499999999957e-02,-2.722162279409999996e+00,5.640868948249999626e-01,-9.409389634550000991e+00,-4.678653494919999363e-04,5.627973005180000182e-03,1.607923768460000095e-03,1.000000000000000000e+00
4.016551399999999938e-02,-2.744861894740000530e+00,6.010708368949999603e-01,-9.408799851960001348e+00,9.269099682570000349e-04,9.441277012229999654e-03,3.449743147940000001e-03,1.000000000000000000e+00
4.503847099999999659e-02,-2.692619666320000160e+00,6.082170188550000134e-01,-9.398747829019999500e+00,-1.746200956400000004e-02,9.921818971629999331e-03,-1.029175706210000082e-02,1.000000000000000000e+00
5.006322900000000076e-02,-2.744825946640000236e+00,6.009263503899999748e-01,-9.416585099009999738e+00,1.044522039590000013e-02,1.544303633270000149e-02,2.502111718059999920e-03,1.000000000000000000e+00
5.518961399999999795e-02,-2.737102658909999597e+00,5.998976649299999631e-01,-9.395295642739998954e+00,3.021218348290000133e-03,1.766705885529999687e-02,1.471259072420000140e-02,1.000000000000000000e+00
6.016129199999999816e-02,-2.703269362890000416e+00,5.857255298550000377e-01,-9.399998705870000748e+00,5.021685268729999749e-03,3.134116297590000110e-03,-1.058513671160000134e-02,1.000000000000000000e+00
6.518079499999999971e-02,-2.735322497499999894e+00,5.998506839830000104e-01,-9.410138991609999337e+00,-1.241366658360000021e-02,8.895938284700000490e-03,-1.089814491570000043e-02,1.000000000000000000e+00
7.014904700000000604e-02,-2.768793097680000148e+00,5.940290286239999773e-01,-9.399114324250000152e+00,-1.342479605229999866e-02,1.106135174629999975e-02,1.551402732730000058e-03,1.000000000000000000e+00
7.521011700000000688e-02,-2.737919820510000157e+00,6.142051533540000552e-01,-9.400706561880001644e+00,-5.229109432550000172e-03,-1.262232847509999964e-02,2.694511320440000184e-03,1.000000000000000000e+00
8.006997899999999946e-02,-2.737724882459999787e+00,6.249767227370000011e-01,-9.388017176169999090e+00,-7.541484199459999940e-03,1.118192356079999832e-02,9.945787489409999710e-03,1.000000000000000000e+00
8.517344100000000251e-02,-2.713767960550000247e+00,6.054958502630000128e-01,-9.447021738330001028e+00,7.142920512710000842e-04,-6.542118266220000450e-03,-3.803038271139999680e-03,1.000000000000000000e+00
9.020549399999999718e-02,-2.723663916150000031e+00,5.900391552709999266e-01,-9.442410445140000164e+00,8.814996108410000017e-03,4.403623752300000354e-04,-7.746274583040000002e-03,1.000000000000000000e+00
9.498764799999999398e-02,-2.730031697609999863e+00,6.355407868490000611e-01,-9.400306164380001661e+00,6.369767710569998811e-03,1.384647935630000000e-02,5.334133747970000190e-04,1.000000000000000000e+00
1.001836859999999940e-01,-2.738280470519999898e+00,6.233712603019999632e-01,-9.443545586649999990e+00,1.329803094270000027e-02,-8.172881789509998940e-03,-1.175867975690000075e-03,1.000000000000000000e+00
1.051881880000000019e-01,-2.756041460400000087e+00,6.034897346049999944e-01,-9.411854563360000370e+00,4.452192690219999860e-03,-1.307171024379999782e-02,-3.098408458750000205e-03,1.000000000000000000e+00
1.101596640000000044e-01,-2.753389192319999790e+00,6.308671690150000622e-01,-9.407432655260000942e+00,1.713832281530000209e-02,1.563854515549999852e-02,-3.698555752639999875e-03,1.000000000000000000e+00
1.150178719999999932e-01,-2.733247737049999682e+00,5.868919067539999368e-01,-9.400182245739998166e+00,-2.736947499219999965e-03,-3.682673443110000104e-03,-1.065220311280000096e-02,1.000000000000000000e+00
1.201691349999999964e-01,-2.780213486359999653e+00,6.011890929800000061e-01,-9.393414651300000529e+00,-1.701241475529999964e-03,5.329418927430000681e-03,1.134848408400000036e-02,1.000000000000000000e+00
1.250663969999999958e-01,-2.733060105519999894e+00,6.299794263950000417e-01,-9.370586733419999703e+00,2.998396754260000338e-03,7.749183103440000255e-03,2.866021357479999875e-03,1.000000000000000000e+00
1.301444310000000049e-01,-2.723157720190000131e+00,6.321573549560000060e-01,-9.384389048799999244e+00,-4.357816651460000128e-03,5.426273681220000235e-03,9.233553428200000877e-04,1.000000000000000000e+00
1.351350799999999908e-01,-2.704563202099999675e+00,6.153428521470000190e-01,-9.397765247729999771e+00,-6.562606431540000257e-03,1.352963410320000108e-02,-3.946021664889999905e-03,1.000000000000000000e+00
1.401477959999999912e-01,-2.745224006050000387e+00,6.106704033560000910e-01,-9.399311892649999223e+00,5.841456353659999802e-03,5.165328271689999771e-03,-2.156326547269999793e-03,1.000000000000000000e+00
1.450255350000000110e-01,-2.725986513880000128e+00,6.070633918399999107e-01,-9.397352575270000230e+00,3.746023867280000221e-03,1.467845868320000224e-04,-2.271784469489999611e-03,1.000000000000000000e+00
1.501679649999999866e-01,-2.713904446420000394e+00,6.011236995929999383e-01,-9.390569198739999734e+00,1.630811952050000013e-02,1.526991836729999809e-02,-1.262885052710000042e-03,1.000000000000000000e+00
1.551551589999999869e-01,-2.706499138600000354e+00,6.321160730979999975e-01,-9.384702937060000139e+00,1.035991404210000015e-02,8.868626318870000830e-03,-6.208397448060000608e-03,1.000000000000000000e+00
1.601112399999999880e-01,-2.699789119559999673e+00,6.309703371289999696e-01,-9.382133378829999870e+00,3.814300987869999847e-03,1.838849112390000123e-02,-1.762858591970000235e-02,1.000000000000000000e+00
1.651239700000000088e-01,-2.711944252259999910e+00,6.329132878900000092e-01,-9.421123326960001876e+00,7.436256390060000387e-03,-7.428416050970000108e-03,-8.863262832159999119e-03,1.000000000000000000e+00
1.702249720000000022e-01,-2.734609088530000065e+00,6.189876383899999279e-01,-9.393865317679999549e+00,8.319968357680000703e-03,9.976271539930000112e-03,-4.478017799560000609e-03,1.000000000000000000e+00
1.751943489999999992e-01,-2.749656727799999700e+00,6.239399270350000082e-01,-9.376819490329999951e+00,1.292890682820000033e-02,6.441403180360000431e-03,9.334981441500000412e-04,1.000000000000000000e+00
1.801436200000000043e-01,-2.722986455280000051e+00,6.499823499819999961e-01,-9.381295758960000342e+00,4.095306620000000071e-03,3.483497770499999636e-03,5.155395250770000368e-03,1.000000000000000000e+00
1.851477649999999919e-01,-2.724840266449999771e+00,6.118872683330000006e-01,-9.394654422230001245e+00,5.418289918449999826e-03,1.234668958930000039e-02,-1.599806942979999915e-03,1.000000000000000000e+00
1.900749160000000104e-01,-2.743469563600000161e+00,6.093767468169999368e-01,-9.403439201710000361e+00,-6.654072552920000175e-03,2.574488893149999916e-02,9.043186902999999360e-03,1.000000000000000000e+00
1.951882550000000049e-01,-2.697175429929999702e+00,5.899256484260000377e-01,-9.451074813110000861e+00,-5.655834916979999953e-03,5.280287005010000055e-03,-2.928433008489999753e-03,1.000000000000000000e+00
2.000454489999999863e-01,-2.736020124370000417e+00,5.986613280679999871e-01,-9.410130223779999525e+00,1.058343425389999919e-02,4.023844376209999730e-04,-2.895540092139999456e-03,1.000000000000000000e+00
2.051972539999999956e-01,-2.746152811329999999e+00,6.404002095790000126e-01,-9.393995081539999958e+00,6.254052743319999698e-03,2.470881305629999899e-02,6.945215631279999871e-03,1.000000000000000000e+00
2.101000839999999925e-01,-2.722415669649999703e+00,5.817930127120000128e-01,-9.436173596579999767e+00,1.524002756920000111e-02,-5.528372712429999907e-04,-1.353855594059999922e-03,1.000000000000000000e+00
2.151110460000000002e-01,-2.723295375099999749e+00,6.152719058030000632e-01,-9.427277173410001154e+00,1.110864430670000132e-02,7.289287634189999324e-03,-2.294439636170000213e-02,1.000000000000000000e+00
2.201953480000000130e-01,-2.765898253029999587e+00,6.010217005229999687e-01,-9.414745024100000137e+00,2.363736554980000112e-02,-1.443275599740000007e-03,-1.071493700149999881e-02,1.000000000000000000e+00
2.251947099999999924e-01,-2.798235465269999889e+00,6.049507470680000054e-01,-9.377482338150000984e+00,2.217392250899999709e-02,5.529811605810000183e-03,1.259851455689999997e-02,1.000000000000000000e+00
2.299803900000000068e-01,-2.718985987459999976e+00,5.893129964209999905e-01,-9.398764195639998320e+00,1.014062436299999881e-04,2.088796161120000036e-02,-5.872310139240000115e-03,1.000000000000000000e+00
2.351882570000000117e-01,-2.735745106819999606e+00,5.892773771179999898e-01,-9.384548623280000612e+00,1.293506100770000153e-02,8.537854067979999337e-03,6.791784893719999411e-03,1.000000000000000000e+00
2.402058179999999876e-01,-2.721874402379999669e+00,5.771089830819999822e-01,-9.422208199589999111e+00,-2.019598614419999740e-03,6.706512533129999759e-03,4.908874630930000656e-03,1.000000000000000000e+00
2.450692479999999895e-01,-2.645761761299999737e+00,5.853528971510000289e-01,-9.417319843019999581e+00,9.582630591470000115e-04,8.920476771889999934e-03,-1.801342517140000141e-02,1.000000000000000000e+00
2.501961990000000080e-01,-2.747267786840000170e+00,6.133115655149999901e-01,-9.360561013969999067e+00,7.409775163979999239e-03,7.804373744880001079e-04,-4.734570160510000701e-03,1.000000000000000000e+00
2.550569420000000087e-01,-2.735206762159999805e+00,5.844960245929999854e-01,-9.394723395810000710e+00,1.704305969179999852e-02,1.340358518060000108e-02,-1.548376050779999959e-03,1.000000000000000000e+00
2.602303850000000085e-01,-2.705581146970000184e+00,5.677341287539999781e-01,-9.392098892530000853e+00,3.498531877989999317e-03,1.033605309199999963e-03,5.307636689390000072e-03,1.000000000000000000e+00
2.651651629999999815e-01,-2.688044321229999589e+00,5.701071414949999694e-01,-9.397732514500001244e+00,6.213441956790000413e-04,1.660097576679999895e-02,-2.864754525940000490e-03,1.000000000000000000e+00
2.702140439999999866e-01,-2.689178585959999701e+00,6.260387259449999853e-01,-9.387879813530000561e+00,1.135582756250000033e-02,3.675553249199999852e-03,-2.055665012449999721e-03,1.000000000000000000e+00
2.751725850000000251e-01,-2.729894042709999802e+00,5.714546836469999169e-01,-9.389852574909999916e+00,1.824971637690000082e-03,4.295986145730000235e-04,-1.681205001660000115e-03,1.000000000000000000e+00
2.800903040000000122e-01,-2.719317703640000250e+00,5.667627264379999641e-01,-9.374832700429999832e+00,-2.952262293550000048e-03,2.537035197019999952e-02,2.437752671539999885e-03,1.000000000000000000e+00
2.850932190000000088e-01,-2.693632935020000119e+00,5.809555024420000047e-01,-9.381115141699998716e+00,1.089559588580000030e-02,8.023832924659999449e-03,-2.773271640760000510e-03,1.000000000000000000e+00
2.899645200000000034e-01,-2.692523804729999970e+00,6.036649815739999481e-01,-9.360376889570000358e+00,8.457815274599999461e-03,-4.915412515399999668e-03,1.425772905349999677e-03,1.000000000000000000e+00
2.951829650000000194e-01,-2.691808934459999580e+00,5.792628731800000264e-01,-9.432850005109999714e+00,8.060174994169999607e-03,2.799362177030000152e-03,3.127516712989999829e-03,1.000000000000000000e+00
3.000626960000000176e-01,-2.712078107770000024e+00,6.105878031070000045e-01,-9.391025710339999222e+00,2.898838836699999585e-03,1.858129724859999832e-02,9.993081912400000183e-03,1.000000000000000000e+00
3.052424429999999744e-01,-2.673760359809999709e+00,6.117404437410000062e-01,-9.391314464149999708e+00,-7.441284134979999666e-03,1.576749235390000059e-02,2.209199126809999799e-03,1.000000000000000000e+00
3.101409339999999792e-01,-2.704506503470000212e+00,5.721178237309999526e-01,-9.437322182089999956e+00,1.129774260330000018e-03,1.765624620019999922e-05,6.049397867169999631e-03,1.000000000000000000e+00
3.152036369999999810e-01,-2.688234583109999853e+00,6.118550830960000075e-01,-9.385984793560000483e+00,1.016308786349999927e-03,8.782558143139999516e-05,-4.108021501449999474e-03,1.000000000000000000e+00
3.202660800000000085e-01,-2.706999489329999786e+00,5.844753836639999811e-01,-9.397109414170000008e+00,-2.672681584949999998e-03,2.613187208770000047e-02,-1.530506275590000007e-02,1.000000000000000000e+00
3.252211269999999987e-01,-2.720022052510000066e+00,5.627419099570000194e-01,-9.426165412779999642e+00,-1.537017803640000103e-02,4.298714920880000213e-03,-9.716612286870001183e-03,1.000000000000000000e+00
3.301457139999999790e-01,-2.736887262599999815e+00,5.821769705279999929e-01,-9.376423184489999230e+00,-3.865253645929999943e-03,5.161129869520000683e-03,8.362108841539999185e-03,1.000000000000000000e+00
3.350743150000000115e-01,-2.670631121880000070e+00,5.806700365640000694e-01,-9.402229825919999229e+00,1.287303515710000153e-03,5.486948415640000021e-03,6.031595636160000384e-03,1.000000000000000000e+00
3.401009340000000214e-01,-2.653658652029999843e+00,5.913234594599999783e-01,-9.398239294979999769e+00,-2.104817423969999879e-03,5.898598581550000552e-03,7.341920863840000443e-03,1.000000000000000000e+00
3.451465349999999765e-01,-2.674732711979999955e+00,5.804522290950000496e-01,-9.428401793529999964e+00,-1.227615680549999991e-02,7.615668699149999096e-03,5.843547638510000232e-03,1.000000000000000000e+00
3.501996110000000217e-01,-2.666323780069999927e+00,6.107436877880000337e-01,-9.372011213269999530e+00,-7.673783111389999648e-04,-5.760410800580000393e-03,-9.374180808660001127e-03,1.000000000000000000e+00
3.552059260000000052e-01,-2.697631649269999876e+00,5.786479196190000840e-01,-9.373870577399999959e+00,-8.469923399390000968e-03,4.243384115399999670e-03,-1.377606019380000005e-02,1.000000000000000000e+00
3.601747479999999890e-01,-2.736282282440000380e+00,5.321919464580000536e-01,-9.381864498760000615e+00,4.739983472969999667e-03,8.512002415960000234e-03,1.135180471459999903e-03,1.000000000000000000e+00
3.651491450000000083e-01,-2.712939400780000287e+00,5.690852145689999642e-01,-9.389763727580000108e+00,2.990008797500000120e-04,-7.097823545340000220e-03,-8.374240249399998726e-03,1.000000000000000000e+00
3.702502839999999851e-01,-2.710510127799999669e+00,5.666847292989999341e-01,-9.379882969560000561e+00,2.977717667820000205e-03,1.474664919079999963e-02,-3.875419730319999961e-03,1.000000000000000000e+00
3.751233310000000043e-01,-2.712739786549999810e+00,5.830406381530000015e-01,-9.410109765510000557e+00,2.797865774480000171e-03,7.466644048689999660e-03,6.731854286040000503e-03,1.000000000000000000e+00
3.801993770000000050e-01,-2.683803322659999768e+00,5.460694459670000223e-01,-9.416174764639999140e+00,-5.360694136469999413e-03,-9.678446687760000264e-03,8.983198553319998725e-03,1.000000000000000000e+00
3.850603799999999799e-01,-2.694386968259999904e+00,5.768957421899999494e-01,-9.434973573139998848e+00,-8.368487469850001761e-03,-4.427210427819999912e-03,7.706631440669999868e-03,1.000000000000000000e+00
3.901849050000000263e-01,-2.676420518930000103e+00,6.436940634929999572e-01,-9.403906819219999491e+00,-1.145169511439999947e-02,6.497617810960000344e-03,8.843965828419999772e-03,1.000000000000000000e+00
3.952068930000000035e-01,-2.659496272140000173e+00,6.510627656299999844e-01,-9.385476844039999378e+00,1.548874843870000004e-02,-3.026182996110000131e-03,-8.931996300819998458e-03,1.000000000000000000e+00
4.000562489999999749e-01,-2.757135100849999798e+00,6.534804212310000304e-01,-9.391883788470000383e+00,1.553132664409999884e-02,-1.370967598630000233e-03,9.664632380010000287e-03,1.000000000000000000e+00
4.052261879999999872e-01,-2.701956234470000329e+00,6.474993740600000214e-01,-9.394328843540000307e+00,-5.064033903180000309e-03,1.633688062429999865e-02,1.905902754519999982e-03,1.000000000000000000e+00
4.101968590000000248e-01,-2.696468742970000054e+00,5.845108933690000841e-01,-9.384581941030001317e+00,-1.537566166370000001e-02,2.670835470780000363e-03,-4.276616498830000321e-03,1.000000000000000000e+00
4.151392529999999859e-01,-2.726566651850000245e+00,5.701862711460000677e-01,-9.391558794299999846e+00,-1.024709548799999925e-02,8.259164169430000674e-03,3.539190161969999696e-03,1.000000000000000000e+00
4.202038909999999960e-01,-2.699799640959999358e+00,5.479306732619999565e-01,-9.364272143450000030e+00,4.665978252890000920e-03,-1.472324132920000035e-02,-1.768696494399999916e-02,1.000000000000000000e+00
4.252195850000000110e-01,-2.698617153170000282e+00,5.248759243559999454e-01,-9.388750166619999504e+00,-7.891258574089999233e-04,5.311727523799999497e-03,-4.969080910090000608e-03,1.000000000000000000e+00
4.301831509999999859e-01,-2.703002528649999903e+00,5.489158483739999816e-01,-9.376976726719998823e+00,-1.169104967270000184e-02,-4.891172051430000937e-03,-1.115204393860000018e-02,1.000000000000000000e+00
4.351907269999999994e-01,-2.696725055819999994e+00,5.553250212970000099e-01,-9.442733685739998606e+00,-7.634633220729999427e-03,-1.200901623820000048e-02,1.996006350960000033e-03,1.000000000000000000e+00
4.401968720000000168e-01,-2.653414029619999948e+00,5.930361816620000059e-01,-9.480210891220000491e+00,-1.088050287219999995e-02,1.577628077939999913e-03,-3.021687269210000110e-03,1.000000000000000000e+00
4.451962760000000019e-01,-2.693195712649999685e+00,6.293109525490000467e-01,-9.419128938270000972e+00,-2.947376575320000223e-03,9.496263228360000627e-03,3.478953149170000043e-03,1.000000000000000000e+00
4.501551939999999807e-01,-2.642919523609999821e+00,6.112233610639999926e-01,-9.434248181470000105e+00,2.158169634639999987e-03,-1.765456795689999969e-02,6.469124928119998966e-04,1.000000000000000000e+00
4.552416499999999977e-01,-2.702893223059999794e+00,5.797672790380000718e-01,-9.375526527910000851e+00,-8.099095895889999938e-03,-1.274748239670000019e-02,6.865928415210000371e-03,1.000000000000000000e+00
4.601961980000000008e-01,-2.672972716569999907e+00,5.699982012280000454e-01,-9.401903662709999665e+00,-5.989605560899999466e-03,3.548609325659999713e-03,1.371133606880000104e-03,1.000000000000000000e+00
4.652365720000000149e-01,-2.683905613990000383e+00,5.639884394190000094e-01,-9.405680843160000748e+00,-3.949481528249999644e-03,-3.815679810939999819e-03,5.666232202200000012e-03,1.000000000000000000e+00
4.702184819999999932e-01,-2.656279648179999953e+00,4.245264484440000596e-01,-9.432605674960001352e+00,3.769107628610000264e-03,4.814395215360000517e-04,4.451028537010000806e-03,1.000000000000000000e+00
4.752390619999999899e-01,-2.621168587309999687e+00,3.414270902790000339e-01,-9.401825336769999097e+00,-2.080093696709999981e-02,-1.226702984420000031e-02,-5.406606942419999785e-05,1.000000000000000000e+00
4.802343559999999734e-01,-2.626760708229999963e+00,2.601699624469999694e-01,-9.437546638489999751e+00,-1.598392799500000100e-02,-6.375923752780000148e-03,7.333008106799999634e-03,1.000000000000000000e+00
4.851577750000000133e-01,-2.551169168409999966e+00,3.952918053270000343e-01,-9.331640039910000795e+00,-3.526383265849999948e-02,-2.069775573909999819e-02,5.506732035430000373e-03,1.000000000000000000e+00
4.902298119999999870e-01,-2.642701789209999763e+00,6.190344732060000243e-01,-9.347821943910000542e+00,-3.967959433789999824e-02,-1.919618248940000230e-02,1.312551833690000017e-02,1.000000000000000000e+00
4.951625840000000167e-01,-2.606604347649999820e+00,6.422318089209999581e-01,-9.421573993339999120e+00,-2.479821629820000081e-02,-2.331443317229999618e-02,-4.285383503880000472e-03,1.000000000000000000e+00
5.000271630000000522e-01,-2.690037248619999932e+00,5.700463512190000470e-01,-9.385938031810001192e+00,-2.676308900119999876e-02,-2.601615898310000174e-02,1.176075823610000029e-02,1.000000000000000000e+00
5.051769569999999820e-01,-2.658918764509999644e+00,4.295336821459999621e-01,-9.401768638150000967e+00,-4.484777525069999493e-02,-4.662294872109999655e-03,1.441754400729999830e-02,1.000000000000000000e+00
5.100710939999999471e-01,-2.632339092879999676e+00,4.104528783730000407e-01,-9.407586969039998692e+00,-3.561509773140000140e-02,-1.514600496739999802e-02,3.358443733300000168e-03,1.000000000000000000e+00
5.151110370000000493e-01,-2.639102303410000072e+00,4.782307852980000051e-01,-9.412668802349999808e+00,-7.330313324930000374e-02,-2.080634981390000124e-02,-7.356794551010000481e-03,1.000000000000000000e+00
5.201818209999999887e-01,-2.755164385299999630e+00,5.711348405749999690e-01,-9.417914301789998888e+00,-5.539184436200000200e-02,-2.812397666280000083e-02,1.685217581689999952e-02,1.000000000000000000e+00
5.252165789999999612e-01,-2.714241715550000045e+00,6.416307012219999439e-01,-9.384776002289999752e+00,-8.700145035980001718e-02,-2.783969976009999930e-02,1.594660803679999808e-02,1.000000000000000000e+00
5.301905180000000550e-01,-2.727047421109999981e+00,6.855280759420000480e-01,-9.397076096419999303e+00,-7.087062299250000696e-02,-1.552973408250000152e-02,2.251691930000000036e-02,1.000000000000000000e+00
5.351284699999999672e-01,-2.751326414579999824e+00,7.676341852860000259e-01,-9.414097373849999784e+00,-5.001209303740000028e-02,2.677255077289999834e-03,1.587799563999999983e-02,1.000000000000000000e+00
5.402088830000000286e-01,-2.834178885309999618e+00,8.192189727030000368e-01,-9.376571653050000066e+00,-4.965220764280000448e-02,-4.340672399850000612e-03,3.549566492440000415e-02,1.000000000000000000e+00
5.451707479999999828e-01,-2.740908188679999746e+00,7.990806592329999791e-01,-9.369119583479999847e+00,-5.331156402830000002e-02,-2.670929767190000081e-02,4.964653402569999333e-03,1.000000000000000000e+00
5.500891100000000478e-01,-2.818767381159999807e+00,7.547064607819999882e-01,-9.427305230469999131e+00,-4.598673060539999746e-02,-1.645721681419999929e-02,-5.843377206470000244e-03,1.000000000000000000e+00
5.551826429999999757e-01,-2.859341968140000301e+00,7.216700872949999290e-01,-9.394949021260000421e+00,-3.880329802630000380e-02,4.678392782809999949e-03,5.635070148859999684e-03,1.000000000000000000e+00
5.601600690000000382e-01,-2.854820399059999403e+00,8.488742523850000277e-01,-9.413049910619999849e+00,-4.441053420309999666e-02,-3.080307506019999784e-03,2.409616950900000075e-03,1.000000000000000000e+00
5.650306840000000053e-01,-2.854459749049999662e+00,8.955033901560000009e-01,-9.387024657999999633e+00,-2.934151515359999934e-02,5.484092980619999572e-03,-3.020533826200000067e-03,1.000000000000000000e+00
5.702045070000000271e-01,-2.886403870320000120e+00,8.788526996059999874e-01,-9.382440837339999007e+00,-3.146753460170000072e-02,-9.172904305160000521e-03,1.319940946999999948e-02,1.000000000000000000e+00
5.750414270000000494e-01,-2.795518899779999789e+00,7.810458208490000942e-01,-9.399436980329999969e+00,-9.138363413510000588e-03,2.316410886119999943e-03,5.508339963850000364e-04,1.000000000000000000e+00
5.801613439999999677e-01,-2.749685077109999654e+00,7.247644731129999629e-01,-9.408607544260000566e+00,3.530740737919999938e-03,-4.340499639509999910e-03,6.760669406499999860e-03,1.000000000000000000e+00
5.850685780000000058e-01,-2.710165844409999636e+00,7.415537684159999587e-01,-9.384279743210001357e+00,-4.889520816500000054e-03,4.913236945870000025e-03,3.364778589460000035e-03,1.000000000000000000e+00
5.901980749999999887e-01,-2.668034675639999964e+00,6.944615431780000181e-01,-9.458400625950000418e+00,-1.879802672189999921e-03,1.552814245220000139e-02,-1.285217143600000077e-02,1.000000000000000000e+00
5.952160180000000134e-01,-2.694474646540000240e+00,6.945978829090000417e-01,-9.431733568300000314e+00,2.710004802790000073e-03,4.320439882580000106e-03,-2.130398061129999861e-03,1.000000000000000000e+00
5.999915749999999992e-01,-2.707601546879999432e+00,6.791332603380000332e-01,-9.457270160619998478e+00,1.152990735140000094e-03,4.099846817550000661e-03,-1.599043793979999795e-02,1.000000000000000000e+00
6.052006070000000015e-01,-2.756551163490000178e+00,7.197514672570000105e-01,-9.436144370479999210e+00,-2.860831562430000020e-03,-4.637980833649999607e-03,-3.920082468539999414e-03,1.000000000000000000e+00
6.102110699999999666e-01,-2.754829454259999810e+00,7.102518175059999717e-01,-9.434844393800000617e+00,3.093692008410000010e-03,8.767312392589999767e-03,6.587277632209999519e-03,1.000000000000000000e+00
6.150771160000000348e-01,-2.711679463839999915e+00,7.034791815659999781e-01,-9.399709952050001149e+00,1.478457171470000213e-02,5.201754160229999681e-03,-1.345203071829999958e-02,1.000000000000000000e+00
6.201965249999999985e-01,-2.711804259270000017e+00,6.651570496950000022e-01,-9.417024074949999601e+00,1.482242811470000157e-02,1.111218333240000106e-02,-1.790485158559999845e-02,1.000000000000000000e+00
6.250957099999999711e-01,-2.737103827959999958e+00,6.836733149210000304e-01,-9.338472516279999525e+00,1.164635270829999895e-02,1.225421112030000009e-02,-8.586023002860000350e-03,1.000000000000000000e+00
6.301893689999999992e-01,-2.751169178190000064e+00,6.380282928159999312e-01,-9.396152551830001087e+00,1.395665947350000109e-02,1.207455899570000074e-02,1.265367027370000027e-04,1.000000000000000000e+00
6.351438959999999856e-01,-2.665160873770000105e+00,6.202904646169999925e-01,-9.380753907169999906e+00,2.877803333099999972e-02,2.242437796669999837e-03,-3.086445853110000165e-02,1.000000000000000000e+00
6.401945799999999576e-01,-2.759665788379999984e+00,6.060265596060000481e-01,-9.377240346089999790e+00,-2.434187335889999824e-03,7.795072160660000823e-04,-1.073788851500000023e-02,1.000000000000000000e+00
6.450461100000000059e-01,-2.685853825450000176e+00,6.153313809049999472e-01,-9.386709016180001086e+00,1.502522360530000010e-02,4.063283093270000229e-03,-9.879866614939999264e-03,1.000000000000000000e+00
6.500752859999999744e-01,-2.657087457429999855e+00,5.440313642680000283e-01,-9.376793771370000030e+00,1.904732361440000105e-02,2.555229002609999897e-03,-2.120970375840000241e-02,1.000000000000000000e+00
6.551970830000000134e-01,-2.662375626969999853e+00,4.477504895019999709e-01,-9.478950662029999918e+00,2.975587919349999971e-02,1.161984866479999967e-03,-4.549976438279999813e-03,1.000000000000000000e+00
6.602047170000000520e-01,-2.591996561100000207e+00,4.586814141650000232e-01,-9.448334574489999582e+00,1.805374026299999893e-02,-1.727151684459999822e-02,-1.814974844459999945e-02,1.000000000000000000e+00
6.651675940000000287e-01,-2.655640181229999897e+00,4.876312855239999799e-01,-9.400126716160000839e+00,9.352277964350000014e-03,-3.074516169729999901e-02,2.837943378840000492e-03,1.000000000000000000e+00
6.702013249999999589e-01,-2.684937295130000123e+00,5.321053641529999156e-01,-9.382410442210000312e+00,1.822983846070000066e-02,-2.965865470469999932e-02,-5.380667280409999476e-03,1.000000000000000000e+00
6.751974330000000135e-01,-2.776310925969999843e+00,6.275657893819999167e-01,-9.369608828300000525e+00,2.701357193290000389e-02,-3.500618785620000090e-02,5.730102304369999629e-03,1.000000000000000000e+00
6.801550969999999863e-01,-2.749332610410000211e+00,7.635342756859999636e-01,-9.327604500790000586e+00,8.157708682120000734e-03,-3.401983529330000061e-02,2.436292823400000151e-03,1.000000000000000000e+00
6.850469949999999919e-01,-2.783368151000000346e+00,8.124982861460000594e-01,-9.325320773759999682e+00,2.783160284159999845e-02,-3.507846221330000042e-02,-8.722575381399999897e-03,1.000000000000000000e+00
6.900381270000000011e-01,-2.829357456499999923e+00,6.759506117139999493e-01,-9.309189138649999862e+00,1.601856760680000005e-02,-2.151767350730000167e-02,-1.095561683180000002e-02,1.000000000000000000e+00
6.952149010000000517e-01,-2.772140946810000006e+00,5.363624370759999538e-01,-9.334864262660000023e+00,8.660200051959998646e-03,4.993995651600000724e-03,-1.426307298239999979e-02,1.000000000000000000e+00
6.999963780000000302e-01,-2.733184900950000440e+00,5.771187372909999391e-01,-9.420918159780001133e+00,2.089152857659999640e-02,-1.855223788879999981e-03,-1.891719549890000240e-02,1.000000000000000000e+00
7.050479060000000020e-01,-2.725582316990000198e+00,6.735606478380000706e-01,-9.401904247230000067e+00,1.736210845409999828e-02,3.736306214710000215e-03,-1.747596450149999786e-02,1.000000000000000000e+00
7.101877960000000378e-01,-2.716502646219999928e+00,7.094880665920000329e-01,-9.373550843920000375e+00,1.312742847950000048e-02,1.178771629929999815e-02,-2.032669074829999978e-02,1.000000000000000000e+00
7.151069869999999717e-01,-2.693518660990000146e+00,6.468847492929999943e-01,-9.316301601000001043e+00,2.098959870640000266e-02,-2.299420302730000292e-03,-2.679060026999999927e-02,1.000000000000000000e+00
7.201955500000000177e-01,-2.734633053930000113e+00,5.599402234749999430e-01,-9.329948433560000254e+00,1.450499426570000042e-02,6.051837466659999720e-03,-1.302811503410000044e-02,1.000000000000000000e+00
7.251934930000000223e-01,-2.734690337069999977e+00,6.023948885729999425e-01,-9.380939200610001194e+00,4.151926841590000174e-03,5.306233651939999858e-03,-9.940385818480000288e-03,1.000000000000000000e+00
7.300129869999999466e-01,-2.729364173610000055e+00,7.049187859150000124e-01,-9.367626714570000956e+00,-3.402851056310000205e-03,1.398330926900000042e-02,-2.578390575950000041e-02,1.000000000000000000e+00
7.350248590000000304e-01,-2.743384223399999655e+00,6.573685877759999352e-01,-9.358172073010001313e+00,-1.949540805070000072e-03,8.540744893249999428e-03,-2.692685276270000150e-02,1.000000000000000000e+00
7.401489009999999702e-01,-2.718668007559999822e+00,5.814730600430000340e-01,-9.328048152899999224e+00,9.450969286260000116e-03,2.806921675799999710e-02,-3.636483475570000123e-02,1.000000000000000000e+00
7.450424989999999692e-01,-2.764219213899999694e+00,6.014429946750000644e-01,-9.371324400049999781e+00,5.907960236069999781e-03,1.700282655660000086e-02,-4.016853868959999879e-02,1.000000000000000000e+00
7.500606119999999599e-01,-2.742679582260000082e+00,6.537146683780000744e-01,-9.353227602340000502e+00,2.094473689790000287e-02,1.154444459829999901e-02,-2.339131385090000015e-02,1.000000000000000000e+00
7.551965779999999517e-01,-2.691157192559999967e+00,6.988713224439999649e-01,-9.363891619700000390e+00,1.472247485070000105e-02,2.785913832489999784e-02,-3.983800113199999909e-02,1.000000000000000000e+00
7.600642300000000073e-01,-2.702658537520000515e+00,6.378201299580000816e-01,-9.394292018659999854e+00,2.832575514910000078e-02,3.383105248209999916e-02,-3.266220912340000310e-02,1.000000000000000000e+00
7.651632809999999729e-01,-2.670537013849999752e+00,6.638179831109999318e-01,-9.420281030920000021e+00,4.558472335339999737e-02,1.240582205359999982e-02,-4.961805790659999660e-02,1.000000000000000000e+00
7.701833529999999595e-01,-2.751874696109999796e+00,9.047874974600000897e-01,-9.366460593400001144e+00,3.241332992910000294e-02,1.294725760819999925e-02,-5.781332775949999531e-02,1.000000000000000000e+00
7.750224000000000002e-01,-2.713810630649999833e+00,1.008919487590000053e+00,-9.403599360710000354e+00,3.563280776140000106e-02,9.189020842309998660e-03,-5.411197990180000722e-02,1.000000000000000000e+00
7.799674530000000328e-01,-2.696835530450000018e+00,8.306020981129998981e-01,-9.384896413799999948e+00,6.061257794499999574e-02,1.563778705889999968e-02,-5.074334889649999986e-02,1.000000000000000000e+00
7.850331710000000296e-01,-2.713891586929999988e+00,7.083663690850000583e-01,-9.365226667689999118e+00,5.516346544030000659e-02,2.185292728250000024e-02,-5.429314821959999732e-02,1.000000000000000000e+00
7.900665089999999724e-01,-2.734346638199999902e+00,5.652770544580000278e-01,-9.405949138700000489e+00,7.352154701949999149e-02,2.448866143819999897e-02,-4.742811992760000150e-02,1.000000000000000000e+00
7.949948049999999711e-01,-2.689505333700000111e+00,5.697362623560000561e-01,-9.434995784969999022e+00,6.881503015760000175e-02,3.175782039760000064e-02,-5.671118572350000026e-02,1.000000000000000000e+00
7.999734240000000440e-01,-2.670882758549999902e+00,5.419885698619999470e-01,-9.463406471419999022e+00,5.855807289480000760e-02,1.795751601459999805e-02,-5.502650886769999694e-02,1.000000000000000000e+00
8.051598869999999630e-01,-2.713178470229999917e+00,5.531762457650000187e-01,-9.421921783860000232e+00,4.261733219030000575e-02,1.731270179150000074e-02,-4.932244122030000205e-02,1.000000000000000000e+00
8.099928339999999949e-01,-2.735238034079999991e+00,5.059861496430000383e-01,-9.389671957639999178e+00,3.490291908380000613e-02,1.445044018329999860e-02,-4.796732589599999458e-02,1.000000000000000000e+00
8.149258040000000314e-01,-2.757861661559999789e+00,5.003628298679999586e-01,-9.358195453880000514e+00,1.910418085749999995e-02,1.193636655810000058e-02,-4.240395128729999852e-02,1.000000000000000000e+00
8.198686720000000205e-01,-2.740131943610000231e+00,5.396530030539999911e-01,-9.357059143329999884e+00,3.871596232059999754e-02,2.395860617980000162e-03,-4.982385784389999767e-02,1.000000000000000000e+00
8.248714299999999611e-01,-2.774146149150000351e+00,5.346170912459999869e-01,-9.380314346709999640e+00,4.136583954100000321e-02,1.791204139590000383e-02,-2.899707667529999658e-02,1.000000000000000000e+00
8.301151100000000449e-01,-2.686947758170000533e+00,5.378892813169999787e-01,-9.407105907520000088e+00,2.178085595370000266e-02,3.267800807949999831e-02,-4.348074272269999291e-02,1.000000000000000000e+00
8.350945570000000151e-01,-2.708385975259999690e+00,6.202210526429999815e-01,-9.390094566970001111e+00,2.617986500259999669e-02,2.166034653779999944e-02,-6.279780715699999349e-02,1.000000000000000000e+00
8.399453730000000506e-01,-2.787051515689999981e+00,6.977220793440001012e-01,-9.355776702300000025e+00,1.878637634220000144e-02,1.007271371779999876e-02,-2.608890831469999963e-02,1.000000000000000000e+00
8.448935170000000383e-01,-2.683400587079999955e+00,6.427402698990000163e-01,-9.381947500869999956e+00,2.077096141870000273e-02,3.215869888659999426e-02,-3.660561516880000282e-02,1.000000000000000000e+00
8.501821320000000348e-01,-2.662400761409999816e+00,6.316166722079999962e-01,-9.405114441449999418e+00,2.011724002659999802e-02,2.145417220889999851e-02,-2.684847638009999968e-02,1.000000000000000000e+00
8.551909659999999969e-01,-2.652884452789999958e+00,7.030861636599999853e-01,-9.391453580360000331e+00,2.941166795790000482e-02,3.019334189590000203e-02,-1.950246654450000020e-02,1.000000000000000000e+00
8.601602689999999773e-01,-2.552276252870000040e+00,6.824423848859999531e-01,-9.433535064770000034e+00,5.007398501040000172e-02,2.522453665730000141e-02,-5.512798950080000093e-02,1.000000000000000000e+00
8.651495780000000302e-01,-2.749323258059999997e+00,7.287057580850000438e-01,-9.467121108029999732e+00,4.921608418230000170e-02,2.177410945299999845e-02,-1.376094110310000125e-02,1.000000000000000000e+00
8.701849699999999466e-01,-2.595110016950000098e+00,7.241318012330000276e-01,-9.438945399380001433e+00,4.102022573350000423e-02,2.629586309190000068e-02,-4.246947541830000533e-02,1.000000000000000000e+00
8.752083699999999578e-01,-2.684740018989999921e+00,6.548976676179999457e-01,-9.472658283889998643e+00,5.243990942840000280e-02,8.572502061719999844e-03,-3.220752254130000020e-02,1.000000000000000000e+00
8.801781419999999967e-01,-2.611213887269999923e+00,6.097203726230000509e-01,-9.451008762140000741e+00,6.023490056400000042e-02,5.473132245239999659e-03,-3.598258271809999520e-02,1.000000000000000000e+00
8.851426879999999553e-01,-2.629179459809999564e+00,5.371760915459999897e-01,-9.441502682639999477e+00,5.290548130869999338e-02,2.241829410199999706e-02,-2.080732025209999780e-02,1.000000000000000000e+00
8.900497830000000388e-01,-2.592202605069999777e+00,4.037698934780000193e-01,-9.464300789910000233e+00,5.602092295889999490e-02,8.186761289829999275e-03,-2.623025886709999879e-02,1.000000000000000000e+00
8.950869900000000268e-01,-2.531946873809999943e+00,3.095264793560000283e-01,-9.472446686960001472e+00,5.539896711709999672e-02,1.735778152940000221e-02,-3.326417878270000045e-02,1.000000000000000000e+00
9.000085079999999849e-01,-2.501635906699999801e+00,2.626439696119999834e-01,-9.501513206969999459e+00,6.001985818149999791e-02,1.085602864620000170e-02,-2.141232229770000106e-02,1.000000000000000000e+00
9.052048870000000136e-01,-2.532852298219999909e+00,3.086644191660000147e-01,-9.572606266330000224e+00,3.090871684249999959e-02,4.435695707799999950e-03,-2.875066176059999992e-02,1.000000000000000000e+00
9.101262549999999951e-01,-2.643823486709999671e+00,3.902540303549999479e-01,-9.527669977010001290e+00,2.698385529219999787e-02,-9.060290642079998902e-03,-2.453086152670000061e-02,1.000000000000000000e+00
9.152108429999999961e-01,-2.805212903060000151e+00,3.771699097129999623e-01,-9.442752390439999033e+00,1.741942204540000011e-02,-1.837321557100000252e-02,-2.679598517719999733e-03,1.000000000000000000e+00
9.202211820000000264e-01,-2.637057061320000173e+00,3.283100172150000273e-01,-9.417490523419999704e+00,1.569939777260000169e-02,-2.746493928129999790e-02,-2.239407598970000191e-02,1.000000000000000000e+00
9.252172920000000245e-01,-2.609119837599999769e+00,3.957965034459999809e-01,-9.427017061169999934e+00,1.882628351450000084e-02,-6.007478572430000226e-03,-2.347950823609999682e-02,1.000000000000000000e+00
9.301072660000000436e-01,-2.605571205209999963e+00,4.667204167790000024e-01,-9.475450544950000165e+00,7.956441491839999144e-03,-1.199236139660000110e-02,-2.280867844820000379e-02,1.000000000000000000e+00
9.351831520000000175e-01,-2.639200210829999893e+00,4.682124819680000272e-01,-9.464242922240000411e+00,1.255396660420000053e-02,-2.889970131219999835e-02,-3.424111753699999455e-02,1.000000000000000000e+00
9.400536470000000477e-01,-2.692090089490000171e+00,4.506270678509999850e-01,-9.437654775039998611e+00,7.948238402609998990e-03,-2.783299796279999766e-02,-2.247726731000000006e-02,1.000000000000000000e+00
9.452318379999999909e-01,-2.728040523799999839e+00,5.303532597890000533e-01,-9.446866840029999324e+00,-1.229143352250000034e-03,-4.034804552790000054e-02,-8.208606392150000208e-03,1.000000000000000000e+00
9.501032329999999915e-01,-2.712712606280000216e+00,6.104610714549999484e-01,-9.407488769360000447e+00,-1.456029433759999971e-02,-1.880152709779999917e-02,-1.202530413869999995e-02,1.000000000000000000e+00
9.551837159999999605e-01,-2.674746448240000074e+00,6.697312988079999752e-01,-9.417236256389999838e+00,1.344493241050000046e-03,-3.814585879449999828e-02,-1.825009472670000021e-02,1.000000000000000000e+00
9.601514309999999996e-01,-2.693094882620000075e+00,6.277013984610000374e-01,-9.464558564060000734e+00,6.764257326720000962e-03,-2.226407080890000292e-02,-1.675732247529999885e-02,1.000000000000000000e+00
9.650743269999999541e-01,-2.688352656529999773e+00,6.159846571820000172e-01,-9.438609883810000767e+00,1.017862278970000159e-02,-3.458287194369999429e-02,-1.103014871480000048e-02,1.000000000000000000e+00
9.701210350000000204e-01,-2.721540932639999966e+00,6.337533919760000023e-01,-9.454887064870000302e+00,-9.588715620340000981e-03,-2.825782820580000076e-02,1.981493085619999775e-03,1.000000000000000000e+00
9.752197449999999712e-01,-2.679289060109999898e+00,6.294649740669999716e-01,-9.405598425570000032e+00,5.397002212699999676e-03,-1.404543686660000151e-02,-1.261909678579999777e-02,1.000000000000000000e+00
9.801885930000000524e-01,-2.713525091710000225e+00,5.771083985600000688e-01,-9.408739646209999918e+00,1.749290898440000047e-02,-3.032716736200000152e-02,-1.080863550310000136e-02,1.000000000000000000e+00
9.851865539999999921e-01,-2.738186362500000026e+00,6.094873310520000365e-01,-9.392467725839999559e+00,2.306394092740000207e-02,-4.134735837580000295e-02,-1.382443681360000058e-02,1.000000000000000000e+00
9.900451209999999724e-01,-2.776439228520000135e+00,6.036805079370000104e-01,-9.380214977989998815e+00,2.203792147340000174e-02,-3.281734138729999750e-02,-2.249614335600000087e-03,1.000000000000000000e+00
9.950892709999999974e-01,-2.769778309329999466e+00,6.391983595090000581e-01,-9.415610701020000306e+00,2.315363287930000125e-02,-2.594946511090000241e-02,-5.420794710520000954e-03,1.000000000000000000e+00
1.000108827999999894e+00,-2.739153161700000005e+00,5.939547212789999531e-01,-9.414524074830000089e+00,3.254111483690000362e-02,-2.836824208500000194e-02,-1.664642058310000089e-02,1.000000000000000000e+00
1.005051324999999940e+00,-2.779092081119999946e+00,6.018217648600000524e-01,-9.325096317359999887e+00,1.893403567370000040e-02,-3.714580088850000239e-02,-1.214982592500000102e-03,1.000000000000000000e+00
1.010041956000000019e+00,-2.674958629690000311e+00,5.777577293140000458e-01,-9.338167980379999733e+00,8.135999552910000432e-03,-2.172371372579999863e-02,-1.591249369080000031e-02,1.000000000000000000e+00
1.015153044000000060e+00,-2.712155556920000432e+00,6.061675024470000173e-01,-9.358349767660000040e+00,1.301201432939999916e-02,-2.978801168500000082e-02,-1.692877151070000183e-02,1.000000000000000000e+00
1.020192889999999908e+00,-2.665620015720000069e+00,5.222818162100000272e-01,-9.411554119099999838e+00,1.325790863479999783e-02,-3.175040334459999780e-02,-1.864493265750000184e-02,1.000000000000000000e+00
1.025188058999999985e+00,-2.722741248339999753e+00,5.606736523159999708e-01,-9.389259869710000928e+00,3.936510533090000798e-03,-3.426377847789999903e-02,-1.041024923320000087e-02,1.000000000000000000e+00
1.030040623000000100e+00,-2.752674614310000045e+00,5.480279961559999524e-01,-9.362436160189998802e+00,1.988486945630000072e-02,-2.856732346120000043e-02,-1.626480370760000072e-02,1.000000000000000000e+00
1.035023067000000019e+00,-2.764479326140000026e+00,5.112036650949999261e-01,-9.349535762089999480e+00,1.847931370140000126e-02,-3.146330639719999850e-02,-7.234974764290000131e-03,1.000000000000000000e+00
1.040044750999999934e+00,-2.721623350230000238e+00,5.356257933640000690e-01,-9.406312711320000020e+00,3.135579079390000273e-02,-2.367114461960000138e-02,-1.078657619660000101e-02,1.000000000000000000e+00
1.045201572000000079e+00,-2.707912512520000536e+00,4.976155039219999909e-01,-9.394510629839999183e+00,2.633486501870000232e-02,-3.315389901399999617e-02,-1.430212147529999998e-02,1.000000000000000000e+00
1.050156287000000077e+00,-2.652417419799999898e+00,4.060440489549999588e-01,-9.373698727960000809e+00,2.640856988729999716e-02,-2.925318107009999835e-02,-2.304420806470000235e-02,1.000000000000000000e+00
1.055183903999999950e+00,-2.738211496939999989e+00,3.297976984900000130e-01,-9.415328376950000688e+00,2.299075946209999666e-02,-3.558393940329999949e-02,-2.228054590520000058e-02,1.000000000000000000e+00
1.060041167999999923e+00,-2.770470383249999724e+00,3.707163131270000411e-01,-9.371860991140000152e+00,2.680221945050000054e-02,-3.153973445299999845e-02,-1.931412518020000219e-02,1.000000000000000000e+00
1.065033603000000051e+00,-2.800245928309999854e+00,4.444913781079999904e-01,-9.381061950210000333e+00,2.375232428310000005e-02,-2.887910977010000116e-02,-1.643380336459999980e-02,1.000000000000000000e+00
1.070079149999999979e+00,-2.803390948330000132e+00,5.066677021659999891e-01,-9.346701999969999619e+00,1.884704455729999811e-02,-3.793424740430000053e-02,-1.565788686280000092e-02,1.000000000000000000e+00
1.075211029999999957e+00,-2.838341265680000003e+00,5.163521704319999905e-01,-9.343255074380000025e+00,1.348520070310000110e-02,-1.208125986160000012e-02,-1.682572253049999939e-02,1.000000000000000000e+00
1.080035802000000045e+00,-2.849220679359999675e+00,5.161630410679999281e-01,-9.368093747559999684e+00,1.856585219499999953e-02,-1.358523219820000072e-02,-1.614389382300000092e-02,1.000000000000000000e+00
1.085130158999999983e+00,-2.785048066909999953e+00,5.286712249859999435e-01,-9.409335274010000916e+00,2.136896364390000400e-02,-1.502151601020000095e-02,-1.702370494600000117e-02,1.000000000000000000e+00
1.090105241000000058e+00,-2.782852018170000274e+00,4.888921357720000249e-01,-9.334932651719999086e+00,1.721306331459999950e-02,-2.705896832049999728e-02,-2.168363891540000046e-02,1.000000000000000000e+00
1.095043576999999990e+00,-2.797003585379999713e+00,4.503509908560000552e-01,-9.383998588180000766e+00,1.898718066509999872e-02,-8.685502223669998648e-03,-1.158685237170000056e-02,1.000000000000000000e+00
1.100107751999999994e+00,-2.759275327749999729e+00,4.527881183429999790e-01,-9.380229006509999579e+00,2.342344820499999911e-02,-6.546881049869999677e-03,-2.435874752699999923e-02,1.000000000000000000e+00
1.105230755000000009e+00,-2.728912045930000030e+00,4.725480634870000141e-01,-9.410615961469998680e+00,1.655373536050000136e-02,-1.556342095139999840e-02,-2.443002350629999708e-02,1.000000000000000000e+00
1.110206736999999944e+00,-2.808483303040000045e+00,4.693447008680000088e-01,-9.392214043339999208e+00,1.088510546829999856e-02,-1.892863027750000052e-02,-1.321480609479999853e-02,1.000000000000000000e+00
1.115233922000000044e+00,-2.721786431840000020e+00,4.571624244370000034e-01,-9.394321244749999522e+00,2.027193829420000093e-02,-1.142103411259999882e-02,-7.874619215729999205e-03,1.000000000000000000e+00
1.120204704000000051e+00,-2.712555077630000255e+00,5.737107920109999482e-01,-9.400831065040000212e+00,1.596831902859999902e-02,-2.245659567420000072e-02,-1.239049620930000005e-02,1.000000000000000000e+00
1.125172362000000037e+00,-2.649052327279999730e+00,5.970353343009999758e-01,-9.430157697289999419e+00,2.341693453490000312e-02,2.478456823159999774e-03,-1.923970691860000040e-02,1.000000000000000000e+00
1.130123938999999966e+00,-2.685992941659999911e+00,5.392466142100000859e-01,-9.383651382180000056e+00,4.065414518119999515e-02,-1.171936187889999897e-02,-2.047730796040000273e-02,1.000000000000000000e+00
1.135192202000000039e+00,-2.615454593579999987e+00,3.810430978850000150e-01,-9.364783600099999106e+00,4.015741869810000170e-02,-6.929999217390000153e-03,-3.393886983390000112e-02,1.000000000000000000e+00
1.140067785999999916e+00,-2.650403449620000185e+00,3.236825035449999999e-01,-9.382021150630000861e+00,4.038127139209999467e-02,-2.709899470210000091e-02,-1.300246268510000039e-02,1.000000000000000000e+00
1.145180850000000028e+00,-2.530335931479999800e+00,3.735183649360000468e-01,-9.379942590789999812e+00,3.852483257650000242e-02,-1.284497790039999809e-02,-3.334419801829999891e-02,1.000000000000000000e+00
1.150045852000000091e+00,-2.720845643859999718e+00,4.961844482050000171e-01,-9.419740932689999013e+00,1.691631413999999944e-02,-2.929842099550000051e-02,-2.697385475040000105e-02,1.000000000000000000e+00
1.155053404000000006e+00,-2.766456471430000175e+00,4.578870123839999806e-01,-9.335323112339999341e+00,1.938862539830000023e-02,-3.441360220309999662e-02,-2.926549874249999988e-02,1.000000000000000000e+00
1.160043501000000088e+00,-2.703468684859999804e+00,3.874942467859999740e-01,-9.343162719920000470e+00,5.621597170830000198e-03,-3.224803134800000026e-02,-4.290458932519999186e-02,1.000000000000000000e+00
1.165065471999999991e+00,-2.731276729240000201e+00,3.638852980630000178e-01,-9.311541839260002007e+00,3.013903461399999872e-02,-2.025717310609999669e-02,-2.910343557599999811e-02,1.000000000000000000e+00
1.170217864000000052e+00,-2.688124108469999829e+00,4.694683637800000087e-01,-9.346701415439998328e+00,2.044021524490000075e-02,-2.409256808459999885e-02,-4.075019434089999920e-02,1.000000000000000000e+00
1.175196737999999907e+00,-2.696603183000000126e+00,4.016468369089999935e-01,-9.330807680739999554e+00,2.068521082399999919e-02,-3.024594299500000041e-02,-2.543161250649999747e-02,1.000000000000000000e+00
1.180207650999999913e+00,-2.704163973650000052e+00,3.968575202740000085e-01,-9.353301252099999630e+00,1.044977083799999984e-02,-2.627752907570000268e-02,-2.950925379990000305e-02,1.000000000000000000e+00
1.185148270000000004e+00,-2.676790229029999857e+00,3.984766824409999852e-01,-9.302125191610000954e+00,6.292531732470000097e-03,-3.662107512349999788e-02,-4.561926797029999814e-02,1.000000000000000000e+00
1.190092600000000056e+00,-2.753972837429999654e+00,4.067847843199999813e-01,-9.305662718089999785e+00,2.544987946750000302e-03,-2.798365801570000186e-02,-2.415236830709999866e-02,1.000000000000000000e+00
1.195020151000000030e+00,-2.583600196420000383e+00,3.756626469560000459e-01,-9.277971578089999838e+00,-2.469133585690000063e-03,-3.474231064319999868e-02,-2.754071727400000252e-02,1.000000000000000000e+00
1.200012682999999969e+00,-2.548577690609999724e+00,3.690647830610000457e-01,-9.340824047839999977e+00,-3.682378679510000391e-03,-3.869724646210000174e-02,-3.367424756290000182e-02,1.000000000000000000e+00
1.205010069999999933e+00,-2.498173783549999971e+00,3.980711703800000056e-01,-9.411210420230000651e+00,-5.991066806020001363e-03,-2.579351514579999657e-02,-4.828432202340000173e-02,1.000000000000000000e+00
1.210039403999999985e+00,-2.680643105070000143e+00,4.285543157199999675e-01,-9.376761622660000128e+00,-9.347693994639999504e-03,-4.167244955899999936e-02,-3.361554816370000004e-02,1.000000000000000000e+00
1.215146088000000013e+00,-2.640852654209999706e+00,5.046242501719999662e-01,-9.383276119119999592e+00,-1.697979494929999916e-02,-7.006309181450000312e-02,-3.920670971269999555e-02,1.000000000000000000e+00
1.220220598999999906e+00,-2.661046131930000058e+00,4.548742404339999879e-01,-9.367985611010000824e+00,-3.381076827650000144e-02,-5.748063698409999756e-02,-4.526245221499999860e-02,1.000000000000000000e+00
1.225172719999999993e+00,-2.611482475079999865e+00,5.006698499909999489e-01,-9.405130808060000902e+00,-2.931526117029999851e-02,-7.188914716239999669e-02,-3.782466799019999770e-02,1.000000000000000000e+00
1.230218827000000070e+00,-2.548622114280000073e+00,4.775567584939999777e-01,-9.455682014640000688e+00,-2.611724473540000258e-02,-8.021420240399999846e-02,-5.170573666690000264e-02,1.000000000000000000e+00
1.235120967999999930e+00,-2.641480138459999960e+00,4.548288669230000081e-01,-9.489932074769999559e+00,-2.408356592059999676e-02,-7.998194545510001197e-02,-4.227474704379999976e-02,1.000000000000000000e+00
1.240087801999999906e+00,-2.727998730479999967e+00,4.223314956829999911e-01,-9.433418744909999987e+00,-8.232932537790000130e-03,-9.161514788869999648e-02,-3.406110033390000180e-02,1.000000000000000000e+00
1.245134014000000011e+00,-2.611078570449999692e+00,4.393889404020000500e-01,-9.364707027730000632e+00,-3.106659650799999811e-02,-9.058684110639998732e-02,-5.836122483020000223e-02,1.000000000000000000e+00
1.250103141000000084e+00,-2.744241717009999970e+00,5.191152419380000715e-01,-9.382833051529999580e+00,-2.783360891040000118e-02,-1.215696409339999950e-01,-4.156170040369999708e-02,1.000000000000000000e+00
1.255198771999999963e+00,-2.659348680359999939e+00,5.426323476579999472e-01,-9.401779744060000610e+00,-2.482751570639999891e-02,-1.056623235339999994e-01,-5.264394730330000660e-02,1.000000000000000000e+00
1.260035326999999983e+00,-2.517093295809999631e+00,5.823584645750000677e-01,-9.416412665050000186e+00,-1.889701373879999757e-02,-1.340893208979999918e-01,-5.234168842430000218e-02,1.000000000000000000e+00
1.265035203000000052e+00,-2.610693078270000189e+00,5.304254482419999972e-01,-9.550189851860000800e+00,-1.128625590349999902e-02,-1.313799321649999907e-01,-5.740288272499999983e-02,1.000000000000000000e+00
1.270193536999999928e+00,-2.684632759219999887e+00,4.372223734860000155e-01,-9.615192193119998620e+00,-6.349544506519999923e-03,-1.436726599929999959e-01,-4.452792927619999425e-02,1.000000000000000000e+00
1.275227799999999911e+00,-2.652527017649999763e+00,5.161318056800000553e-01,-9.558045826049999860e+00,-6.684775464239999312e-03,-1.360808908939999951e-01,-3.510549664499999778e-02,1.000000000000000000e+00
1.280222165000000079e+00,-2.623791337029999671e+00,5.111623467039999591e-01,-9.583022446399999339e+00,6.815686821940000056e-03,-1.783061176540000070e-01,-4.096379876140000126e-02,1.000000000000000000e+00
1.285337176999999942e+00,-2.667618788319999990e+00,4.495937062160000330e-01,-9.570417816369999997e+00,2.558052074160000085e-03,-1.907885223629999794e-01,-4.933692142369999756e-02,1.000000000000000000e+00
1.290040671000000083e+00,-2.649782395119999912e+00,3.194949521950000149e-01,-9.607480595830001135e+00,2.101024985309999857e-02,-2.145591974260000201e-01,-4.898826777940000488e-02,1.000000000000000000e+00
1.295231471999999995e+00,-2.574913616619999956e+00,3.596236220310000120e-01,-9.615708910469999537e+00,1.808029972020000140e-02,-2.233495563269999873e-01,-5.230824649330000076e-02,1.000000000000000000e+00
1.300025106000000097e+00,-2.519002636559999786e+00,3.578644668709999865e-01,-9.652349080599998743e+00,2.665279619400000299e-02,-2.442966550590000008e-01,-4.817472398280000373e-02,1.000000000000000000e+00
1.305185703000000030e+00,-2.500402857770000153e+00,4.080505664720000536e-01,-9.750264095910001316e+00,4.209163784980000239e-02,-2.744565010069999755e-01,-3.734060749409999491e-02,0.000000000000000000e+00
1.310065738000000035e+00,-2.482239132309999707e+00,5.136038946379999359e-01,-9.796792622849999077e+00,5.265223234889999937e-02,-2.821945250030000185e-01,-4.898604378100000073e-02,0.000000000000000000e+00
1.315134331999999961e+00,-2.515719084850000176e+00,5.298680700879999650e-01,-9.827717337950000243e+00,5.423777922990000167e-02,-3.225892484189999965e-01,-2.629043534399999604e-02,0.000000000000000000e+00
1.320186526999999943e+00,-2.632462134739999904e+00,5.673507919920000031e-01,-9.824447522499999863e+00,7.741549611089999783e-02,-3.712629377839999911e-01,-2.661364339290000006e-02,0.000000000000000000e+00
1.325002744999999926e+00,-2.686160114919999842e+00,6.806293441150000900e-01,-9.819746797460000565e+00,8.346505463119999191e-02,-3.994309902189999706e-01,-3.330557420849999950e-02,0.000000000000000000e+00
1.330056021999999949e+00,-2.721136735759999592e+00,5.573267530409999893e-01,-9.777964588260001477e+00,1.264738142490000050e-01,-4.370968043800000369e-01,-2.795471623539999909e-02,0.000000000000000000e+00
1.335020386999999920e+00,-2.531413205320000248e+00,6.248750889930000385e-01,-1.000236663340000121e+01,1.419499069449999817e-01,-4.583393335339999708e-01,-2.144586108620000209e-02,0.000000000000000000e+00
1.340136103999999939e+00,-2.583611594600000227e+00,7.630388933849999722e-01,-1.000189083250000088e+01,1.681926846500000072e-01,-4.828436970709999443e-01,-1.399451121689999911e-02,0.000000000000000000e+00
1.345058314999999949e+00,-2.750428004430000239e+00,6.214524210680000271e-01,-9.934233592860000073e+00,1.578718721869999952e-01,-5.396118760110000245e-01,-1.597854075949999876e-03,0.000000000000000000e+00
1.350073290999999953e+00,-2.554430800560000048e+00,5.885292621639999222e-01,-1.008404421510000049e+01,2.021027952430000107e-01,-5.631443262100001013e-01,1.041959226129999909e-02,0.000000000000000000e+00
1.355149954999999906e+00,-2.181291899930000167e+00,6.855468537080000591e-01,-1.026388055780000030e+01,2.575020492080000167e-01,-6.045064330100000660e-01,2.310074307020000203e-02,0.000000000000000000e+00
1.360104728000000041e+00,-2.556112762290000173e+00,9.040272536779999646e-01,-1.019221349789999920e+01,2.958064079280000036e-01,-6.574660539630000633e-01,3.127432614559999546e-02,0.000000000000000000e+00
1.365075969999999916e+00,-2.524136784580000015e+00,8.654724090300000006e-01,-1.025029860709999951e+01,3.599826395510000165e-01,-7.281781435009999637e-01,2.167269773779999936e-02,0.000000000000000000e+00
1.370224499000000096e+00,-2.077823488270000407e+00,9.920440483700001533e-01,-1.067158106870000012e+01,4.200260937210000267e-01,-7.887362241740000224e-01,4.251829162240000626e-02,0.000000000000000000e+00
1.375150598000000057e+00,-2.052066823470000134e+00,1.603179585020000131e+00,-1.072220534050000040e+01,4.751923382280000552e-01,-8.584927916529999647e-01,2.426018193359999811e-02,0.000000000000000000e+00
1.380209205000000106e+00,-2.151914560399999843e+00,1.251328679350000028e+00,-1.060314524590000040e+01,5.002749562259999339e-01,-9.431084990500000487e-01,1.546231098470000074e-03,0.000000000000000000e+00
1.385019307000000088e+00,-2.420104017050000333e+00,9.682014004899999193e-01,-1.096503210010000018e+01,5.573509931560000075e-01,-1.043148398400000065e+00,1.312722451979999976e-02,0.000000000000000000e+00
1.390138370999999928e+00,-2.117444720049999951e+00,1.282790423929999868e+00,-1.120728485920000139e+01,6.229974627489999195e-01,-1.155352830890000071e+00,-5.424497649069999049e-04,0.000000000000000000e+00
1.395240556999999937e+00,-1.985640879139999981e+00,1.768469808199999882e+00,-1.152682544059999969e+01,6.813379526139999864e-01,-1.270318508149999914e+00,-1.985996589060000025e-02,0.000000000000000000e+00
1.400066636999999892e+00,-1.781708936740000304e+00,2.096053264709999642e+00,-1.206431319190000018e+01,7.787219285959999793e-01,-1.395980834960000028e+00,-2.657358348370000151e-02,0.000000000000000000e+00
1.405197392999999906e+00,-1.506825535419999973e+00,1.945705905250000090e+00,-1.229896365930000002e+01,8.670321702959999932e-01,-1.522210717199999896e+00,-5.597270280119999442e-02,0.000000000000000000e+00
1.410122534000000094e+00,-1.260263973220000056e+00,1.421628839650000087e+00,-1.281397420589999925e+01,9.669322967530000756e-01,-1.690654158589999900e+00,-6.675006449220000082e-02,0.000000000000000000e+00
1.415232056000000016e+00,-9.636188219399999255e-01,8.735220791680000652e-01,-1.337967916690000081e+01,1.026408910750000070e+00,-1.883484959600000064e+00,-1.119184568519999978e-01,0.000000000000000000e+00
1.420227099000000104e+00,-8.465591803759999756e-01,5.373250350299999534e-01,-1.382047413819999981e+01,1.037540078159999934e+00,-2.151824951170000055e+00,-1.393524855380000038e-01,0.000000000000000000e+00
1.425207032999999957e+00,-6.031688686199999649e-01,4.214377982460000283e-01,-1.420730955570000020e+01,1.010849595070000051e+00,-2.442656040190000155e+00,-1.818985491990000036e-01,0.000000000000000000e+00
1.430064033999999928e+00,-2.151038362090000045e-01,5.486270945610000060e-01,-1.422343534559999867e+01,9.984191060070000123e-01,-2.776336908339999798e+00,-2.535018026829999882e-01,0.000000000000000000e+00
1.435092172000000055e+00,2.919315119599999800e-02,6.291519625949999472e-01,-1.456699977670000123e+01,1.006908178329999792e+00,-3.071238040919999968e+00,-3.068970739840000128e-01,0.000000000000000000e+00
1.440163859000000102e+00,3.347243412370000115e-01,7.123807923589999813e-01,-1.484125160219999984e+01,1.018479228019999905e+00,-3.387706518170000347e+00,-3.327977359290000270e-01,0.000000000000000000e+00
1.445176683999999989e+00,7.851284870529999793e-01,5.400515008519999327e-01,-1.523847748079999853e+01,1.082253694529999866e+00,-3.744349718090000056e+00,-4.113512635230000547e-01,0.000000000000000000e+00
1.450240535999999913e+00,9.508426347359999475e-01,-6.514777761720000337e-02,-1.516235051900000030e+01,1.109361529350000097e+00,-4.055235862730000029e+00,-5.049058198929999852e-01,0.000000000000000000e+00
1.455127682999999950e+00,9.157816235529999682e-01,-2.236500942249999846e-01,-1.500632292190000072e+01,1.062681198120000170e+00,-4.481457233430000464e+00,-4.977397024629999778e-01,0.000000000000000000e+00
1.460102475000000011e+00,1.636036729479999785e+00,1.846517253269999714e-01,-1.474706174489999988e+01,1.019909858699999949e+00,-4.894214630130000465e+00,-5.640678405760000125e-01,0.000000000000000000e+00
1.465041876999999992e+00,2.011651372579999819e+00,4.138169845110000189e-01,-1.477855929140000057e+01,9.885790944100000255e-01,-5.380864143370000185e+00,-6.103850007059999916e-01,0.000000000000000000e+00
1.470206707000000002e+00,1.312626028619999996e+00,4.875086455250000061e-01,-1.488631356369999814e+01,9.328886866570000880e-01,-5.794066429139999919e+00,-5.720759034160000089e-01,0.000000000000000000e+00
1.474923672000000074e+00,5.586548233070000036e-01,-2.318106043270000138e-01,-1.466011995900000109e+01,9.040216803550000790e-01,-6.223671913150000456e+00,-5.676790475849999851e-01,0.000000000000000000e+00
1.480116152999999990e+00,-1.179546907079999938e-03,-9.294881504100001024e-01,-1.466005566160000129e+01,8.836687803270000252e-01,-6.597073554990000588e+00,-5.019959807399999585e-01,0.000000000000000000e+00
1.485080136999999967e+00,-9.989404568200001000e-01,-2.182520163080000075e-01,-1.496387143509999973e+01,8.397635221479999856e-01,-6.968936920169999993e+00,-4.366572499279999797e-01,0.000000000000000000e+00
1.490064389999999905e+00,-2.833929002200000102e+00,1.048210683679999811e+00,-1.606609033400000186e+01,8.127592206000000541e-01,-7.280178546910001103e+00,-3.873987495899999800e-01,0.000000000000000000e+00
1.495088372000000110e+00,-5.485820936819998828e+00,1.722702182629999745e+00,-1.708852550199999953e+01,8.192097544670000620e-01,-7.534840583800000324e+00,-4.064312279219999824e-01,0.000000000000000000e+00
1.500114941000000091e+00,-7.684198996100000123e+00,8.194284507350000357e-01,-1.719098283690000173e+01,1.007233023640000003e+00,-7.669850349430000769e+00,-3.785841763019999751e-01,0.000000000000000000e+00
1.505204991999999908e+00,-1.108499820369999966e+01,-2.349098855169999833e-01,-1.667954722630000219e+01,1.288165569310000036e+00,-7.771483421330000141e+00,-2.946505248549999845e-01,0.000000000000000000e+00
1.510207991999999999e+00,-1.602246278920000222e+01,2.969173558139999725e-01,-1.799074205299999818e+01,1.551397323610000045e+00,-7.631730556489999096e+00,-1.950168758630000110e-01,0.000000000000000000e+00
1.515110227999999948e+00,-1.890938951429999904e+01,-5.551094057850000096e-01,-1.793636164349999973e+01,1.563247203829999821e+00,-7.402195453639999201e+00,-4.469181597230000719e-02,0.000000000000000000e+00
1.520219970000000087e+00,-1.874730860859999737e+01,-2.051159207099999993e+00,-1.827202100059999879e+01,1.438530325889999961e+00,-6.995750427249999959e+00,5.134125798940000068e-02,0.000000000000000000e+00
1.525204715999999960e+00,-1.905171241120000047e+01,-2.734285263399999888e+00,-1.718569759000000019e+01,1.162825107570000238e+00,-6.375668048860000603e+00,-2.741241082549999986e-02,0.000000000000000000e+00
1.530235653999999945e+00,-1.749115937719999891e+01,-4.326633657809999534e+00,-1.932471920500000095e+01,8.020113110539999202e-01,-5.628220081330000291e+00,-6.432826817040000755e-02,0.000000000000000000e+00
1.535111265000000058e+00,-2.288642618289999930e+01,-5.380774169930000461e+00,-2.239489237349999939e+01,5.543415546419999673e-01,-5.044624328610000319e+00,-1.036793813110000045e-01,0.000000000000000000e+00
1.540195041000000042e+00,-2.205573874459999928e+01,-6.238445476759999941e+00,-2.267122626590000323e+01,3.343948125840000007e-01,-4.294345855709999604e+00,8.894669264550000842e-02,0.000000000000000000e+00
1.545027879999999909e+00,-1.365000651240000096e+01,-3.891285553759999960e+00,-2.186609412460000001e+01,2.222167700530000012e-01,-3.860932350159999693e+00,3.137592673300000357e-01,0.000000000000000000e+00
1.550044489000000025e+00,-8.510773153869999774e+00,-5.086502177530000113e-01,-1.902821930740000056e+01,1.096466407179999963e-01,-3.450175762180000660e+00,4.214101731780000026e-01,0.000000000000000000e+00
1.554986763000000050e+00,-4.288934334009999461e+00,-1.145077870439999979e+00,-1.277957392369999923e+01,-2.081789821389999906e-01,-2.804056644440000134e+00,4.849194586280000108e-01,0.000000000000000000e+00
1.560070655000000084e+00,3.839318635159999715e+00,-2.786280531320000087e+00,-5.123454774609999873e+00,-4.561614394190000032e-01,-1.965936183930000025e+00,5.358992218970000110e-01,0.000000000000000000e+00
1.565114584000000031e+00,9.717270757849998830e+00,-3.975966701230000400e+00,1.453826497290000130e+00,-5.585690140719999919e-01,-9.772790074349999578e-01,6.325030922890000351e-01,0.000000000000000000e+00
1.570230180999999892e+00,-3.926467926299999966e+00,-7.588199605159999805e-01,-3.980471026909999654e+00,-7.127103805540000447e-01,-9.421283006669999294e-01,7.035921812059999780e-01,0.000000000000000000e+00
1.575203133000000033e+00,-1.267394848009999997e+01,-8.742339537649999048e-01,-1.525259251539999994e+01,-9.069126248360001030e-01,-1.114368796349999968e+00,1.001691102979999970e+00,0.000000000000000000e+00
1.580160272000000088e+00,-1.653867745079999807e+01,-3.352590180229999994e+00,-1.916015525019999899e+01,-1.058592438700000082e+00,-1.005084872249999872e+00,1.261317849160000115e+00,0.000000000000000000e+00
1.585053382999999982e+00,-6.560435789430000497e+00,1.895070016050000028e-01,-1.474075475369999921e+01,-8.685244917869999748e-01,-9.295822978020000793e-01,1.224092364310000125e+00,0.000000000000000000e+00
1.590027408000000086e+00,-1.343515526270000038e+00,4.939433255209999984e+00,-1.120407934119999815e+01,-5.209490656849999901e-01,1.402320712799999813e-01,1.305031180379999878e+00,0.000000000000000000e+00
1.595064970999999998e+00,-2.320938417159999823e+00,3.717095108030000539e+00,-6.970301369439998673e+00,-5.154669284820000419e-01,1.362567305560000053e+00,1.633098959920000093e+00,0.000000000000000000e+00
1.600091324000000093e+00,1.195355374650000080e+00,8.553657332960000748e-01,-4.452724089500000204e+00,-4.144302606580000381e-01,2.093905925749999675e+00,1.912939906120000089e+00,0.000000000000000000e+00
1.605224938999999962e+00,4.192198007090000011e+00,-5.091237170160000103e-01,-3.701942254820000056e+00,-3.080819547179999840e-01,2.265392541890000278e+00,2.130180835720000054e+00,0.000000000000000000e+00
1.610242025000000021e+00,6.379277258250000138e+00,-1.396419369529999961e-02,-3.714688631409999608e+00,-1.336241960529999939e-01,1.744757413859999717e+00,2.177268743519999994e+00,0.000000000000000000e+00
1.615208222999999998e+00,5.574857064619999747e+00,3.477218065089999754e-01,-4.746942890419999728e+00,-3.932518884539999704e-02,1.022172331810000001e+00,2.360883235929999824e+00,0.000000000000000000e+00
1.620123321999999977e+00,5.839893317929999661e+00,-6.664261197829999261e-01,-4.665190197619999424e+00,-5.651710554959999550e-02,5.004332661629999901e-01,2.440605640409999832e+00,0.000000000000000000e+00
1.625172712999999991e+00,5.538846424559999981e+00,-8.237032785100001364e-01,-3.509208728919999576e+00,-1.292981952429999859e-01,1.071610376239999912e-01,2.442471265790000068e+00,0.000000000000000000e+00
1.630215629999999916e+00,3.877001884599999837e+00,-1.062685856829999942e+00,-3.266263603640000124e+00,-2.281501144170000051e-01,5.879012122749999875e-02,2.390119314190000122e+00,0.000000000000000000e+00
1.635176176999999953e+00,3.497716151780000171e+00,-1.840796501009999808e+00,-3.967313731429999990e+00,-3.783648312089999965e-01,3.558721542360000489e-01,2.371427297589999927e+00,0.000000000000000000e+00
1.640130231999999966e+00,3.227635182300000238e+00,-1.962488843869999888e+00,-4.505686448879999695e+00,-5.222955942149999364e-01,7.524357438089999128e-01,2.388113975520000043e+00,0.000000000000000000e+00
1.645092350999999953e+00,3.041236704639999733e+00,-1.859515229999999963e+00,-5.288762825710000115e+00,-6.677441596980000504e-01,1.112908363339999873e+00,2.457120180129999998e+00,0.000000000000000000e+00
1.650028505999999950e+00,2.848482428209999640e+00,-2.462925067770000087e+00,-5.049563608969999784e+00,-7.764378190039999961e-01,1.405390143389999791e+00,2.462641954420000001e+00,0.000000000000000000e+00
1.655058233000000101e+00,3.811846106339999984e+00,-2.274503559850000300e+00,-5.179197120099999552e+00,-8.336048722269999711e-01,1.617352485660000116e+00,2.426554441449999988e+00,0.000000000000000000e+00
1.660030219999999890e+00,4.260812693640000148e+00,-1.965340726170000218e+00,-4.896636608279999692e+00,-8.575369119640000592e-01,1.825274348259999790e+00,2.355636835099999882e+00,0.000000000000000000e+00
1.664960411000000029e+00,4.604355789690000478e+00,-1.802045330069999896e+00,-4.770366143840000461e+00,-8.251711726189999707e-01,2.009490013120000196e+00,2.217133998870000067e+00,0.000000000000000000e+00
1.670187695999999944e+00,5.091998144599999776e+00,-1.769080341320000027e+00,-4.748803131329999871e+00,-7.701249122619999721e-01,2.187732934950000097e+00,2.074878215790000091e+00,0.000000000000000000e+00
1.675052655000000001e+00,5.045795196350000289e+00,-2.122961876029999750e+00,-4.685815344759999945e+00,-6.853513121600000035e-01,2.404206752779999956e+00,1.944924116130000158e+00,0.000000000000000000e+00
1.680064988999999898e+00,4.848292556349999671e+00,-2.439998511820000271e+00,-4.692841297869999373e+00,-5.970931053160000168e-01,2.653145074840000284e+00,1.832754015919999979e+00,0.000000000000000000e+00
1.685014084999999939e+00,4.828393385400000071e+00,-2.679509424859999545e+00,-4.476136529269999720e+00,-4.976337552069999837e-01,2.916626453399999708e+00,1.726023793219999991e+00,0.000000000000000000e+00
1.689988687000000045e+00,5.193451855420000207e+00,-2.838086998660000138e+00,-4.300629155719999375e+00,-4.048137664790000256e-01,3.140208721160000049e+00,1.538601994510000015e+00,0.000000000000000000e+00
1.695168605000000106e+00,5.280756044869999499e+00,-2.932100038090000194e+00,-4.138615469990000406e+00,-3.218989968300000060e-01,3.286030292510000006e+00,1.346314787860000139e+00,0.000000000000000000e+00
1.700142202000000102e+00,5.395334610209999937e+00,-3.077692458120000474e+00,-4.036378207569999432e+00,-2.080012708900000062e-01,3.379885435099999835e+00,1.122311949729999814e+00,0.000000000000000000e+00
1.705198028000000088e+00,5.065328748859999841e+00,-3.077672292109999486e+00,-4.006030415580000614e+00,-1.238520294430000002e-01,3.465668201449999763e+00,9.347745776180000910e-01,0.000000000000000000e+00
1.710195767000000089e+00,4.697079958359999807e+00,-3.027613837479999681e+00,-4.152696602309999818e+00,8.028614334759999124e-03,3.553067445759999554e+00,7.437354922290000392e-01,0.000000000000000000e+00
1.715108123000000040e+00,4.135364651499999766e+00,-2.822987629210000016e+00,-4.356604140919999146e+00,1.243197917940000036e-01,3.667299747469999982e+00,5.876626968379999871e-01,0.000000000000000000e+00
1.720195769999999902e+00,3.653559624440000153e+00,-2.507287941109999529e+00,-4.533296340340000619e+00,2.785907685760000141e-01,3.788078546519999534e+00,3.963799476619999651e-01,0.000000000000000000e+00
1.725163360999999895e+00,3.043687604919999679e+00,-2.293621078899999777e+00,-4.832250937609999575e+00,4.274944961069999660e-01,3.903735399249999904e+00,2.168864607809999900e-01,0.000000000000000000e+00
1.730190069000000053e+00,2.509288759540000413e+00,-2.280436310899999874e+00,-5.171580215360000565e+00,5.705565214159999954e-01,4.012670040129999727e+00,5.375704169269999305e-02,0.000000000000000000e+00
1.735117213999999963e+00,2.024837017370000325e+00,-2.463052201280000020e+00,-5.436987055540000391e+00,7.092127203939999625e-01,4.150804042819999040e+00,-9.139475226399998431e-02,0.000000000000000000e+00
1.740138911999999927e+00,1.537149215879999975e+00,-2.504187637009999801e+00,-5.716110870919999698e+00,8.319533467290000095e-01,4.288342475889999506e+00,-2.241194397210000133e-01,0.000000000000000000e+00
1.745128309000000044e+00,1.122512841279999840e+00,-2.552626966009999609e+00,-5.989768822100000278e+00,9.099719524379999980e-01,4.423895835880000682e+00,-3.517840802669999767e-01,0.000000000000000000e+00
1.750157404999999944e+00,6.502052720180000467e-01,-2.703691095440000414e+00,-6.173738319049999923e+00,9.567092061040000095e-01,4.565096855159999301e+00,-4.567648768419999561e-01,0.000000000000000000e+00
1.755196991000000040e+00,3.050020607339999912e-01,-2.868515162410000041e+00,-6.421819930429999879e+00,1.012806773189999898e+00,4.654908657070000011e+00,-5.885832905769999845e-01,0.000000000000000000e+00
1.760099427000000105e+00,-2.811941188410000403e-01,-3.102335900990000450e+00,-6.600258096730000190e+00,1.024855852129999967e+00,4.752254486080000007e+00,-7.073432207109999759e-01,0.000000000000000000e+00
1.765195010000000009e+00,-7.150602407009999384e-01,-3.420324869059999440e+00,-6.850770150129999791e+00,1.024250626559999988e+00,4.816350460049999782e+00,-8.522523641590000754e-01,0.000000000000000000e+00
1.770220106000000015e+00,-1.285374156810000112e+00,-3.629647126200000073e+00,-7.227063715399999921e+00,1.011897802350000042e+00,4.863974571229999988e+00,-1.000883579249999933e+00,0.000000000000000000e+00
1.775190374999999987e+00,-1.826089491870000137e+00,-3.648181146280000231e+00,-7.686990672639999467e+00,9.820835590360000866e-01,4.929634571080000249e+00,-1.168313860890000111e+00,0.000000000000000000e+00
1.780241508000000028e+00,-2.156103828790000065e+00,-3.517201188969999670e+00,-8.160686043000000112e+00,9.313592910770001065e-01,4.978401184080000874e+00,-1.427690148350000188e+00,0.000000000000000000e+00
1.785182502999999921e+00,-2.664010242429999842e+00,-3.402725207230000048e+00,-8.760314900930000093e+00,8.790315389630000142e-01,5.061561584469999708e+00,-1.692722678179999996e+00,0.000000000000000000e+00
1.790071498999999955e+00,-3.159254304520000112e+00,-3.109144119700000264e+00,-9.293539149580000824e+00,8.395158052439999352e-01,5.118160724640000048e+00,-1.985256910319999957e+00,0.000000000000000000e+00
1.795149584000000020e+00,-3.769474406819999679e+00,-2.436708676499999893e+00,-9.818044669720000783e+00,7.853208780289999691e-01,5.169756412509999954e+00,-2.320440530780000010e+00,0.000000000000000000e+00
1.800078295000000050e+00,-4.976728089859999926e+00,-9.542250437160000320e-01,-9.878043503609999831e+00,7.568234801289999147e-01,5.241317272190000764e+00,-2.667002201079999857e+00,0.000000000000000000e+00
1.805169602999999956e+00,-6.181281574029999781e+00,-2.163878664040000122e-01,-9.915476285419998703e+00,7.506066560749999894e-01,5.246589660639999764e+00,-2.995830774309999889e+00,0.000000000000000000e+00
1.810037652000000108e+00,-6.776926915279999797e+00,-4.563431074109999819e-01,-1.089065285869999933e+01,8.202145695689999627e-01,5.248322486880000248e+00,-3.242848873140000254e+00,0.000000000000000000e+00
1.814994688000000078e+00,-7.462370600880000815e+00,3.129505081210000404e-03,-1.161828558069999850e+01,9.457038044930000664e-01,5.245324134830000595e+00,-3.399559497829999888e+00,0.000000000000000000e+00
1.820106371999999917e+00,-8.473446755039999445e+00,6.806161193070000559e-01,-1.217625147190000057e+01,1.040625572199999960e+00,5.215844631200000414e+00,-3.482541322709999498e+00,0.000000000000000000e+00
1.825194232999999944e+00,-9.434760807170000874e+00,9.876642989159999386e-01,-1.308580143450000044e+01,1.095387101170000044e+00,5.149184703830000487e+00,-3.542932987209999496e+00,0.000000000000000000e+00
1.830050254000000098e+00,-1.100505197579999894e+01,1.246151568970000234e+00,-1.338641168999999920e+01,1.077666759490000015e+00,5.031792640689999985e+00,-3.570845842359999800e+00,0.000000000000000000e+00
1.835081235000000088e+00,-1.217022972740000064e+01,7.938768069799999605e-01,-1.484954479869999844e+01,1.024237871170000203e+00,4.946814060209999475e+00,-3.589275121690000514e+00,0.000000000000000000e+00
1.840046674999999965e+00,-1.391098033849999993e+01,5.954856571740000382e-01,-1.575140712950000044e+01,9.217055439949999318e-01,4.855815887450000368e+00,-3.538180112840000557e+00,0.000000000000000000e+00
1.845043602000000060e+00,-1.547082843910000172e+01,7.601809466699999129e-02,-1.643417078219999894e+01,7.691025733949999887e-01,4.751797199250000325e+00,-3.424446105959999542e+00,0.000000000000000000e+00
1.850170287999999941e+00,-1.655695778839999832e+01,-4.053523403639999745e-01,-1.649360730599999769e+01,5.902342200280000784e-01,4.674562454220000163e+00,-3.235370635990000299e+00,0.000000000000000000e+00
1.855225898000000040e+00,-1.727215305369999854e+01,-8.401922756919999458e-01,-1.627802043550000022e+01,3.951441943649999788e-01,4.589474201199999825e+00,-3.011697769169999983e+00,0.000000000000000000e+00
1.860196849000000041e+00,-1.777454727980000015e+01,-1.532490722549999962e+00,-1.631798419709999948e+01,1.088053584099999832e-01,4.541773319239999829e+00,-2.762831449509999704e+00,0.000000000000000000e+00
1.865125173000000025e+00,-1.809045213510000139e+01,-2.280362222750000001e+00,-1.626589978959999883e+01,-2.119357287880000162e-01,4.475351810460000301e+00,-2.518391609190000491e+00,0.000000000000000000e+00
1.870224447000000012e+00,-1.862853376059999988e+01,-2.873167664389999931e+00,-1.613452264969999916e+01,-5.152624249459999417e-01,4.330988407139999552e+00,-2.299907922740000110e+00,0.000000000000000000e+00
1.875196945999999976e+00,-1.953659786859999770e+01,-3.212641611310000034e+00,-1.559218921190000096e+01,-7.914058566089999802e-01,4.161806583399999759e+00,-2.084841251369999870e+00,0.000000000000000000e+00
1.880106542999999908e+00,-2.006395702460000052e+01,-3.285557794439999846e+00,-1.476090673030000033e+01,-1.014002680779999999e+00,3.959686279300000056e+00,-1.895311594009999823e+00,0.000000000000000000e+00
1.885130559999999900e+00,-2.064158155599999844e+01,-3.507952591369999595e+00,-1.387658122529999893e+01,-1.171357750889999938e+00,3.743847608569999874e+00,-1.694655895229999931e+00,0.000000000000000000e+00
1.890058328000000065e+00,-2.109730054010000089e+01,-3.987587873180000297e+00,-1.287242873299999957e+01,-1.221141457559999921e+00,3.619747400280000527e+00,-1.515807986260000240e+00,0.000000000000000000e+00
1.895104372000000037e+00,-2.135470761380000226e+01,-4.574563001230000481e+00,-1.166122689680000057e+01,-1.216647744179999879e+00,3.440807104110000125e+00,-1.333106160160000053e+00,0.000000000000000000e+00
1.900071668000000047e+00,-2.112075155839999852e+01,-5.131826297119999936e+00,-1.027768696480000088e+01,-1.145757675170000045e+00,3.233990907670000414e+00,-1.179918289179999968e+00,0.000000000000000000e+00
1.905183005999999901e+00,-2.093023950789999788e+01,-5.703315102230000377e+00,-8.902605064539999447e+00,-1.027754902839999929e+00,2.969362258909999941e+00,-1.051259517670000143e+00,0.000000000000000000e+00
1.910107586999999940e+00,-2.096582052440000155e+01,-6.052096975720000493e+00,-7.584868853300000602e+00,-8.528007864950000183e-01,2.649964570999999935e+00,-9.414724111559999997e-01,0.000000000000000000e+00
1.915155423000000079e+00,-2.063245366219999966e+01,-6.195344001659999655e+00,-6.467887854119999780e+00,-6.880430579189998896e-01,2.307087659840000082e+00,-9.121138453479998853e-01,0.000000000000000000e+00
1.920064581000000103e+00,-2.034803700109999980e+01,-6.112966747219999775e+00,-5.662009862890000633e+00,-4.898191094399999557e-01,1.938036799429999846e+00,-9.285762906069999767e-01,0.000000000000000000e+00
1.925055469999999991e+00,-2.005534818619999982e+01,-5.672141380809999411e+00,-5.254716763730000295e+00,-2.491028755899999947e-01,1.597420811649999939e+00,-1.035556435589999991e+00,0.000000000000000000e+00
1.930022150000000103e+00,-1.982672764660000198e+01,-5.305515223069999564e+00,-5.027675017769999144e+00,-1.852886378770000203e-02,1.259041070939999951e+00,-1.188105344770000071e+00,0.000000000000000000e+00
1.935089556000000099e+00,-1.976356888740000173e+01,-5.173886154209999866e+00,-4.775053132610000084e+00,1.847461313010000106e-01,9.478894472120000803e-01,-1.343231797220000079e+00,0.000000000000000000e+00
1.940090381999999947e+00,-1.936364602469999951e+01,-4.859441726870000089e+00,-4.456227713709999705e+00,3.863101005549999800e-01,6.847488284110000434e-01,-1.537695884699999960e+00,0.000000000000000000e+00
1.945226896000000094e+00,-1.858323915940000148e+01,-4.473777398930000260e+00,-4.092345593980000196e+00,5.444581508640000678e-01,4.610528349880000376e-01,-1.719095587730000041e+00,0.000000000000000000e+00
1.950153465000000086e+00,-1.746483718749999881e+01,-3.935401758859999877e+00,-3.822112648809999680e+00,6.499780416489999713e-01,2.396548837420000022e-01,-1.901413679120000033e+00,0.000000000000000000e+00
1.955236229999999908e+00,-1.588811627810000005e+01,-3.314256650179999930e+00,-3.703565472109999757e+00,7.006216049189999406e-01,7.270453497770000204e-03,-2.095623970030000116e+00,0.000000000000000000e+00
1.960222112999999933e+00,-1.453018658809999941e+01,-2.740299116870000162e+00,-3.608464637440000011e+00,6.652306318280000186e-01,-2.383531332019999949e-01,-2.274255514140000045e+00,0.000000000000000000e+00
1.965064259000000035e+00,-1.325946288799999984e+01,-2.373758445459999589e+00,-3.624587504719999576e+00,5.504301190379999875e-01,-4.593240618710000001e-01,-2.464642286300000151e+00,0.000000000000000000e+00
1.970197266000000003e+00,-8.138014776989999532e+00,-2.786731489959999752e+00,-3.939177770269999712e+00,4.460809230799999692e-01,-7.175739407539999393e-01,-2.570474386219999907e+00,0.000000000000000000e+00
1.975189799000000024e+00,-1.930537854470000170e+01,2.389188362040000069e+00,-1.208398586069999858e+01,6.576512455940000113e-01,-1.319326758379999909e+00,-2.357673168179999834e+00,0.000000000000000000e+00
1.980145929999999943e+00,-2.942818123729999513e+00,-1.717626925190000042e+00,-4.001503585800000096e+00,3.166755735869999921e-01,-1.858122706409999658e+00,-2.602337121959999777e+00,0.000000000000000000e+00
1.985108587999999896e+00,2.865886567469999591e+00,-3.150450820340000568e+00,-1.726809727549999951e-01,6.853606104849999658e-01,-1.315001130099999971e+00,-2.525575160979999900e+00,0.000000000000000000e+00
1.990040921000000074e+00,4.601126525440000226e-01,-1.619566510070000076e+00,-8.047797914969999411e+00,7.849380970000000568e-01,-1.653454780579999950e+00,-2.632089853290000114e+00,0.000000000000000000e+00
1.995124781999999986e+00,4.082567127289999931e+00,-2.765199164850000280e+00,-1.255428632789999988e+01,4.762894213200000171e-01,-1.617437362670000267e+00,-2.167812585830000138e+00,0.000000000000000000e+00
2.000146593999999833e+00,1.066358948539999929e+01,-4.139776330460000153e+00,-1.675515513270000056e+01,3.057799935339999831e-01,-1.203638434409999958e+00,-1.846490859990000066e+00,0.000000000000000000e+00
2.005181675999999857e+00,1.348654964209999996e+01,2.586904827450000055e-01,-1.818940584579999964e+01,-1.285911351440000017e-01,-1.507809519769999884e+00,-1.818507552150000040e+00,0.000000000000000000e+00
2.010107484000000166e+00,1.121943356220000076e+01,6.850751445430000253e+00,-1.649513758430000010e+01,-9.827306270600000282e-01,-2.120881795879999920e+00,-1.577243804929999937e+00,0.000000000000000000e+00
2.015216879000000016e+00,4.303472562449999650e+00,1.374996443170000049e+01,-1.386079212009999928e+01,-1.905570626259999845e+00,-3.185945272450000143e+00,-1.161528706549999956e+00,0.000000000000000000e+00
2.020213260999999871e+00,-3.714274205390000194e+00,1.665111608149999967e+01,-9.915580330319999192e+00,-2.332515001300000002e+00,-4.501379013060000212e+00,-8.717342615129999306e-01,0.000000000000000000e+00
2.025193208000000133e+00,-1.048555697729999991e+01,1.703107635259999952e+01,-6.669665979480000395e+00,-1.959402561190000114e+00,-5.107915878300000045e+00,-7.950929999349999333e-01,0.000000000000000000e+00
2.030235197000000102e+00,-1.276174717510000001e+01,1.641856054059999792e+01,-1.065853921629999945e+01,-9.497404694559999916e-01,-5.295254230500000325e+00,-7.740933299059999939e-01,0.000000000000000000e+00
2.035146077999999914e+00,-1.232639877880000157e+01,1.515514687119999948e+01,-1.335222884989999947e+01,4.975191056730000061e-01,-4.684909820559999716e+00,-7.794759869580000222e-01,0.000000000000000000e+00
2.040185220000000133e+00,-1.230063188479999958e+01,1.379483233190000036e+01,-1.454470611190000007e+01,1.822845101359999775e+00,-3.671049356459999746e+00,-5.343560576439999599e-01,0.000000000000000000e+00
2.045188017000000080e+00,-1.147668866010000066e+01,8.942164921510000752e+00,-1.490443374230000018e+01,2.618242025379999838e+00,-2.609208583829999650e+00,-2.267403006549999767e-01,0.000000000000000000e+00
2.050117447999999953e+00,-9.182325092239999265e+00,-1.543469212680000036e+00,-1.694501719480000190e+01,2.695701837540000145e+00,-1.532884836200000045e+00,3.089465666559999910e-03,0.000000000000000000e+00
2.055230857000000189e+00,-1.166630639200000097e+01,-9.382554234589999709e+00,-1.836273879790000052e+01,2.243455886840000080e+00,-8.115378022189999596e-01,4.984060823920000161e-01,0.000000000000000000e+00
2.060044184000000111e+00,-1.651059351210000159e+01,-1.211070669430000102e+01,-1.764354774099999901e+01,1.322622776029999780e+00,-6.175117492680000097e-01,8.992608785629999657e-01,0.000000000000000000e+00
2.065221457999999899e+00,-1.406857445430000020e+01,-1.531483006809999914e+01,-1.513058058520000060e+01,4.418990910050000220e-01,-7.469625473019999573e-01,9.098010063169998940e-01,0.000000000000000000e+00
2.070196090000000044e+00,-5.875371458550000092e+00,-1.717418718500000097e+01,-1.061084573720000002e+01,-5.924810096619999994e-02,-4.810329079630000226e-01,6.492569446560000346e-01,0.000000000000000000e+00
2.075174882000000220e+00,2.497635000489999979e-01,-1.196086333890000120e+01,-7.930963679660000487e+00,-3.352523148059999847e-01,-2.374665737149999900e-01,7.811190932990000335e-02,0.000000000000000000e+00
2.080112521999999853e+00,2.789248441209999818e+00,-5.802920554840000023e+00,-8.376196925639998625e+00,-6.879171133040000718e-01,-1.450114697220000193e-01,-1.412998735900000136e-01,0.000000000000000000e+00
2.085106584000000041e+00,1.691380577170000121e+00,-1.886243516319999980e+00,-8.634072785800000815e+00,-1.019971370699999991e+00,-3.130175471309999957e-01,-8.063354343180000050e-02,0.000000000000000000e+00
2.090058310999999946e+00,-1.486538972590000007e+00,5.217661948380000192e-01,-9.360210300840000386e+00,-1.185369014740000004e+00,-8.064404129979999558e-01,1.298819631339999947e-01,0.000000000000000000e+00
2.095082945999999779e+00,-3.964693319800000282e+00,7.459354175660001252e-01,-1.033577675019999909e+01,-1.164776444439999947e+00,-1.315438628199999904e+00,1.623334139590000003e-01,0.000000000000000000e+00
2.100247897000000030e+00,-5.101219561929999813e+00,-5.878508149140000416e-01,-9.377685167250000120e+00,-9.903772473340000104e-01,-1.550965547560000157e+00,1.512492895130000126e-01,0.000000000000000000e+00
2.105143231000000004e+00,-4.736733338830000584e+00,-9.720135791889999988e-01,-8.745920464870000188e+00,-7.196869254109999892e-01,-1.400611996649999913e+00,2.151364088060000179e-01,0.000000000000000000e+00
2.110136874999999801e+00,-3.383613094999999849e+00,-8.209813062000000938e-01,-9.401426108320000807e+00,-5.765138864519999684e-01,-9.186161756520000443e-01,3.015529513360000191e-01,0.000000000000000000e+00
2.115191774999999996e+00,-3.325086964009999591e+00,-6.471282939919999200e-02,-9.868951850129999315e+00,-5.667565464970000244e-01,-4.997368752960000271e-01,3.192969262600000024e-01,0.000000000000000000e+00
2.120201913999999910e+00,-3.493259756890000123e+00,6.697888011489999682e-01,-1.032998764539999925e+01,-5.999224185939999732e-01,-2.346612811090000028e-01,2.756896317009999708e-01,0.000000000000000000e+00
2.125193324000000050e+00,-3.422018228979999854e+00,7.708151534100000646e-01,-1.039269632279999911e+01,-7.014806866650000750e-01,-1.936539411540000033e-01,2.989439666270000129e-01,0.000000000000000000e+00
2.130222621999999788e+00,-2.570188341659999764e+00,1.225352015120000138e+00,-1.012836850999999960e+01,-6.922466754909999409e-01,-3.278166055680000190e-01,3.615213036540000369e-01,0.000000000000000000e+00
2.135164029999999880e+00,-2.324882624739999848e+00,1.881311028350000081e+00,-9.711491589919999612e+00,-6.387583017350000336e-01,-4.787074625489999846e-01,3.958199620250000272e-01,0.000000000000000000e+00
2.140032653000000007e+00,-2.582473530479999724e+00,1.909417763420000025e+00,-9.433664828630000443e+00,-4.923187494280000243e-01,-5.483654141429999962e-01,2.891987264160000293e-01,0.000000000000000000e+00
2.145122521999999865e+00,-2.833059525889999986e+00,1.265676792050000055e+00,-9.307158509610001573e+00,-3.548140525819999946e-01,-6.281695365910000550e-01,1.611937433479999904e-01,0.000000000000000000e+00
2.150194413999999998e+00,-3.075629095849999661e+00,3.797084882800000338e-01,-9.338755424880000433e+00,-3.010904490949999901e-01,-6.252672672269999898e-01,9.068413078780000747e-02,0.000000000000000000e+00
2.155224234999999933e+00,-2.970418955099999980e+00,-4.491097586240000439e-01,-9.739718151980000016e+00,-3.354457616809999876e-01,-5.648236274719999894e-01,1.143789589409999891e-01,0.000000000000000000e+00
2.160212823999999809e+00,-3.085699531219999958e+00,-1.029814756900000017e+00,-9.753253925379999245e+00,-4.080932736399999761e-01,-4.557459950450000186e-01,2.142197638749999966e-01,0.000000000000000000e+00
2.165220548999999828e+00,-3.012156448370000295e+00,-1.056182247089999970e+00,-9.930793097020000459e+00,-4.496749043460000483e-01,-3.546369373800000724e-01,2.549118399620000086e-01,0.000000000000000000e+00
2.170161197000000097e+00,-3.147224551769999934e+00,-7.100514726279999467e-01,-1.028445923539999995e+01,-4.522511959080000032e-01,-2.845248281960000014e-01,2.676493227479999626e-01,0.000000000000000000e+00
2.175195137999999861e+00,-3.555673835229999913e+00,5.758797335480000390e-01,-9.938472545610000708e+00,-4.425122737879999546e-01,-2.674090862269999924e-01,2.219282686710000174e-01,0.000000000000000000e+00
2.180246148999999800e+00,-3.182994368799999751e+00,7.813022067629999956e-01,-9.266727715020000034e+00,-4.141764640810000064e-01,-2.765152752400000247e-01,1.876414865260000175e-01,0.000000000000000000e+00
2.185137745000000020e+00,-2.853129669489999909e+00,1.361402512579999897e-02,-9.306570480589998695e+00,-3.570540845390000051e-01,-2.793752849100000213e-01,1.733085811140000210e-01,0.000000000000000000e+00
2.190199273999999807e+00,-2.785997038200000109e+00,-5.906988247559999961e-01,-9.265076440680001468e+00,-3.363205790519999683e-01,-2.521526217460000052e-01,1.843720823530000108e-01,0.000000000000000000e+00
2.195143166999999895e+00,-2.907013527630000205e+00,-5.201157972820000808e-01,-9.524621110840000071e+00,-3.488491475580000056e-01,-2.477736622099999952e-01,2.183747589589999927e-01,0.000000000000000000e+00
2.200190354000000070e+00,-3.138677964959999844e+00,4.131996928630000121e-01,-9.539538109460000470e+00,-4.013823568819999688e-01,-2.398414015769999852e-01,2.428098022940000100e-01,0.000000000000000000e+00
2.205185440999999802e+00,-3.265407571339999926e+00,1.187067584909999862e+00,-9.544911034669999239e+00,-4.230119884009999609e-01,-2.310824096199999844e-01,2.240842878819999939e-01,0.000000000000000000e+00
2.210223007000000184e+00,-3.414942006980000055e+00,1.348008453770000115e+00,-9.551038577639999971e+00,-4.160180687900000285e-01,-2.048726081849999991e-01,2.223992049690000083e-01,0.000000000000000000e+00
2.215231145000000179e+00,-3.360097779379999761e+00,1.174388647529999830e+00,-9.555112110689998772e+00,-3.441956341269999942e-01,-1.729138195509999920e-01,1.812850385900000028e-01,0.000000000000000000e+00
2.220060510000000153e+00,-3.324041546610000175e+00,9.664235040970000634e-01,-9.650447630900000462e+00,-2.825024425980000031e-01,-1.353262662890000190e-01,1.459521949289999954e-01,0.000000000000000000e+00
2.225175015000000034e+00,-3.027542525809999496e+00,1.223032924520000009e+00,-9.832043968980000770e+00,-1.936320811510000017e-01,-1.079145595429999993e-01,1.191488578919999985e-01,0.000000000000000000e+00
2.230122521999999829e+00,-2.937426201549999671e+00,1.513452990740000059e+00,-9.774617031400000045e+00,-1.410784274340000088e-01,-1.402928382159999987e-01,9.035601466890000322e-02,1.000000000000000000e+00
2.235206669000000090e+00,-3.080413115249999834e+00,1.311186497330000034e+00,-9.839427649489998373e+00,-1.304769068960000000e-01,-1.304740309719999991e-01,6.250682473180001197e-02,1.000000000000000000e+00
2.240196624000000192e+00,-3.004414163679999916e+00,8.248541290459999731e-01,-9.504799389029999546e+00,-7.295065373179999979e-02,-1.607481241229999913e-01,4.668145626780000751e-02,1.000000000000000000e+00
2.245149898000000199e+00,-3.079050886990000180e+00,6.797908474639999810e-01,-9.510110354920000120e+00,-4.128732904790000102e-02,-1.526470035309999973e-01,5.486351251600000284e-02,1.000000000000000000e+00
2.250144172000000165e+00,-3.025776100659999912e+00,5.205208709520000587e-01,-9.478042315010000607e+00,-1.794071309270000095e-02,-1.451842486859999948e-01,5.838251858950000567e-02,1.000000000000000000e+00
2.255064352999999855e+00,-2.816272933999999672e+00,3.255192174529999982e-01,-9.375893023139999727e+00,-1.046435814350000007e-02,-1.477027684449999934e-01,7.075902074580001089e-02,1.000000000000000000e+00
2.260188761000000213e+00,-2.752182154620000265e+00,6.527638156600000519e-02,-9.463739648889999856e+00,-3.419503569599999931e-02,-1.558985710139999814e-01,7.567897438999998672e-02,1.000000000000000000e+00
2.265053834000000155e+00,-2.703744286930000129e+00,-1.203146521719999917e-01,-9.450486199569999357e+00,-3.771375119690000000e-02,-1.353329569099999963e-01,7.693616300819999809e-02,1.000000000000000000e+00
2.270230500999999901e+00,-2.848168247689999877e+00,-1.202187723149999998e-01,-9.341527227680000323e+00,-7.039202749730000264e-02,-1.341102421279999901e-01,1.032244414090000145e-01,1.000000000000000000e+00
2.275237944000000123e+00,-2.731998613770000528e+00,-1.155384142129999986e-01,-9.318748409630000396e+00,-7.588456571099999604e-02,-1.285283565520000115e-01,1.093971431260000043e-01,1.000000000000000000e+00
2.280126371000000152e+00,-2.766866805799999884e+00,1.006701501009999999e-01,-9.363530969690000205e+00,-1.118906140330000049e-01,-1.345670670269999980e-01,1.174153387549999872e-01,1.000000000000000000e+00
2.285172354000000183e+00,-2.812302861330000070e+00,3.517589896030000052e-01,-9.374413598230001199e+00,-1.279379427429999938e-01,-1.454508006570000012e-01,1.195733398200000130e-01,1.000000000000000000e+00
2.290157377999999966e+00,-2.839799940059999805e+00,3.136427555680000312e-01,-9.268560191139998850e+00,-1.345882266760000112e-01,-1.478863358500000225e-01,1.044671386480000019e-01,1.000000000000000000e+00
2.295161870999999909e+00,-2.932667316590000350e+00,2.172753532950000011e-01,-9.290349998150000843e+00,-1.264773607249999876e-01,-1.483803987500000032e-01,1.127089187499999978e-01,1.000000000000000000e+00
2.300102009000000169e+00,-2.891344249340000339e+00,2.159919806879999904e-01,-9.293284882549999182e+00,-1.378539204599999735e-01,-1.242870464919999945e-01,1.095838546749999948e-01,1.000000000000000000e+00
2.305049073999999809e+00,-2.923073851069999840e+00,3.060632236920000082e-01,-9.337623205970000839e+00,-1.453046202659999953e-01,-1.126051098109999982e-01,1.147629544140000152e-01,1.000000000000000000e+00
2.310223611000000066e+00,-2.874541875360000276e+00,4.075679340539999918e-01,-9.413408222539999315e+00,-1.489199101920000157e-01,-1.299811899659999992e-01,1.142619922760000073e-01,1.000000000000000000e+00
2.315107513000000061e+00,-2.958832562200000460e+00,6.446795673990000086e-01,-9.411910092930000360e+00,-1.339308917520000142e-01,-1.353773176670000078e-01,1.007228568199999980e-01,1.000000000000000000e+00
2.320133390000000073e+00,-2.908903871420000176e+00,5.905149926220000234e-01,-9.319318902999999210e+00,-1.323527395730000056e-01,-1.175686568019999878e-01,9.736660122870000045e-02,1.000000000000000000e+00
2.325124644999999823e+00,-2.905247102479999732e+00,6.871402603790000008e-01,-9.263250978820000370e+00,-1.163710057740000026e-01,-1.243049055340000042e-01,1.217221096159999960e-01,1.000000000000000000e+00
2.330108143999999992e+00,-2.822000371740000180e+00,8.149718366529999924e-01,-9.341350117539999331e+00,-1.132762879130000122e-01,-1.112393066290000149e-01,9.720294922589998998e-02,1.000000000000000000e+00
2.335125946999999869e+00,-2.839508848159999932e+00,7.787464578650000746e-01,-9.412084864980000631e+00,-1.109674349430000012e-01,-1.034492403270000083e-01,7.141585648060000402e-02,1.000000000000000000e+00
2.340219439000000179e+00,-2.880387386509999814e+00,7.908822282740000098e-01,-9.519675471130000233e+00,-9.301060438159999832e-02,-1.022103279830000044e-01,6.884632259610000415e-02,1.000000000000000000e+00
2.345220063000000188e+00,-2.895867279720000020e+00,8.021129396009999413e-01,-9.611723055710001518e+00,-8.193568140269999467e-02,-1.313336193559999920e-01,5.525107309219999541e-02,1.000000000000000000e+00
2.350198910000000030e+00,-2.986595890649999863e+00,7.806781565800000600e-01,-9.502419215899999827e+00,-7.636605948210001271e-02,-1.239378824829999864e-01,5.676581710580000384e-02,1.000000000000000000e+00
2.355202052000000101e+00,-3.046565498450000131e+00,7.053372305230000139e-01,-9.451821247559999861e+00,-5.676405504350000297e-02,-1.155763790009999986e-01,4.801640659570000080e-02,1.000000000000000000e+00
2.360138232999999808e+00,-3.039862201420000076e+00,6.562160567399999422e-01,-9.490947973809999993e+00,-5.404023826119999652e-02,-1.040154844519999983e-01,3.780834376810000147e-02,1.000000000000000000e+00
2.365203908999999882e+00,-3.067432053129999669e+00,6.512699786399999136e-01,-9.382655941399999477e+00,-2.794573828579999947e-02,-1.048997342589999965e-01,3.260437026620000012e-02,1.000000000000000000e+00
2.370126710000000081e+00,-2.968810350849999669e+00,4.965061909730000278e-01,-9.360334803999998954e+00,-1.430549938229999998e-02,-8.554831147189999319e-02,2.342958003279999729e-02,1.000000000000000000e+00
2.375084456999999816e+00,-2.956625407540000250e+00,3.810693283050000102e-01,-9.349970061849999681e+00,-2.191763743759999813e-02,-9.173374623060001620e-02,2.907933108509999642e-02,1.000000000000000000e+00
2.380204485999999786e+00,-2.934014931809999727e+00,2.414940679470000129e-01,-9.394472635919999703e+00,-2.899143844840000248e-02,-8.553573489189998658e-02,2.625575847919999969e-02,1.000000000000000000e+00
2.385197880000000215e+00,-2.963542347319999770e+00,3.113656409489999888e-01,-9.416230294220000019e+00,-3.880827873949999757e-02,-8.864125609400000383e-02,5.552240833640000039e-02,1.000000000000000000e+00
2.390053695000000200e+00,-3.103764472479999537e+00,5.349601325299999655e-01,-9.370997652310000703e+00,-2.278798818590000233e-02,-8.268027752639998951e-02,4.653151705860000126e-02,1.000000000000000000e+00
2.395223434000000040e+00,-3.166802235680000077e+00,7.414373754949999951e-01,-9.319138870259999763e+00,-6.066814064980000087e-02,-9.475593268870000085e-02,3.426456078890000034e-02,1.000000000000000000e+00
2.400161084000000056e+00,-3.114338181209999945e+00,7.858475951080000632e-01,-9.370023254319999495e+00,-5.948035791519999671e-02,-8.075106889010000288e-02,4.494310170409999972e-02,1.000000000000000000e+00
2.405100378000000205e+00,-3.050116761189999970e+00,7.533803267449999952e-01,-9.414823934560001106e+00,-4.603826254610000196e-02,-7.630722224710000112e-02,1.764817349609999753e-02,1.000000000000000000e+00
2.410207165000000096e+00,-3.189951056079999958e+00,7.743499764719999900e-01,-9.361351287559999790e+00,-4.293746128680000357e-02,-5.369817838069999849e-02,2.100493200120000237e-02,1.000000000000000000e+00
2.415168951000000064e+00,-3.099189127390000298e+00,6.637251171960000251e-01,-9.337233329869999210e+00,-1.583309099079999865e-02,-3.735112026330000140e-02,8.304676041009999635e-03,1.000000000000000000e+00
2.420218248999999933e+00,-3.077804394059999726e+00,6.334026788419999665e-01,-9.383831414919999503e+00,-1.653398945929999975e-02,-4.765175282959999842e-02,1.062274165449999912e-02,1.000000000000000000e+00
2.425039882000000091e+00,-3.064547145340000611e+00,6.390547132539999842e-01,-9.413975793289999672e+00,-1.534639298920000006e-02,-5.905037745830000323e-02,1.107236556710000132e-02,1.000000000000000000e+00
2.430126350000000102e+00,-3.007074615059999623e+00,7.185665683210000765e-01,-9.428161555029999974e+00,-5.274821072819999880e-03,-3.913379088040000453e-02,-9.229229763150000043e-03,1.000000000000000000e+00
2.435177133999999910e+00,-3.007387918790000114e+00,7.709553655980000419e-01,-9.415861460910001313e+00,9.723762050270000346e-03,-5.983789637680000939e-02,-2.159473113720000378e-02,1.000000000000000000e+00
2.440201608999999827e+00,-2.965345889609999563e+00,7.293667062119999489e-01,-9.387396998450000751e+00,1.618052087720000046e-02,-3.885091096159999646e-02,-2.642446197569999974e-02,1.000000000000000000e+00
2.445184395000000066e+00,-2.982294686329999944e+00,6.934850993610001124e-01,-9.419858421589999864e+00,3.294377773999999925e-02,-4.546575993300000507e-02,-3.454389050599999955e-02,1.000000000000000000e+00
2.450146909999999956e+00,-2.928094017319999853e+00,5.354138676459999635e-01,-9.509327095589998891e+00,5.077549815179999843e-02,-6.205354258419999713e-02,-2.963330782949999756e-02,1.000000000000000000e+00
2.455172896000000105e+00,-2.848656907990000153e+00,6.092701811699999803e-01,-9.469994033110001652e+00,3.713325411080000554e-02,-7.610852271319999696e-02,-3.221761062740000070e-02,1.000000000000000000e+00
2.460068882999999929e+00,-2.688806830039999873e+00,4.874616280449999839e-01,-9.614503041810001704e+00,5.123076215390000299e-02,-8.071181923150000381e-02,-5.649769678709999632e-02,1.000000000000000000e+00
2.465025687999999882e+00,-2.903646681549999720e+00,4.831474911729999877e-01,-9.721554134260001589e+00,5.689126625659999409e-02,-1.324950754639999950e-01,2.973738592119999809e-03,1.000000000000000000e+00
2.470148673000000183e+00,-2.593555480980000105e+00,6.392942210990000262e-01,-9.629867199680001377e+00,8.553745597600000139e-02,-1.530603915450000074e-01,-2.896367199719999952e-02,1.000000000000000000e+00
2.475231511000000051e+00,-2.610457515940000306e+00,4.244344958440000037e-01,-9.693221189219999090e+00,7.614437490700000366e-02,-1.578065156940000047e-01,-2.301783859729999993e-02,1.000000000000000000e+00
2.480158046000000116e+00,-2.658333950359999864e+00,3.093415147099999873e-01,-9.680240127090000257e+00,5.271303281190000550e-02,-1.881894618269999986e-01,-1.732161454859999783e-02,0.000000000000000000e+00
2.485207689000000109e+00,-2.558022687569999842e+00,3.544022706530000066e-01,-9.786489840019999775e+00,5.717148259279999922e-02,-2.212138623000000082e-01,-4.543253686279999544e-03,0.000000000000000000e+00
2.490043275000000111e+00,-2.706284326800000084e+00,5.049759862200000615e-01,-9.914919820580001542e+00,5.652393028140000053e-02,-2.544470429419999902e-01,-4.721769131720000151e-03,0.000000000000000000e+00
2.495057783000000029e+00,-2.595994106309999605e+00,5.040455004360000490e-01,-9.830482126489998862e+00,4.304586350919999832e-02,-3.030943870539999918e-01,6.224390584979999121e-03,0.000000000000000000e+00
2.500199031999999821e+00,-2.792080449769999806e+00,5.391840338350000206e-01,-9.838076234880000825e+00,5.591823533180000083e-02,-3.498861193660000035e-01,1.627851277590000242e-02,0.000000000000000000e+00
2.505044561000000058e+00,-2.750201209940000169e+00,1.020517717049999940e+00,-9.880046075599999256e+00,7.510866969819998684e-02,-3.800754249099999593e-01,1.077548786999999939e-02,0.000000000000000000e+00
2.510076983999999900e+00,-2.670995863539999959e+00,6.934829804690000321e-01,-9.974393753810000263e+00,8.076732605700000234e-02,-4.361734986310000228e-01,8.011192083359999772e-03,0.000000000000000000e+00
2.515195520999999879e+00,-2.909766917990000312e+00,9.059246117320000069e-01,-1.010312300960000087e+01,1.191620677710000104e-01,-4.593214690690000102e-01,3.583888337019999759e-02,0.000000000000000000e+00
2.520194018000000202e+00,-2.784891415050000152e+00,1.300676501500000137e+00,-9.961949282779999137e+00,1.452605873349999965e-01,-4.985050559040000162e-01,2.672264538710000109e-02,0.000000000000000000e+00
2.525196087999999950e+00,-2.867920411390000091e+00,1.143686854470000069e+00,-1.011687564060000000e+01,1.932311654089999831e-01,-5.600810050960000064e-01,3.539548441769999748e-02,0.000000000000000000e+00
2.530181309000000045e+00,-2.719907193959999692e+00,9.128270845960000379e-01,-1.021318263620000089e+01,2.080377787350000118e-01,-5.939825773239999496e-01,3.378884494299999597e-02,0.000000000000000000e+00
2.535109484999999996e+00,-2.602538705640000227e+00,1.080247451680000026e+00,-1.060922076640000000e+01,2.499702125789999840e-01,-6.555328369139999944e-01,3.434505313629999945e-02,0.000000000000000000e+00
2.540182536000000102e+00,-2.515960784649999837e+00,1.342640496999999877e+00,-1.091133558119999947e+01,2.740685045719999935e-01,-7.327384948729999126e-01,2.577977068719999876e-02,0.000000000000000000e+00
2.545055622000000017e+00,-2.336124588109999678e+00,9.357401965420000245e-01,-1.086367132829999882e+01,2.845772504809999659e-01,-8.224402070049999791e-01,-9.779162937779998718e-04,0.000000000000000000e+00
2.550074356000000098e+00,-2.327922284690000065e+00,8.481013683159999150e-01,-1.081559790999999926e+01,2.977981567379999750e-01,-9.186763763429999230e-01,-2.644057199360000041e-02,0.000000000000000000e+00
2.555017636000000092e+00,-2.633387140630000012e+00,4.400826948200000088e-01,-1.104387475069999880e+01,3.081118762489999940e-01,-1.002611279489999951e+00,-3.532675560560000205e-03,0.000000000000000000e+00
2.560165047999999999e+00,-2.430880993259999734e+00,1.736976389840000079e-01,-1.107744384279999927e+01,2.694000899790000014e-01,-1.109684348110000052e+00,3.707927092909999583e-02,0.000000000000000000e+00
2.564933919000000007e+00,-2.620531750709999663e+00,9.059941698360000073e-01,-1.109211651130000043e+01,2.719340920450000199e-01,-1.224791884420000088e+00,4.796646162870000368e-02,0.000000000000000000e+00
2.569932597999999846e+00,-2.585865218739999971e+00,8.190035763869999430e-01,-1.110611113440000075e+01,2.680774927139999986e-01,-1.322348475460000117e+00,4.767520725729999798e-02,0.000000000000000000e+00
2.574966097999999981e+00,-2.493741938579999928e+00,7.182556026759999712e-01,-1.128351469690000108e+01,2.825539708140000217e-01,-1.415402889250000129e+00,7.054739445450000646e-02,0.000000000000000000e+00
2.580195942000000020e+00,-2.324316076890000193e+00,4.303785354730000345e-01,-1.149933186900000059e+01,2.934888601300000288e-01,-1.528272151949999991e+00,8.448372036219999048e-02,0.000000000000000000e+00
2.585144880000000089e+00,-2.118189254799999865e+00,3.479397966409999987e-01,-1.174475741290000030e+01,2.812289297580000125e-01,-1.634374618529999879e+00,8.298304677010000241e-02,0.000000000000000000e+00
2.590211952000000206e+00,-1.824413083090000054e+00,2.745500959830000087e-01,-1.199156827369999867e+01,2.692083120350000081e-01,-1.780259847640000226e+00,8.686718344689998983e-02,0.000000000000000000e+00
2.595081594999999908e+00,-1.663512473169999950e+00,3.824083948889999696e-01,-1.251393678180000002e+01,2.152083069090000300e-01,-1.966744422909999734e+00,1.004904806609999979e-01,0.000000000000000000e+00
2.600181345000000199e+00,-1.578003204320000075e+00,-7.191138086739999602e-02,-1.248479485849999904e+01,1.588432937859999838e-01,-2.149743556979999859e+00,1.021010279659999853e-01,0.000000000000000000e+00
2.605066769000000004e+00,-1.604421255640000155e+00,-5.730542277979999710e-01,-1.270950027049999953e+01,7.989074289800000839e-02,-2.360974073409999985e+00,6.820659339430000523e-02,0.000000000000000000e+00
2.610215327999999779e+00,-9.848531139530000145e-01,-9.064835607889999425e-01,-1.317772217789999978e+01,1.424098294229999943e-02,-2.540258646009999843e+00,4.652332514519999518e-02,0.000000000000000000e+00
2.614994539000000007e+00,-8.535084880570000809e-01,-1.189696179839999868e+00,-1.342214000599999935e+01,-1.061241030689999976e-01,-2.771426439290000321e+00,1.970284804699999961e-02,0.000000000000000000e+00
2.620105596000000148e+00,-5.144323448179999314e-01,-6.952846230639999625e-01,-1.288326810690000102e+01,-2.094863057140000095e-01,-3.034009933470000142e+00,4.401349276299999780e-02,0.000000000000000000e+00
2.625252167999999831e+00,-3.741767923120000172e-01,-1.477321500779999797e+00,-1.377784144960000035e+01,-3.616618514060000456e-01,-3.222491264340000328e+00,-2.969422843310000164e-03,0.000000000000000000e+00
2.630123608999999973e+00,-2.750057125290000237e-01,-2.357818387390000048e+00,-1.483604117400000177e+01,-4.802823364729999489e-01,-3.573658227919999764e+00,4.855112638319999258e-03,0.000000000000000000e+00
2.635216511999999955e+00,-5.640418501070000312e-01,-2.937532292279999790e+00,-1.486766147019999984e+01,-7.011138796809999185e-01,-3.913973569870000002e+00,3.218312934040000461e-02,0.000000000000000000e+00
2.640212639000000028e+00,-9.906552243600000862e-01,-4.266980860880000392e+00,-1.445741127480000010e+01,-9.118032455439999406e-01,-4.251546859740000350e+00,7.015857845539999471e-02,0.000000000000000000e+00
2.645249258000000214e+00,-8.065256414770000104e-01,-4.373621034430000165e+00,-1.476598271839999832e+01,-1.172663569449999832e+00,-4.570080757139999506e+00,1.045750156039999962e-01,0.000000000000000000e+00
2.650182534999999895e+00,-1.958027188290000220e+00,-4.636251687909999752e+00,-1.496600260190000142e+01,-1.446091294289999940e+00,-4.954437732699999763e+00,1.336372941730000208e-01,0.000000000000000000e+00
2.655225553000000183e+00,-3.886625745259999487e+00,-5.878950486080000815e+00,-1.448160229770000029e+01,-1.797292232509999810e+00,-5.206139564509999929e+00,2.001113742590000244e-01,0.000000000000000000e+00
2.660183389999999815e+00,-6.592836422300000443e+00,-8.767269542370000224e+00,-1.529747210609999897e+01,-2.177992343899999739e+00,-5.401277542109999885e+00,3.638086020949999888e-01,0.000000000000000000e+00
2.665143567999999963e+00,-9.107686323099999370e+00,-1.158846561200000025e+01,-1.519976459609999964e+01,-2.690356969829999834e+00,-5.430186748500000604e+00,5.582335591320000123e-01,0.000000000000000000e+00
2.670112658999999944e+00,-1.245232349849999842e+01,-1.155983689890000043e+01,-1.618286377900000161e+01,-3.325463294979999596e+00,-5.261821746829999924e+00,7.332916855809999968e-01,0.000000000000000000e+00
2.675208365000000033e+00,-1.610784507069999805e+01,-1.050536993130000063e+01,-1.723583904679999890e+01,-4.086775779719999058e+00,-4.998624324800000629e+00,8.844807744029999919e-01,0.000000000000000000e+00
2.680204768999999931e+00,-1.728288487560000064e+01,-1.015968368570000102e+01,-1.734926435039999859e+01,-4.722517013550000087e+00,-4.497102737430000552e+00,1.032876253129999977e+00,0.000000000000000000e+00
2.685101362999999797e+00,-1.708296552979999916e+01,-8.725482072480000184e+00,-1.629830568319999884e+01,-5.115698814389999960e+00,-3.897838830950000499e+00,1.203219890590000007e+00,0.000000000000000000e+00
2.690183993000000218e+00,-1.502873582920000040e+01,-7.117561138150000133e+00,-1.418378839490000054e+01,-5.315297126769999991e+00,-3.238667964940000310e+00,1.581898093219999968e+00,0.000000000000000000e+00
2.695169416000000151e+00,-1.184911093690000072e+01,-5.407822920380000120e+00,-1.447412860079999852e+01,-5.367983818049999911e+00,-2.800055265429999718e+00,1.756914258000000117e+00,0.000000000000000000e+00
2.700122315999999856e+00,-1.190977261859999814e+01,-4.027898840779999823e+00,-1.374388306589999864e+01,-5.402246475219999233e+00,-2.552795886989999818e+00,1.816483020779999791e+00,0.000000000000000000e+00
2.705055728000000048e+00,-1.478003930079999861e+01,-4.174312806309999679e+00,-1.686772820339999868e+01,-5.403804302220000189e+00,-2.435542345050000002e+00,1.525124549870000124e+00,0.000000000000000000e+00
2.710238292000000104e+00,-1.452386089220000009e+01,-6.704937199349999766e+00,-1.537301337700000126e+01,-5.259778499599999435e+00,-2.213444709779999631e+00,1.323814034460000011e+00,0.000000000000000000e+00
2.715135454999999975e+00,-9.717952894889998916e+00,-7.556251246100000429e+00,-1.307567400830000004e+01,-5.019167900090000245e+00,-1.968313455579999927e+00,1.270258665079999849e+00,0.000000000000000000e+00
2.720220643999999854e+00,-3.237076672130000166e+00,-7.314478379480000569e+00,-1.030475266640000065e+01,-4.835128307340000653e+00,-1.436283349989999847e+00,1.260041832920000049e+00,0.000000000000000000e+00
2.725208255000000079e+00,-1.284898063740000040e+00,-9.094552700760001329e+00,-8.304943122770000130e+00,-4.845474720000000346e+00,-6.919968724250000758e-01,1.258131861689999909e+00,0.000000000000000000e+00
2.730190262999999895e+00,-2.502855394719999893e+01,-5.625252203860000577e+00,-7.572101141660000145e+00,-5.424656391139999201e+00,-7.428121566769999573e-01,4.354277253149999583e-01,0.000000000000000000e+00
2.735121851999999798e+00,-2.930272764219999715e+01,-3.173644648920000311e+00,-1.211157295579999982e+01,-5.688229560849999977e+00,-7.965083718300000060e-01,-2.600510418420000081e-01,0.000000000000000000e+00
2.740194950999999879e+00,-2.507989601190000073e+01,-1.108815579089999837e+01,-1.619986050650000209e+01,-5.601926803589999615e+00,1.285632550720000045e-01,-9.293723106380000765e-01,0.000000000000000000e+00
2.745219040999999915e+00,-1.172636134000000041e+01,-1.048816628299999998e+01,-1.291723818099999832e+01,-5.130964279169999642e+00,1.594529509540000056e+00,-1.902301669120000094e+00,0.000000000000000000e+00
2.750194650000000074e+00,-9.640839844600000319e+00,-4.229815790089999972e+00,-9.952006565439999619e+00,-4.737840175630000594e+00,3.316763162609999593e+00,-2.043433904650000077e+00,0.000000000000000000e+00
2.755213551000000205e+00,-8.488665951479999805e+00,-6.018266017790000255e+00,-8.721950975739998668e+00,-4.782310962680000443e+00,4.414932727809999236e+00,-1.992716908450000046e+00,0.000000000000000000e+00
2.760238294000000092e+00,-7.041789565589999356e+00,-9.365794822969998989e+00,-7.055225385750000910e+00,-4.983397483830000141e+00,4.944688320160000039e+00,-1.758379936220000106e+00,0.000000000000000000e+00
2.765107791999999787e+00,-2.516301268649999923e+00,-9.310864962909999321e+00,-5.480701109590000009e+00,-5.005107402799999328e+00,4.680974006650000518e+00,-1.758172631259999896e+00,0.000000000000000000e+00
2.770204564000000147e+00,1.787167348279999901e+00,-5.538233261100000249e+00,-3.851038299049999836e+00,-4.770647048949999913e+00,3.787174940109999888e+00,-1.731108903879999827e+00,0.000000000000000000e+00
2.775176844999999837e+00,2.652365981870000056e+00,-3.185849465980000073e+00,-3.611383739750000377e+00,-4.509656429290000546e+00,2.875960826870000542e+00,-1.796744227410000061e+00,0.000000000000000000e+00
2.780224263000000029e+00,2.486123572529999937e+00,-3.211310070450000165e+00,-3.489792957569999743e+00,-4.148713588709999733e+00,2.159539937969999990e+00,-1.894047617909999870e+00,0.000000000000000000e+00
2.785203665000000051e+00,2.181182740459999714e+00,-2.048938023920000351e+00,-2.716899244319999962e+00,-3.801241159439999961e+00,1.521057844160000005e+00,-2.096462488169999805e+00,0.000000000000000000e+00
2.790196793999999869e+00,7.739340160819999648e-01,-3.575600770969999509e+00,-6.254672096679999571e-01,-3.377120971679999695e+00,1.271773099899999870e+00,-2.300574779509999779e+00,0.000000000000000000e+00
2.795145111000000071e+00,6.728281688449999631e-01,-3.115010381380000304e+00,-2.647950795779999922e+00,-2.944054603579999707e+00,9.908615946770000793e-01,-2.271635055540000003e+00,0.000000000000000000e+00
2.800095971000000183e+00,-8.446604340819999224e-02,-3.716182961619999503e+00,-3.770433607240000207e+00,-2.558742284770000097e+00,1.049299001689999900e+00,-2.321400880809999734e+00,0.000000000000000000e+00
2.805048860999999949e+00,-5.583008953019999998e-01,-4.261401891700000277e+00,-3.683887542689999961e+00,-2.307959556579999738e+00,1.195974469180000055e+00,-2.463569879529999618e+00,0.000000000000000000e+00
2.810074938000000078e+00,-1.483410026910000123e+00,-5.406389672710000482e+00,-5.083281754180000611e+00,-2.136636972429999837e+00,1.202322959900000043e+00,-2.568812370299999870e+00,0.000000000000000000e+00
2.815049038000000170e+00,-9.973668508280000289e-01,-6.139722067680000173e+00,-5.377500262829999933e+00,-2.071485757830000107e+00,1.314662694929999764e+00,-2.849908590320000101e+00,0.000000000000000000e+00
2.820034547000000114e+00,-1.396725430670000101e+00,-7.504518720780001040e+00,-5.582487413369999985e+00,-2.067605733869999796e+00,1.339980006220000019e+00,-3.105671644210000082e+00,0.000000000000000000e+00
2.825252948000000153e+00,-1.828699966629999896e+00,-8.022137988529999930e+00,-5.564625008940000228e+00,-2.139530181880000104e+00,1.402361631390000030e+00,-3.419756650920000141e+00,0.000000000000000000e+00
2.830129348999999905e+00,-2.236087027690000451e+00,-8.463620942069999487e+00,-5.465856007150000195e+00,-2.300369501109999604e+00,1.516461491579999876e+00,-3.706849813459999421e+00,0.000000000000000000e+00
2.835200609999999788e+00,-2.094769216250000010e+00,-8.625047767829999046e+00,-5.490169779680000417e+00,-2.477630138399999904e+00,1.736190080640000133e+00,-3.965802192690000005e+00,0.000000000000000000e+00
2.840226547999999962e+00,-1.931969348579999801e+00,-8.325372162809999921e+00,-5.540785868190000407e+00,-2.697663545609999769e+00,2.006307125090000198e+00,-4.182353496549999328e+00,0.000000000000000000e+00
2.845171665000000072e+00,-1.832170419220000124e+00,-7.745221912339999903e+00,-5.003847567460000256e+00,-2.920820951459999648e+00,2.261936187740000381e+00,-4.411150455469999621e+00,0.000000000000000000e+00
2.850189551000000154e+00,-1.565277139870000278e+00,-7.150213115429999711e+00,-4.441521142970000113e+00,-3.049232006070000001e+00,2.447726011279999891e+00,-4.619899749760000063e+00,0.000000000000000000e+00
2.855202557999999780e+00,-9.647398618590000696e-01,-6.342547071749999432e+00,-4.035536788309999956e+00,-3.082753181459999769e+00,2.556188821790000176e+00,-4.796567916869999948e+00,0.000000000000000000e+00
2.860213059999999974e+00,-3.946854734640000140e-01,-5.178345471710000147e+00,-3.671059917559999608e+00,-3.053638935089999951e+00,2.614003181459999769e+00,-4.934369087219999450e+00,0.000000000000000000e+00
2.865166842999999908e+00,-1.688150363080000160e-01,-4.237356999250000200e+00,-3.532785127079999921e+00,-2.946611166000000281e+00,2.574072360990000252e+00,-5.027400493620000077e+00,0.000000000000000000e+00
2.870122816999999937e+00,-6.361150065410000609e-01,-3.316898981380000055e+00,-4.106963609659999292e+00,-2.772802114490000136e+00,2.565456867219999992e+00,-5.050836563109999844e+00,0.000000000000000000e+00
2.875205440999999862e+00,-1.079282552170000020e+00,-3.336822994509999862e+00,-3.398367012020000022e+00,-2.549141883849999957e+00,2.603758335109999766e+00,-5.030580997469999538e+00,0.000000000000000000e+00
2.880215046000000001e+00,-1.333412065410000125e+00,-3.129828011280000322e+00,-4.115650773989999678e+00,-2.316487550739999790e+00,2.620060443879999923e+00,-4.924181461329999898e+00,0.000000000000000000e+00
2.885102985000000064e+00,-2.242264839540000221e+00,-3.323866774570000349e+00,-4.757648116559999529e+00,-2.056536436079999586e+00,2.717592477799999795e+00,-4.786803245539999807e+00,0.000000000000000000e+00
2.890047377999999778e+00,-2.646604934119999974e+00,-3.745245389970000005e+00,-5.079306420810000056e+00,-1.840680599209999713e+00,2.855333089829999782e+00,-4.629064083100000282e+00,0.000000000000000000e+00
2.895028813999999784e+00,-3.079745591250000025e+00,-4.368495654240000192e+00,-5.639109464299999708e+00,-1.709608316420000218e+00,2.975431203839999927e+00,-4.441726207730000375e+00,0.000000000000000000e+00
2.899963850999999870e+00,-3.382985903009999795e+00,-5.142803033679999913e+00,-5.917886073670000080e+00,-1.640768647189999818e+00,3.115150928500000305e+00,-4.282595157619999426e+00,0.000000000000000000e+00
2.905004798999999860e+00,-3.693621001199999920e+00,-5.699416341220000071e+00,-6.037360009830000429e+00,-1.657479643819999904e+00,3.250705003740000265e+00,-4.124816894530000333e+00,0.000000000000000000e+00
2.910224845000000116e+00,-3.951846989969999946e+00,-6.248180104310000260e+00,-6.042264148490000153e+00,-1.719622373579999808e+00,3.393711566929999979e+00,-3.955847501750000106e+00,0.000000000000000000e+00
2.915184093999999781e+00,-3.910635566399999874e+00,-6.755230047259999537e+00,-6.079278412629999906e+00,-1.805444598200000028e+00,3.542279005050000151e+00,-3.809340238569999926e+00,0.000000000000000000e+00
2.920247734999999789e+00,-4.121092380519999487e+00,-7.057575163739999269e+00,-6.063164313180000597e+00,-1.925398468970000110e+00,3.641728878019999893e+00,-3.678313016890000231e+00,0.000000000000000000e+00
2.925211226000000053e+00,-4.258770958680000440e+00,-7.436171745260000243e+00,-6.044143970889999551e+00,-2.002977609629999822e+00,3.707634925839999873e+00,-3.577431201930000082e+00,0.000000000000000000e+00
