t,ax,ay,az,wx,wy,wz,zv
5.192134000000000159e-03,-2.324618566969999911e+00,1.823142405569999902e-01,-9.496696746599999628e+00,-4.352029412979999470e-03,-1.956481859090000025e-02,-1.128537696789999817e-03,1.000000000000000000e+00
1.004081899999999944e-02,-2.335302896459999999e+00,1.609236437369999939e-01,-9.497515661769998729e+00,9.140589274469999859e-03,1.557834912090000010e-03,1.004180638120000116e-03,1.000000000000000000e+00
1.505040199999999918e-02,-2.291425468549999955e+00,2.070148204410000026e-01,-9.516810729349998610e+00,1.415036432450000013e-02,-9.369114413859999657e-03,-5.816421471540000844e-04,1.000000000000000000e+00
2.015973600000000102e-02,-2.309683302040000275e+00,2.187280911210000012e-01,-9.541671614360000220e+00,3.218330908570000200e-03,6.305934861300000090e-03,2.323376713320000116e-03,1.000000000000000000e+00
2.507916500000000048e-02,-2.297792227109999974e+00,2.116517777930000122e-01,-9.536706100900000038e+00,-8.395718410610000793e-03,1.206558290870000071e-02,-3.326007397849999655e-03,1.000000000000000000e+00
3.018316500000000138e-02,-2.347400453750000171e+00,2.155269935240000101e-01,-9.507653024899999750e+00,7.397094275799999917e-03,1.592929475010000282e-04,8.460441604260000512e-03,1.000000000000000000e+00
3.518652199999999786e-02,-2.311575107129999918e+00,2.237353248229999869e-01,-9.524206100289999810e+00,-9.298912249510000658e-03,-3.174357116220000163e-02,-1.630500308239999935e-03,1.000000000000000000e+00
4.005553199999999786e-02,-2.283546259610000018e+00,1.795607040649999930e-01,-9.529617019430000724e+00,-2.479232382030000133e-03,-1.670594885950000066e-02,-9.306360036129999666e-03,1.000000000000000000e+00
4.518167299999999859e-02,-2.352545415429999842e+00,2.010029032070000110e-01,-9.531748186239999754e+00,3.150088014079999860e-03,6.578427739440000088e-03,1.105086784810000063e-02,1.000000000000000000e+00
5.019239400000000129e-02,-2.292781997730000132e+00,1.952041903330000161e-01,-9.516091182900000334e+00,-1.341255148870000059e-03,1.562759745869999814e-03,-9.200283093380001286e-04,1.000000000000000000e+00
5.518943999999999933e-02,-2.293559265709999906e+00,2.343187877560000132e-01,-9.517404603590000178e+00,9.046291816050000285e-04,-5.591212771830000004e-03,5.516940727829999953e-03,1.000000000000000000e+00
6.015963500000000297e-02,-2.298524779159999643e+00,2.104486856129999806e-01,-9.536801377969998939e+00,3.200372681019999881e-03,-2.753031905739999462e-03,2.060797763989999799e-03,1.000000000000000000e+00
6.518756900000000076e-02,-2.342962471309999906e+00,1.736622936760000013e-01,-9.540347672280001134e+00,7.574909832330000391e-03,-1.064342446629999890e-02,4.482817836109999864e-03,1.000000000000000000e+00
7.016593999999999609e-02,-2.282414625229999938e+00,1.808841346880000200e-01,-9.509662611160001333e+00,2.161196898670000172e-03,5.614181049170000742e-03,1.758858794349999703e-03,1.000000000000000000e+00
7.505078399999999539e-02,-2.334310670559999856e+00,2.106780373899999892e-01,-9.526142621310000891e+00,4.560841713100000430e-03,-2.010110067200000187e-03,-2.956120762970000128e-03,1.000000000000000000e+00
8.013528699999999949e-02,-2.360690143440000277e+00,1.952283018609999865e-01,-9.523708087639999320e+00,7.212020456789999465e-03,5.398525856440000020e-03,6.876169703899998736e-03,1.000000000000000000e+00
8.504709800000000153e-02,-2.339852230330000005e+00,2.250714139989999918e-01,-9.514185057020000613e+00,1.395430788399999907e-02,3.045256249609999862e-03,2.682490972800000324e-03,1.000000000000000000e+00
9.017528299999999497e-02,-2.300665590589999976e+00,1.929848337829999927e-01,-9.484774838139998110e+00,5.516566336149998986e-03,-6.227032281460000889e-04,1.061915792520000054e-02,1.000000000000000000e+00
9.501356099999999638e-02,-2.330121256039999977e+00,1.820670243299999935e-01,-9.528204230020000054e+00,-6.341211497779999755e-03,7.308041676879999788e-05,1.699684420600000058e-03,1.000000000000000000e+00
1.001910379999999962e-01,-2.324757975440000290e+00,1.749711660509999933e-01,-9.511129761099999413e+00,-7.429839111860000143e-03,7.441069930790000439e-03,5.262891761959999880e-03,1.000000000000000000e+00
1.051876380000000000e-01,-2.316628298869999991e+00,1.858358205449999745e-01,-9.498075633739999191e+00,1.900480827319999799e-03,-7.494973018770000571e-03,-1.921933842819999790e-03,1.000000000000000000e+00
1.100354800000000050e-01,-2.321891480099999683e+00,2.093505516459999993e-01,-9.519268643889999382e+00,9.446804411709999044e-03,1.186744775619999991e-02,6.553447805350000668e-03,1.000000000000000000e+00
1.150317019999999996e-01,-2.337174973950000290e+00,2.144838959460000083e-01,-9.489700019580000756e+00,1.207649940619999734e-03,-1.250905636699999914e-02,5.822556093340000224e-03,1.000000000000000000e+00
1.201939820000000048e-01,-2.341511541850000100e+00,2.096475252980000148e-01,-9.500294478829999889e+00,-3.565831575539999548e-03,-7.707039825619999181e-03,5.417621694510000793e-03,1.000000000000000000e+00
1.250537110000000118e-01,-2.322692275090000091e+00,2.213155503310000050e-01,-9.519924477450000921e+00,-4.956622142339999967e-03,-4.460986237970000594e-03,3.416012274100000030e-03,1.000000000000000000e+00
1.300373009999999940e-01,-2.308233541619999940e+00,2.390487754199999981e-01,-9.530900629499999610e+00,-1.050822157410000006e-02,1.599040813740000002e-03,-3.997236955909999959e-03,1.000000000000000000e+00
1.350124719999999945e-01,-2.331198237619999780e+00,2.225150075150000017e-01,-9.514303714960000491e+00,-7.024481426920000174e-03,8.658396545800000959e-04,3.846147796140000127e-03,1.000000000000000000e+00
1.401579950000000074e-01,-2.337698267169999955e+00,2.367697245719999899e-01,-9.526801377479999999e+00,-7.222522515800000251e-03,-5.410661920909999936e-03,2.292377641419999969e-03,1.000000000000000000e+00
1.451482269999999908e-01,-2.320718344659999932e+00,2.298343540849999977e-01,-9.495134319589999095e+00,-9.446877986190000548e-03,-1.367982942610000046e-03,2.439554547889999890e-03,1.000000000000000000e+00
1.501724799999999971e-01,-2.340125640449999711e+00,2.199816713780000099e-01,-9.545548163530000352e+00,-1.031083287669999930e-03,2.591518312689999881e-02,-1.697557512670000131e-03,1.000000000000000000e+00
1.550369500000000067e-01,-2.304477696220000205e+00,2.056192013639999983e-01,-9.540556346589999848e+00,2.014535479250000038e-02,-5.224247463050000692e-03,-5.214222241189999524e-03,1.000000000000000000e+00
1.601888949999999978e-01,-2.327627101140000043e+00,1.889733513859999936e-01,-9.549307808320000035e+00,2.477759728210000064e-03,-3.562404308469999678e-04,-8.667655289170000249e-03,1.000000000000000000e+00
1.651801189999999864e-01,-2.343522589410000023e+00,1.820219248130000023e-01,-9.515534718060001396e+00,2.538331318649999921e-05,2.998441457749999924e-03,1.122586708520000032e-02,1.000000000000000000e+00
1.700448539999999953e-01,-2.306140076470000189e+00,1.808429441620000022e-01,-9.518789920459999720e+00,1.375544257459999919e-02,-8.333146106449998815e-04,6.554367020729998626e-03,1.000000000000000000e+00
1.750125740000000041e-01,-2.354278084440000196e+00,1.619971181880000000e-01,-9.510563943910000262e+00,1.369775459170000098e-02,-3.546794410789999921e-03,1.014085486529999955e-02,1.000000000000000000e+00
1.801739159999999895e-01,-2.260833054149999910e+00,1.700723611589999851e-01,-9.514758472989999660e+00,-2.886549802500000018e-03,5.976393818859998888e-03,-3.354267682880000129e-03,1.000000000000000000e+00
1.851970900000000086e-01,-2.332432455590000231e+00,2.097681925360000144e-01,-9.477105326420000253e+00,-1.239738659929999964e-03,-3.465776797380000409e-03,2.954575931650000285e-03,1.000000000000000000e+00
1.901853940000000076e-01,-2.305532465969999834e+00,2.011311144310000132e-01,-9.506157233379999738e+00,-3.349182952659999850e-04,-1.459443941709999935e-02,3.977328538889999925e-03,1.000000000000000000e+00
1.950155120000000020e-01,-2.291801169999999832e+00,2.382258599309999836e-01,-9.481321482809999424e+00,-8.681829087439999967e-03,6.411016918719999666e-03,-2.881434047590000075e-03,1.000000000000000000e+00
2.001337669999999902e-01,-2.324096442790000161e+00,2.069046563309999975e-01,-9.533149285209999491e+00,1.045931503179999868e-02,2.288738079370000039e-02,-9.209071286020000316e-04,1.000000000000000000e+00
2.051596930000000041e-01,-2.344498887090000316e+00,1.712365460999999978e-01,-9.539473227529999377e+00,-3.899117582480000335e-04,-2.296033315360000108e-03,1.374182989820000103e-03,1.000000000000000000e+00
2.100299079999999874e-01,-2.353805644619999971e+00,1.914503907580000219e-01,-9.539663197139999440e+00,7.707949262109999901e-03,-5.943807307629999336e-03,9.190988726909999837e-03,1.000000000000000000e+00
2.149994779999999939e-01,-2.316728544380000088e+00,2.106869878810000152e-01,-9.505916410370000236e+00,3.570922184740000019e-03,-7.252885494379999326e-03,1.051076874139999888e-02,1.000000000000000000e+00
2.200478969999999923e-01,-2.267651794259999853e+00,2.104703129230000025e-01,-9.526507947500000739e+00,-7.926845923069998981e-03,-4.806835204359999380e-04,-7.732908241449999893e-03,1.000000000000000000e+00
2.250271520000000081e-01,-2.336834489950000204e+00,2.153869822659999766e-01,-9.517532029360001644e+00,3.395027248189999916e-03,8.229517843569999656e-04,-2.240812871610000333e-03,1.000000000000000000e+00
2.301663850000000011e-01,-2.317993449739999878e+00,2.070685781879999798e-01,-9.510730532649999347e+00,1.546737505119999932e-03,5.621053278450000024e-03,9.070392698049999569e-04,1.000000000000000000e+00
2.351806939999999957e-01,-2.306234038369999961e+00,2.047725031400000062e-01,-9.510083466919999395e+00,6.515148561449999459e-03,-2.070694230499999997e-02,-1.293859910220000048e-02,1.000000000000000000e+00
2.400281180000000125e-01,-2.318856057920000158e+00,2.070525221029999863e-01,-9.513080895169998996e+00,6.161101162430000430e-03,-8.430294692520001049e-03,-9.964742697780000838e-03,1.000000000000000000e+00
2.451684100000000033e-01,-2.365795796010000007e+00,1.984028585110000076e-01,-9.550027939289998713e+00,1.329431030899999935e-02,-3.760990221050000324e-04,1.743044517929999773e-02,1.000000000000000000e+00
2.501773580000000163e-01,-2.306152789829999605e+00,2.225240310709999947e-01,-9.520921087270000527e+00,1.450455980380000289e-03,2.812820486719999971e-03,3.063098760319999878e-03,1.000000000000000000e+00
2.550177980000000177e-01,-2.335061196659999894e+00,2.236926912579999815e-01,-9.518858309530001449e+00,2.629202790560000247e-04,2.328656613829999979e-03,8.938328363000000443e-03,1.000000000000000000e+00
2.599648869999999778e-01,-2.306376661709999887e+00,1.937854461090000036e-01,-9.533327564380000396e+00,2.436082111670000074e-03,2.246548887340000210e-03,6.632214412090001003e-03,1.000000000000000000e+00
2.651847179999999859e-01,-2.311307688370000335e+00,1.890785835929999770e-01,-9.523992749799999658e+00,6.255219690499999423e-03,-1.636405661700000153e-02,1.108572166410000046e-02,1.000000000000000000e+00
2.700267390000000156e-01,-2.270020569209999728e+00,2.103614091890000093e-01,-9.539594223559999975e+00,-9.831484407190000177e-03,1.940830610690000247e-03,-6.579793524000000088e-03,1.000000000000000000e+00
2.749916319999999859e-01,-2.336147238330000153e+00,2.357589766270000164e-01,-9.496460599760000676e+00,6.810945458710000212e-03,-6.833593361079999670e-04,3.029664279889999687e-03,1.000000000000000000e+00
2.801522220000000063e-01,-2.278822153700000186e+00,2.389211121860000120e-01,-9.533004908300000579e+00,-1.038170326500000018e-02,-2.017543278629999742e-02,-3.801119048149999985e-03,1.000000000000000000e+00
2.850233839999999907e-01,-2.333816457299999758e+00,2.115748218329999986e-01,-9.547219311610000148e+00,-4.936489276590000537e-03,2.310595475139999751e-03,-1.751353149299999861e-03,1.000000000000000000e+00
2.901581329999999848e-01,-2.327344484809999781e+00,1.379252555280000014e-01,-9.535953821230000571e+00,5.464490037409999376e-03,4.574164748189999026e-03,-2.981022698800000342e-03,1.000000000000000000e+00
2.950248169999999948e-01,-2.339840393759999859e+00,1.891944285249999858e-01,-9.526454755999999691e+00,-1.103280112150000110e-03,5.365502089260000725e-03,-3.504790598530000550e-03,1.000000000000000000e+00
3.000214700000000123e-01,-2.312546436390000348e+00,2.021760021070000135e-01,-9.522865207080000616e+00,3.169562434780000531e-03,-1.023242063820000054e-02,1.078442437569999968e-03,1.000000000000000000e+00
3.051741470000000067e-01,-2.299982869019999931e+00,2.414430684120000281e-01,-9.526361817019999734e+00,9.368388913569999227e-03,-4.812063183640000012e-03,-7.136427797380000444e-03,1.000000000000000000e+00
3.100459030000000116e-01,-2.291127946909999658e+00,3.081584424050000104e-01,-9.504837382959999914e+00,-8.533652871849999391e-03,1.127994153650000060e-03,-8.305813185870000379e-03,1.000000000000000000e+00
3.151697459999999729e-01,-2.354471561180000005e+00,2.566451493219999991e-01,-9.557423310239999026e+00,-4.181124269960000139e-03,1.619337126610000197e-04,1.012268662449999912e-02,1.000000000000000000e+00
3.201956750000000129e-01,-2.290662667489999915e+00,1.959646167790000115e-01,-9.559377366919999730e+00,1.555262599140000077e-02,-1.116563752290000017e-02,-3.875477239489999448e-03,1.000000000000000000e+00
3.250519570000000025e-01,-2.315659161579999736e+00,1.733801522659999816e-01,-9.555765021639999190e+00,-4.683377221229999450e-03,-9.313218295569998875e-03,-2.868898678570000471e-03,1.000000000000000000e+00
3.301656399999999825e-01,-2.320804269379999951e+00,1.735337536589999785e-01,-9.534539278260000472e+00,5.658712238070000115e-03,-8.952214382589999617e-03,5.062540993089999913e-03,1.000000000000000000e+00
3.351700479999999982e-01,-2.305142005350000023e+00,2.235218647359999977e-01,-9.534643323160000961e+00,2.990539185699999606e-03,-2.259090356530000024e-02,5.406220443550000757e-04,1.000000000000000000e+00
3.400371229999999967e-01,-2.343985384609999834e+00,1.998180590710000037e-01,-9.533833175819999894e+00,6.978851277380000370e-03,-1.743869856000000024e-02,4.647724330430000848e-03,1.000000000000000000e+00
3.451900359999999779e-01,-2.289035796939999923e+00,1.286124153200000064e-01,-9.503145192090000748e+00,7.502018008379999874e-03,-2.728544175619999727e-03,-4.553848877550000646e-03,1.000000000000000000e+00
3.500440309999999777e-01,-2.312673277640000080e+00,1.523277287599999752e-01,-9.506097027630000085e+00,-2.647972665729999946e-03,1.701862365010000169e-02,5.199799314140000212e-03,1.000000000000000000e+00
3.551684889999999761e-01,-2.297744880829999836e+00,1.547671486680000097e-01,-9.508995671679999262e+00,4.973014816639999974e-03,6.658477708700000046e-03,-4.844116978350000713e-03,1.000000000000000000e+00
3.600320390000000259e-01,-2.320452241069999921e+00,2.213931273449999959e-01,-9.503752510329999126e+00,4.665880464020000229e-03,-2.752136439090000549e-03,9.047295898200000824e-04,1.000000000000000000e+00
3.650179649999999998e-01,-2.339442334359999709e+00,2.224323159340000078e-01,-9.530532965229999931e+00,4.194830078630000167e-03,1.842249929900000027e-02,4.718754440550000477e-03,1.000000000000000000e+00
3.700090129999999977e-01,-2.299200340340000093e+00,2.274383440599999917e-01,-9.500819379489998440e+00,-3.868189814969999756e-04,1.237597037110000145e-02,-1.068323943759999853e-02,1.000000000000000000e+00
3.750305669999999814e-01,-2.362520427599999806e+00,1.907780809870000260e-01,-9.478891625319999292e+00,9.336939081550000089e-03,-3.863187739629999739e-03,2.876658225430000007e-03,1.000000000000000000e+00
3.801384600000000114e-01,-2.283914070009999797e+00,1.428658994010000016e-01,-9.498937219000000098e+00,-6.551736034449999989e-03,1.428293995559999858e-03,-8.826090488580000219e-04,1.000000000000000000e+00
3.850169769999999825e-01,-2.317161236700000071e+00,2.034902995760000111e-01,-9.516352464180000581e+00,-8.878452703360000670e-03,-1.284793298689999863e-02,-3.686461597679999494e-03,1.000000000000000000e+00
3.901718519999999857e-01,-2.313310406490000304e+00,2.322047730100000040e-01,-9.496329082329999949e+00,1.010766904799999949e-02,-1.634435262529999964e-03,-7.579760625960000470e-03,1.000000000000000000e+00
3.950136570000000180e-01,-2.372348432529999940e+00,1.997205900459999850e-01,-9.540146012230000139e+00,5.676649045199999750e-03,-8.363127708439999086e-03,1.708038337530000048e-02,1.000000000000000000e+00
4.000299629999999884e-01,-2.253492482129999974e+00,2.046337339900000107e-01,-9.512253212170000083e+00,8.944819681350000412e-03,1.936446409670000051e-03,-6.580051500350000970e-03,1.000000000000000000e+00
4.050764070000000272e-01,-2.331938972990000192e+00,2.496880784589999847e-01,-9.533722116659999912e+00,1.011685002600000091e-02,3.141523804520000331e-03,3.996552899479999602e-03,1.000000000000000000e+00
4.101039149999999855e-01,-2.299073645220000017e+00,1.664746837270000002e-01,-9.535015079080000788e+00,9.315910865549998808e-04,-1.018506009130000110e-03,-1.080111786720000001e-02,1.000000000000000000e+00
4.151483999999999730e-01,-2.407340397059999582e+00,1.973558336760000143e-01,-9.566765723599999660e+00,8.435098454359999526e-03,8.165710605680001448e-04,-3.131204517559999911e-03,1.000000000000000000e+00
4.201788920000000260e-01,-2.264431370909999686e+00,7.465735967389998395e-02,-9.541706101149999952e+00,-2.514526247980000250e-03,-3.422881476579999870e-03,-1.134480535980000003e-02,1.000000000000000000e+00
4.250568149999999767e-01,-2.339476675020000229e+00,1.748778252120000154e-01,-9.521113979500000823e+00,3.160025458780000435e-03,-8.777101524169999766e-03,6.464170292020000180e-04,1.000000000000000000e+00
4.299540649999999964e-01,-2.255047018099999967e+00,2.386814947439999945e-01,-9.549313653540000502e+00,1.286675687879999808e-02,-5.662511568520000454e-03,-4.302877001459999746e-03,1.000000000000000000e+00
4.351648639999999846e-01,-2.323029982609999600e+00,2.651928503770000223e-01,-9.544652091469998823e+00,1.203040825200000184e-03,2.387541346249999995e-03,-1.767728105190000121e-02,1.000000000000000000e+00
4.401729819999999904e-01,-2.355298805790000394e+00,2.663706619840000012e-01,-9.542519755619998989e+00,7.667855825280000051e-03,1.316238753500000025e-02,-1.031524967400000020e-02,1.000000000000000000e+00
4.450273590000000112e-01,-2.358007334090000295e+00,2.271047829900000314e-01,-9.542357843060001343e+00,1.552985887970000090e-02,-4.120662342759999833e-03,5.427727010100000075e-04,1.000000000000000000e+00
4.500117459999999903e-01,-2.340613423959999828e+00,2.045317897199999957e-01,-9.545343580870000011e+00,2.433376200499999878e-02,2.768230158839999743e-03,-4.977284464989999851e-03,1.000000000000000000e+00
4.550164620000000104e-01,-2.286985586409999716e+00,1.795181618310000005e-01,-9.528725623550000634e+00,1.923026703300000084e-02,9.110600687559998467e-03,-1.239895634350000019e-02,1.000000000000000000e+00
4.600045030000000090e-01,-2.310263147750000190e+00,1.615568636070000008e-01,-9.545113279239998860e+00,1.476977393029999842e-02,-7.882138714189999146e-03,-1.117578521369999925e-02,1.000000000000000000e+00
4.650108039999999998e-01,-2.314397324949999835e+00,1.616611824980000167e-01,-9.532062659010000161e+00,1.311192847790000095e-02,-2.553572412580000159e-04,-6.605193018909999957e-03,1.000000000000000000e+00
4.700994130000000215e-01,-2.321721238099999862e+00,1.787301167260000045e-01,-9.492235675539998141e+00,1.633716188370000141e-02,-5.682792514560000390e-03,-8.474780246619999929e-03,1.000000000000000000e+00
4.750317869999999831e-01,-2.318789568559999736e+00,9.398116472319999193e-02,-9.525124968700000139e+00,1.404019352050000190e-02,-1.784314401450000018e-02,-1.014244463290000023e-02,1.000000000000000000e+00
4.800193079999999779e-01,-2.315578789819999983e+00,1.395065607699999821e-01,-9.477264316379999443e+00,1.893806271259999841e-02,6.550305522979999774e-03,-8.029944729059999668e-04,1.000000000000000000e+00
4.850388939999999982e-01,-2.320619852730000154e+00,9.856535070830001188e-02,-9.547649519720000200e+00,-5.026625934989999329e-03,-9.537713602190000736e-03,-4.581755958499999712e-03,1.000000000000000000e+00
4.900078860000000036e-01,-2.301338813670000150e+00,1.521374303520000026e-01,-9.527602172469999076e+00,-5.636824294920000228e-03,1.678342930970000077e-03,-3.104144707319999696e-05,1.000000000000000000e+00
4.950128999999999779e-01,-2.308959371679999872e+00,1.177308553570000083e-01,-9.525586156479999289e+00,2.201981097459999870e-02,-1.129466574639999971e-02,-1.636422006409999925e-03,1.000000000000000000e+00
5.000184239999999614e-01,-2.345144783779999909e+00,9.310597105750000047e-02,-9.498211242820000066e+00,1.204928848890000036e-02,-6.901701912279999476e-03,-1.427219714969999841e-03,1.000000000000000000e+00
5.051529329999999707e-01,-2.295419360499999950e+00,1.406809839770000181e-01,-9.478501164700000814e+00,-3.599670948460000335e-03,-3.889734856780000406e-03,-1.749724033289999908e-03,1.000000000000000000e+00
5.100237640000000461e-01,-2.349360501780000110e+00,1.059592329519999931e-01,-9.522342059989998830e+00,1.113962288949999976e-02,-7.219635881479999524e-03,3.731086151669999688e-03,1.000000000000000000e+00
5.151654399999999745e-01,-2.330155158309999752e+00,1.242290582699999979e-01,-9.469062889739999989e+00,-1.327995676549999921e-02,-6.033358164130000340e-03,4.197438247500000046e-03,1.000000000000000000e+00
5.201781020000000311e-01,-2.306283138209999972e+00,1.294545469660000059e-01,-9.538110707010000411e+00,-4.185603931549999879e-03,-3.438234562049999939e-03,1.012951135640000055e-02,1.000000000000000000e+00
5.251117170000000334e-01,-2.285751514570000253e+00,1.442136059500000178e-01,-9.488827328400001093e+00,-1.378959044810000069e-02,-2.853138744829999615e-02,-2.751847961919999790e-03,1.000000000000000000e+00
5.299620659999999539e-01,-2.326038662899999832e+00,1.344720554680000069e-01,-9.510538224950000341e+00,-9.529427625240000435e-03,8.115503937010000446e-03,1.028305944059999984e-02,1.000000000000000000e+00
5.349717710000000404e-01,-2.308649428949999916e+00,1.164717860730000026e-01,-9.529451015210000264e+00,-9.561597835269999455e-04,2.200295682999999988e-03,1.366753969339999999e-02,1.000000000000000000e+00
5.399705160000000115e-01,-2.320046144490000017e+00,2.036578381630000101e-01,-9.497249119790000194e+00,-7.419672794640000055e-03,-1.107528153809999964e-02,1.203519664700000019e-02,1.000000000000000000e+00
5.449707190000000478e-01,-2.299436341049999832e+00,1.926811015969999985e-01,-9.514843228660000207e+00,-6.386839319020000579e-03,-2.714386209849999995e-05,1.686090417210000039e-02,1.000000000000000000e+00
5.500120400000000354e-01,-2.305202795620000078e+00,2.117515118400000174e-01,-9.523589429699999442e+00,-6.471608299760000030e-03,-7.354818284510000574e-03,8.299059234560000886e-03,1.000000000000000000e+00
5.551759370000000082e-01,-2.264077296770000025e+00,2.164388294060000106e-01,-9.520815288810000609e+00,-4.347698763010000335e-03,2.400028053670000099e-03,-7.768225856129999489e-03,1.000000000000000000e+00
5.601661329999999550e-01,-2.332626955249999856e+00,2.271862872610000139e-01,-9.522794479930000833e+00,-3.473137505349999966e-03,6.348443217579999645e-03,2.660384634510000543e-03,1.000000000000000000e+00
5.651929030000000242e-01,-2.350102844579999850e+00,2.390371215150000062e-01,-9.528779399560001195e+00,-5.540688522159999477e-03,-3.051407635209999955e-03,2.087057381870000006e-02,1.000000000000000000e+00
5.700305129999999609e-01,-2.273351174940000163e+00,2.105186273110000172e-01,-9.521683303819999722e+00,-1.058812998239999810e-02,-4.459179006520000432e-03,4.601607099180000764e-03,1.000000000000000000e+00
5.749823800000000151e-01,-2.349211302570000104e+00,2.237880413910000033e-01,-9.512561255210000510e+00,-8.309758268300000694e-03,-4.153341520579999745e-03,1.188225019719999984e-02,1.000000000000000000e+00
5.799800830000000351e-01,-2.294490262949999693e+00,2.474184895589999766e-01,-9.522844748809999871e+00,-6.773046916350000234e-04,8.536592125890000646e-03,1.203122781590000015e-03,1.000000000000000000e+00
5.849775440000000160e-01,-2.364443504620000081e+00,2.336007208810000069e-01,-9.488081478470000718e+00,-1.088768709449999990e-02,1.176970079540000077e-03,4.163572564719999862e-03,1.000000000000000000e+00
5.899797180000000418e-01,-2.290564906200000195e+00,1.805781374790000060e-01,-9.546433129669999573e+00,-1.455248519779999902e-02,3.529787063600000208e-03,-4.830907098949999839e-03,1.000000000000000000e+00
5.950224710000000528e-01,-2.311301112499999810e+00,1.903735370400000126e-01,-9.516512623180000574e+00,-7.727049291130000906e-03,7.122758775949999434e-03,-6.179767660799999861e-03,1.000000000000000000e+00
5.999734220000000340e-01,-2.289335948930000253e+00,2.285348705920000056e-01,-9.487048043769998884e+00,-1.283590123060000115e-02,4.949351772670000302e-03,3.589345840739999616e-03,1.000000000000000000e+00
6.051354260000000318e-01,-2.322643029119999980e+00,2.381950994660000098e-01,-9.491585102669999330e+00,-1.698466017839999828e-02,1.101042795930000026e-02,4.181527532639999802e-03,1.000000000000000000e+00
6.100210740000000520e-01,-2.306044945540000057e+00,2.570992497649999819e-01,-9.502710892319999658e+00,-1.142148580400000057e-02,4.896637983619999378e-03,7.210995536300000277e-04,1.000000000000000000e+00
6.151655769999999634e-01,-2.319410623070000010e+00,2.677343880860000302e-01,-9.507772851889999544e+00,-3.488736227149999859e-03,3.865724429490000058e-03,7.816669531170000393e-03,1.000000000000000000e+00
6.201582789999999790e-01,-2.343604130210000136e+00,2.913660966289999821e-01,-9.539218375989999998e+00,-1.919494196770000008e-02,1.050428766760000063e-02,1.092627178880000056e-02,1.000000000000000000e+00
6.250370250000000238e-01,-2.333931754240000433e+00,2.521231053199999850e-01,-9.538882860419999332e+00,-2.748432569209999926e-02,-6.751132197680000807e-03,8.172441273930000985e-03,1.000000000000000000e+00
6.299861749999999816e-01,-2.334971180290000170e+00,2.307852616010000191e-01,-9.528157468270000763e+00,-2.046544291079999828e-02,-8.557477965949999640e-03,8.838528767230000027e-03,1.000000000000000000e+00
6.351582700000000248e-01,-2.328438563650000237e+00,2.310007675160000162e-01,-9.499774838869999627e+00,-1.519140880549999829e-02,2.571276854720000015e-03,1.048529706899999948e-02,1.000000000000000000e+00
6.400268740000000234e-01,-2.279691776140000403e+00,2.522136148820000034e-01,-9.517021741749999819e+00,-9.069669060410000608e-03,-1.226351479999999907e-03,-5.861878860739999295e-03,1.000000000000000000e+00
6.450205310000000081e-01,-2.319363861309999830e+00,2.232480527629999711e-01,-9.560126723979999852e+00,-2.935549430550000310e-02,6.921731866900000113e-03,4.428692162040000040e-03,1.000000000000000000e+00
6.501525700000000407e-01,-2.287906939039999976e+00,1.307561950159999986e-01,-9.521664014600000669e+00,-3.096891567109999813e-02,8.055938407779999338e-03,5.294370464979999448e-03,1.000000000000000000e+00
6.551523150000000406e-01,-2.085182472740000126e+00,7.195478161769999770e-02,-9.369061715810000024e+00,-1.333766058089999942e-02,1.300982385870000195e-02,-4.741585813460000298e-03,1.000000000000000000e+00
6.601574700000000240e-01,-2.607954008690000158e+00,3.311911986750000203e-01,-9.706873282469999253e+00,-2.180862613020000118e-02,1.492821611459999899e-03,1.428200211379999918e-02,1.000000000000000000e+00
6.650149370000000282e-01,-2.137983357940000495e+00,2.082646926379999874e-01,-9.448284890130000946e+00,-9.448268450799999010e-03,1.246872823689999972e-02,1.674995524810000014e-03,1.000000000000000000e+00
6.700753299999999690e-01,-2.365827944719999909e+00,2.888120282319999732e-01,-9.559477320160000957e+00,-1.608774811030000071e-02,5.405413918199999945e-03,1.606686599549999803e-02,1.000000000000000000e+00
6.750235009999999702e-01,-2.319923833290000292e+00,1.678155221429999955e-01,-9.527184823839998984e+00,-1.025124453009999999e-02,4.194008652119999431e-03,2.074753865599999875e-06,1.000000000000000000e+00
6.800018650000000386e-01,-2.269784276240000231e+00,1.815002572930000113e-01,-9.554047111810001880e+00,-1.806892827150000103e-02,-1.394097809680000088e-03,9.082033298909998956e-03,1.000000000000000000e+00
6.851577220000000246e-01,-2.277799532650000014e+00,3.090063279390000139e-01,-9.547558918830000962e+00,-5.412491736930000272e-05,-1.401818939480000076e-03,-2.925346838310000086e-03,1.000000000000000000e+00
6.900164389999999814e-01,-2.372250671240000219e+00,3.103746206179999745e-01,-9.550664483630001200e+00,-2.547763753679999684e-03,4.859074950220000459e-03,3.949271515010000649e-03,1.000000000000000000e+00
6.950508340000000063e-01,-2.285849860379999932e+00,2.889311976319999808e-01,-9.531827681210000236e+00,-4.737858194859999837e-03,-3.583693411200000040e-03,-5.316550377760000112e-03,1.000000000000000000e+00
7.001365489999999969e-01,-2.316184939020000222e+00,2.911642721800000166e-01,-9.545210309879999855e+00,-6.408354267479999741e-03,-9.262862615290001420e-03,5.154551006850000006e-03,1.000000000000000000e+00
7.051676249999999646e-01,-2.318562481799999908e+00,2.497283739370000089e-01,-9.532300559419999431e+00,2.309349179270000357e-02,-5.888432729989998872e-03,4.923605360090000521e-03,1.000000000000000000e+00
7.100051040000000535e-01,-2.292890572670000182e+00,2.888566345589999584e-01,-9.529052371280000600e+00,-4.253336228429999664e-03,-6.109722889959999514e-03,1.328316796569999937e-02,1.000000000000000000e+00
7.151583929999999478e-01,-2.323680409340000086e+00,2.899337074720000351e-01,-9.567802080910000839e+00,9.859827347099999612e-03,4.126271698619999456e-03,5.572705529630000293e-03,1.000000000000000000e+00
7.201520129999999797e-01,-2.283674708299999967e+00,2.566028628159999769e-01,-9.556630114039998958e+00,7.920331321659999924e-03,-1.232913136479999935e-02,-5.103224888439999475e-03,1.000000000000000000e+00
7.250283379999999944e-01,-2.325666176329999946e+00,2.127333259519999797e-01,-9.544120176549999002e+00,8.096159435810001276e-03,-4.520229995249999883e-04,1.017054077240000078e-03,1.000000000000000000e+00
7.299872979999999512e-01,-2.300357547549999992e+00,2.199758992249999934e-01,-9.533335163169999404e+00,2.855755947530000047e-02,-2.219513431190000413e-02,-7.522879168390000405e-03,1.000000000000000000e+00
7.351409749999999743e-01,-2.377153056330000069e+00,2.240838277340000129e-01,-9.485796582400000787e+00,1.743435859679999880e-02,-5.263062193989999187e-03,4.892702214420000494e-03,1.000000000000000000e+00
7.400947359999999753e-01,-2.309699084130000024e+00,1.785135878979999813e-01,-9.506139697729999227e+00,2.546689286830000273e-02,-1.445400528610000200e-02,1.057448610660000066e-02,1.000000000000000000e+00
7.451866499999999505e-01,-2.272528021989999925e+00,1.629779093859999861e-01,-9.512159104149999322e+00,1.283109560610000074e-02,-1.140191871670000016e-02,2.179513685409999646e-04,1.000000000000000000e+00
7.501470719999999703e-01,-2.318514258750000057e+00,1.689096740549999864e-01,-9.531261279500000683e+00,1.814990304409999991e-02,6.550660356880000194e-03,-8.020122535529999874e-03,1.000000000000000000e+00
7.550082670000000107e-01,-2.320340743520000082e+00,2.046350674309999895e-01,-9.517814937949999887e+00,9.735093452040001136e-03,-2.281757304440000262e-03,-4.644717555489999948e-03,1.000000000000000000e+00
7.601778369999999674e-01,-2.367573619340000324e+00,1.656397490059999811e-01,-9.497766421659999736e+00,1.030147634450000009e-02,3.937461413439999856e-03,1.093082688749999996e-02,1.000000000000000000e+00
7.650076670000000023e-01,-2.282303712200000056e+00,1.915892512390000024e-01,-9.517435583250000164e+00,5.135814659299999842e-03,8.308779448269999757e-03,-1.007318403570000090e-02,1.000000000000000000e+00
7.700008919999999923e-01,-2.320907291359999736e+00,1.702296340799999974e-01,-9.505762096589998933e+00,9.903361089530000883e-03,4.180056042969999656e-03,-4.234171472489999498e-03,1.000000000000000000e+00
7.750638239999999568e-01,-2.339524751939999980e+00,1.686376156480000055e-01,-9.567220481630000606e+00,6.167581304910000131e-03,3.154232166709999841e-03,1.236318377779999913e-03,1.000000000000000000e+00
7.799530719999999695e-01,-2.303107430779999909e+00,1.797598433659999828e-01,-9.509518234249998869e+00,1.402557361870000220e-02,-3.194571938369999975e-03,-9.750155732039999460e-05,1.000000000000000000e+00
7.851445160000000145e-01,-2.335262418320000144e+00,1.530535040169999916e-01,-9.574378536699999387e+00,1.671821065249999919e-02,1.699715852740000220e-03,1.160303130750000092e-02,1.000000000000000000e+00
7.900215569999999854e-01,-2.239707410149999856e+00,2.138326289629999821e-01,-9.556073064680001394e+00,7.425291929390001253e-03,1.106048375369999941e-02,-1.939813047650000219e-02,1.000000000000000000e+00
7.950321679999999835e-01,-2.374144229900000180e+00,2.937119656359999942e-01,-9.544059970800001125e+00,1.346044894310000073e-02,3.485324792560000415e-03,6.616124883289999439e-03,1.000000000000000000e+00
8.001161329999999516e-01,-2.316396243679999856e+00,2.685574131729999703e-01,-9.563057516739998931e+00,9.538128040729999119e-03,4.587076604370000053e-03,4.783222451810000171e-03,1.000000000000000000e+00
8.049881359999999653e-01,-2.290035037110000005e+00,2.271231406310000034e-01,-9.544566751279999650e+00,1.598690077659999792e-02,-1.029446162279999862e-02,-1.568585634229999887e-02,1.000000000000000000e+00
8.100213309999999556e-01,-2.307161674610000102e+00,1.542580301019999822e-01,-9.555331306399999391e+00,3.063720092180000076e-02,-6.463778205220000600e-03,3.073806175960000150e-03,1.000000000000000000e+00
8.151483849999999753e-01,-2.240507766740000406e+00,1.969167664050000266e-01,-9.580235446030000546e+00,3.001482598479999694e-02,-2.437410689889999912e-02,-1.976453140379999876e-02,1.000000000000000000e+00
8.199766960000000049e-01,-2.398576806499999936e+00,1.842779783780000014e-01,-9.560044306389999136e+00,2.743620239200000172e-02,1.067810691889999920e-02,-5.157946143299999313e-04,1.000000000000000000e+00
8.250014119999999895e-01,-2.272835188240000193e+00,1.961917400659999866e-01,-9.535464576409999893e+00,2.874971367420000104e-02,-7.444513030350000116e-03,-1.779507286849999967e-02,1.000000000000000000e+00
8.301703759999999876e-01,-2.364498888069999971e+00,1.585438724609999905e-01,-9.498620992660001150e+00,2.528624422850000303e-02,-1.170746888969999983e-02,-2.018856815989999824e-03,1.000000000000000000e+00
8.351585990000000015e-01,-2.294279981199999874e+00,9.262900119550000755e-02,-9.535368130300000189e+00,1.947521977130000151e-02,5.432598292830000120e-03,2.985120518129999803e-03,1.000000000000000000e+00
8.401562190000000374e-01,-2.306606963330000148e+00,1.561227827939999924e-01,-9.495582647879999172e+00,3.933218121530000083e-02,-1.347323064689999982e-03,-1.009168918240000053e-03,1.000000000000000000e+00
8.449474409999999658e-01,-2.246165646370000157e+00,1.855003415129999889e-01,-9.509657350459999492e+00,2.291857637469999973e-02,2.988812513650000117e-03,-2.045326400549999941e-03,1.000000000000000000e+00
8.500598539999999481e-01,-2.258956885019999916e+00,1.091522385739999990e-01,-9.544263968939999287e+00,1.682376861570000076e-02,1.417090184989999897e-02,-7.605486549439999418e-03,1.000000000000000000e+00
8.549882739999999925e-01,-2.273891127040000182e+00,1.399325950290000176e-01,-9.561181785989999682e+00,1.371019147339999980e-02,-1.379830576479999793e-02,-5.649141035970000300e-03,1.000000000000000000e+00
8.600203560000000413e-01,-2.299498446499999904e+00,1.131044193989999974e-01,-9.513511687799999450e+00,1.903509162370000188e-02,-1.392461732029999857e-02,-7.261497899890000628e-03,1.000000000000000000e+00
8.649879510000000327e-01,-2.360099337940000375e+00,9.647573975160000925e-02,-9.523245730830000255e+00,1.434743776920000165e-02,-1.991356257349999933e-03,6.623491644860000048e-03,1.000000000000000000e+00
8.699963880000000094e-01,-2.285886100739999982e+00,1.370238223099999875e-01,-9.499310143969999842e+00,3.241362795229999622e-02,-1.202195789660000062e-02,-2.932792762290000257e-03,1.000000000000000000e+00
8.750607959999999741e-01,-2.327930029610000062e+00,1.048972936759999947e-01,-9.509206099560000069e+00,1.919083483519999980e-02,-6.316141691059999966e-03,-1.700960332530000122e-03,1.000000000000000000e+00
8.800150589999999884e-01,-2.324196249909999956e+00,9.681161150930001069e-02,-9.483919098089998556e+00,2.341568097469999901e-02,-5.929557140920000725e-03,-5.453907884659999795e-03,1.000000000000000000e+00
8.849748349999999597e-01,-2.313496722850000076e+00,9.913522301810000215e-02,-9.484355735939999477e+00,7.119256071750000060e-03,-1.048626191910000116e-02,-7.322652265430000702e-03,1.000000000000000000e+00
8.900025339999999563e-01,-2.292486960309999766e+00,8.814695127749999637e-02,-9.499808741139998958e+00,-3.234102157880000290e-03,-1.013384200629999926e-02,1.336186891420000156e-03,1.000000000000000000e+00
8.951380330000000551e-01,-2.288915239300000071e+00,9.294325477649999223e-02,-9.501776826339998649e+00,7.157427724450000049e-03,-1.910312660040000207e-02,2.803876996040000546e-04,1.000000000000000000e+00
9.000113859999999688e-01,-2.331022296540000038e+00,1.488999006020000071e-01,-9.511789686310001102e+00,-6.958494777789998604e-04,6.567866075780000876e-04,1.007492421190000001e-03,1.000000000000000000e+00
9.051616279999999959e-01,-2.342906649470000158e+00,1.802131400919999848e-01,-9.463366723929999225e+00,-4.147571511570000841e-03,-2.216769382359999596e-02,1.239355746659999945e-02,1.000000000000000000e+00
9.100154499999999480e-01,-2.284022206559999990e+00,1.690380679419999921e-01,-9.510327212549999132e+00,-2.740311436359999832e-03,-2.556076040489999816e-03,2.746069571000000174e-03,1.000000000000000000e+00
9.150109530000000158e-01,-2.341831713709999985e+00,1.762095852719999800e-01,-9.511225038169998314e+00,-4.038061946629999989e-03,-1.886037178340000189e-02,1.653377898039999974e-02,1.000000000000000000e+00
9.201490070000000188e-01,-2.272220271220000143e+00,1.722128437860000194e-01,-9.552346153110001126e+00,7.745723705739999791e-03,-5.314596928660000018e-03,5.106167867779999765e-03,1.000000000000000000e+00
9.250022919999999482e-01,-2.286002566720000129e+00,1.699052426980000030e-01,-9.540644024880000629e+00,-5.546042229979999613e-03,-2.737252600490000173e-02,4.976973868909999495e-03,1.000000000000000000e+00
9.299936819999999882e-01,-2.293031734709999991e+00,1.236868228849999918e-01,-9.534574934100000121e+00,3.944927826519999993e-03,-2.136436291039999977e-02,-8.413679897790000625e-03,1.000000000000000000e+00
9.349649140000000358e-01,-2.387709667790000267e+00,1.016491786000000008e-01,-9.485573879560000421e+00,-1.484327856450000024e-02,2.871276810770000045e-03,6.833363324399999335e-03,1.000000000000000000e+00
9.401684369999999680e-01,-2.321456595809999524e+00,1.060499251770000012e-01,-9.518408812189999679e+00,-2.433510730040000080e-03,-2.846862003209999631e-02,-1.335469190959999919e-03,1.000000000000000000e+00
9.451135290000000078e-01,-2.344365031579999759e+00,1.454006603099999850e-01,-9.488953000610001354e+00,-4.106324631719999833e-03,-3.016764763739999532e-03,2.450300566849999973e-02,1.000000000000000000e+00
9.501200450000000242e-01,-2.262495872800000196e+00,1.902096882479999973e-01,-9.532345567610001069e+00,3.119540633630000104e-03,-1.094390731300000016e-02,1.073473505679999919e-02,1.000000000000000000e+00
9.551440770000000358e-01,-2.286773404959999922e+00,2.788901344810000293e-01,-9.464403081240000404e+00,7.238976540980000861e-04,-2.073815651240000155e-02,-8.101668208839998483e-04,1.000000000000000000e+00
9.601646600000000031e-01,-2.314480180929999964e+00,2.831064187350000316e-01,-9.530957328119999517e+00,-1.095640473069999996e-02,-1.423116773370000122e-02,-3.168420167639999889e-03,1.000000000000000000e+00
9.651596110000000284e-01,-2.356253622290000127e+00,2.915852558049999987e-01,-9.518709256439999322e+00,3.830469213429999777e-03,-6.716093048450000325e-03,9.147872216999999168e-03,1.000000000000000000e+00
9.700012110000000298e-01,-2.259197415770000106e+00,2.832427584659999997e-01,-9.499833291059999851e+00,2.487403806300000301e-03,-4.144326783719999747e-03,-2.441622084009999975e-03,1.000000000000000000e+00
9.749649169999999865e-01,-2.319278959509999627e+00,2.496964992279999962e-01,-9.543787583600000346e+00,-2.241713739930000296e-02,-1.326401368709999870e-03,-3.257642965760000446e-03,1.000000000000000000e+00
9.799652389999999880e-01,-2.301876281549999792e+00,2.166522164280000051e-01,-9.505920502020000384e+00,3.927345853300000592e-03,-2.341018244619999869e-02,-3.402584232389999769e-03,1.000000000000000000e+00
9.849427710000000502e-01,-2.382018324280000154e+00,1.846976650950000187e-01,-9.512280100179999920e+00,-2.516132220629999777e-02,-1.963650248939999982e-02,6.541750393810000924e-03,1.000000000000000000e+00
9.899553410000000442e-01,-2.334336389520000221e+00,1.016216330059999950e-01,-9.481325574470000461e+00,-1.257349364459999994e-02,-2.366965822879999945e-02,3.735805628820000005e-03,1.000000000000000000e+00
9.951120310000000080e-01,-2.360545474270000277e+00,1.518529143219999877e-01,-9.457294710539999372e+00,-7.765790913250000642e-03,-1.986241154370000164e-02,4.978135228159999426e-03,1.000000000000000000e+00
1.000001662999999930e+00,-2.339474775320000255e+00,1.349604783049999923e-01,-9.471265368220000980e+00,-2.470876276489999968e-02,-2.042168192570000332e-02,1.240228023379999836e-02,1.000000000000000000e+00
1.005155813000000009e+00,-2.370541967629999913e+00,1.780936454529999935e-01,-9.454691834560000174e+00,-1.980388350780000126e-02,-1.582397893069999867e-02,1.164125651119999987e-02,1.000000000000000000e+00
1.010152267000000048e+00,-2.322063329529999720e+00,2.299319692400000337e-01,-9.491149633870000102e+00,-1.828272081909999847e-02,1.196721568699999971e-04,1.215764880179999799e-02,1.000000000000000000e+00
1.015006797999999932e+00,-2.326275102009999873e+00,2.123649492969999775e-01,-9.455508411639998556e+00,-3.523515537380000201e-02,-1.137725356970000108e-02,1.961094699799999924e-02,1.000000000000000000e+00
1.020148403999999953e+00,-2.284635077759999966e+00,2.099118022579999909e-01,-9.474999878580000257e+00,-3.294509276750000326e-02,9.133517742159999106e-03,-7.640297524629999920e-03,1.000000000000000000e+00
1.025033829999999924e+00,-2.030756762799999837e+00,9.837187396280000495e-02,-9.320644014119999099e+00,-3.574305027719999750e-02,1.391803286969999984e-02,-1.252274494620000088e-02,1.000000000000000000e+00
1.029979650000000024e+00,-2.667313667890000239e+00,2.944699078629999800e-01,-9.576167173680000033e+00,-4.994012415409999905e-02,-5.490600131450000185e-03,1.558449398730000005e-02,1.000000000000000000e+00
1.034956553000000001e+00,-2.245663395940000306e+00,1.421249448409999949e-01,-9.438786993939999093e+00,-2.949842438099999770e-02,-1.516567450020000173e-02,1.127419527620000111e-02,1.000000000000000000e+00
1.040008279999999896e+00,-2.163356576390000452e+00,1.521649668129999855e-01,-9.482919565660001382e+00,-5.126519128680000204e-02,-1.551014557479999875e-02,5.282909609380000149e-03,1.000000000000000000e+00
1.045153564000000035e+00,-2.395022767279999965e+00,6.376289456339999384e-02,-9.477287112730000018e+00,-3.417244181040000189e-02,-1.649298518900000135e-02,9.321182034909999276e-03,1.000000000000000000e+00
1.050140725999999969e+00,-2.330928626900000022e+00,-1.266111584999999873e-01,-9.476454753560000555e+00,-4.377812519669999070e-02,-2.481641247869999928e-02,-9.900736622510000404e-03,1.000000000000000000e+00
1.055118326000000106e+00,-2.296802047029999905e+00,2.661976846040000136e-02,-9.464603572250000596e+00,-4.458738490940000049e-02,-5.947652272880000167e-03,-1.938311965200000073e-03,1.000000000000000000e+00
1.060157588000000040e+00,-2.289067653380000067e+00,2.614554722129999731e-01,-9.532641920210000563e+00,-5.859769508240000174e-02,-2.684548497200000064e-03,1.489862892779999885e-02,1.000000000000000000e+00
1.065150540000000090e+00,-2.274744090600000046e+00,4.229407866870000254e-01,-9.581567571419999041e+00,-5.873928964139999570e-02,-1.267753168939999946e-02,4.342866130170000560e-03,1.000000000000000000e+00
1.070152372999999990e+00,-2.296211972180000060e+00,4.133711769730000207e-01,-9.590827567189998959e+00,-6.495113670830000852e-02,-2.388271503149999933e-02,9.860419668260001196e-04,1.000000000000000000e+00
1.075123687999999911e+00,-2.398816314340000311e+00,4.719484536259999641e-01,-9.591218027820000103e+00,-2.544400654730000211e-02,-3.032737784090000152e-02,7.720221765339999910e-03,1.000000000000000000e+00
1.079995067000000031e+00,-2.431109395180000021e+00,4.880929116859999972e-01,-9.532651272560000777e+00,-4.290745779869999804e-02,-2.422613650559999818e-02,6.122555583720000298e-03,1.000000000000000000e+00
1.084986266999999893e+00,-2.411286650470000126e+00,4.971913602249999897e-01,-9.574891746910001444e+00,-1.307660993190000107e-02,-2.560796774920000296e-02,1.750748371709999907e-03,1.000000000000000000e+00
1.090152495000000110e+00,-2.385108983769999913e+00,4.758729335930000359e-01,-9.553989244139998505e+00,-7.544619962570000074e-03,-2.446876280009999821e-02,-3.304034471510000279e-03,1.000000000000000000e+00
1.095012756000000032e+00,-2.408818360659999769e+00,4.780005567389999932e-01,-9.590461071970000972e+00,-1.071623433379999789e-02,-1.155729964379999947e-02,-5.457242950800000533e-03,1.000000000000000000e+00
1.100008974999999944e+00,-2.394978489750000161e+00,4.149664833399999697e-01,-9.581062544499999944e+00,-7.852923125029999743e-03,-1.220124308020000166e-02,-4.191593732679999539e-03,1.000000000000000000e+00
1.105049482999999944e+00,-2.360624238590000257e+00,3.901912673170000456e-01,-9.549258708489999137e+00,1.077913679180000049e-02,-9.107575751839998160e-04,-1.023025903850000029e-02,1.000000000000000000e+00
1.109941403999999965e+00,-2.375794481329999819e+00,3.154199578410000204e-01,-9.538583000689998315e+00,1.378801278769999951e-02,-3.474619239569999574e-02,-1.889156736429999789e-02,1.000000000000000000e+00
1.114958088000000069e+00,-2.398191314309999989e+00,2.263323738459999956e-01,-9.516532496930000917e+00,4.675224423409999296e-03,-1.624017581339999919e-02,-1.500831264999999935e-02,1.000000000000000000e+00
1.120170580999999999e+00,-2.419637422450000130e+00,1.882477405249999847e-01,-9.524240587090000432e+00,1.338004041459999946e-02,-2.250356972219999876e-02,-6.615888327359999675e-03,1.000000000000000000e+00
1.125091609000000048e+00,-2.403014642820000102e+00,2.347129381729999853e-01,-9.517634320689998262e+00,2.630528993900000181e-02,3.688537050039999900e-03,-9.356574155389998926e-03,1.000000000000000000e+00
1.129989794999999964e+00,-2.410880992279999635e+00,2.357027529280000255e-01,-9.534760812060000035e+00,1.429037936030000053e-02,-1.235098391770000047e-02,-7.835850119589999252e-04,1.000000000000000000e+00
1.134979218000000012e+00,-2.321234477490000003e+00,2.192058099009999983e-01,-9.504491930519998633e+00,1.517475117000000083e-03,1.039691735059999986e-03,-2.275720611209999800e-02,1.000000000000000000e+00
1.140180345999999956e+00,-2.445357846899999910e+00,1.809492540800000104e-01,-9.538023613239998255e+00,3.263192251320000403e-02,-7.432922720910000109e-04,4.769862629470000143e-03,1.000000000000000000e+00
1.145160979999999995e+00,-2.326561079340000227e+00,1.809247041609999829e-01,-9.525950313610000109e+00,2.014625445009999780e-02,-2.517882734540000111e-02,-9.954589419069998987e-03,1.000000000000000000e+00
1.150180938000000097e+00,-2.349026301390000349e+00,1.476994113719999890e-01,-9.509518234249998869e+00,2.508880011740000082e-02,-4.255145788189999487e-03,-4.325203131879999663e-03,1.000000000000000000e+00
1.155162092000000085e+00,-2.315408547820000162e+00,1.722278586930000022e-01,-9.559932078189998350e+00,3.520250786099999706e-03,-1.008622162039999985e-02,-1.387449819590000008e-02,1.000000000000000000e+00
1.160028107999999891e+00,-2.421650661969999785e+00,1.494652337340000026e-01,-9.466159569520000261e+00,1.597006432710000243e-02,-5.918654613200000081e-03,1.868545077740000086e-04,1.000000000000000000e+00
1.165187879000000093e+00,-2.444157531200000122e+00,1.529943211760000088e-01,-9.490998242699999921e+00,5.994415842000000438e-03,-9.741871617729998267e-03,7.059818599369999201e-04,1.000000000000000000e+00
1.170137337999999971e+00,-2.343264669119999866e+00,2.151970674500000014e-01,-9.561320317679999903e+00,7.149416487659999639e-03,-1.200173329559999988e-02,-1.747018843890000075e-02,1.000000000000000000e+00
1.175006825999999949e+00,-2.371163314399999944e+00,2.117104126449999846e-01,-9.535044889689999081e+00,1.223081443459999966e-02,4.355535376819999471e-03,-6.725494749839999818e-04,1.000000000000000000e+00
1.180009912000000050e+00,-2.341502481760000087e+00,2.272679011300000051e-01,-9.529973577779999871e+00,7.713473751210000442e-04,1.140537392350000033e-02,-6.182617973539999978e-03,1.000000000000000000e+00
1.185009057999999893e+00,-2.386660451000000016e+00,2.414022066780000253e-01,-9.557872807569999907e+00,1.245503406970000122e-02,-3.049785736950000000e-04,-3.233551513399999904e-03,1.000000000000000000e+00
1.190027846000000000e+00,-2.377615120879999822e+00,2.918397237570000136e-01,-9.492157934130000640e+00,2.230123989279999761e-02,1.218723040070000124e-02,7.815639488400000223e-03,1.000000000000000000e+00
1.195023119000000023e+00,-2.329972349090000172e+00,2.264855185809999949e-01,-9.474496605229999702e+00,1.675573363900000057e-02,5.929362960159999772e-03,6.869984790679999759e-03,1.000000000000000000e+00
1.200017491999999963e+00,-2.336776768410000038e+00,1.643233509120000102e-01,-9.517666469389999051e+00,2.014904469249999969e-02,5.180300213399999156e-04,2.792631275950000218e-04,1.000000000000000000e+00
1.205021144000000044e+00,-2.350635636279999829e+00,2.150973151370000058e-01,-9.565421907779999344e+00,2.193106338379999937e-02,-1.082831807429999842e-02,-4.996446892619999490e-03,1.000000000000000000e+00
1.210338815000000068e+00,-2.339645455709999933e+00,2.092641337370000076e-01,-9.538884613989999650e+00,1.880948059259999680e-02,-3.802299266680000001e-03,5.856486968699999929e-04,1.000000000000000000e+00
1.214899836999999927e+00,-2.324586418270000010e+00,3.110309656340000117e-01,-9.607100656600000121e+00,2.984740957619999926e-02,2.830998506399999993e-03,-1.052851974960000020e-02,1.000000000000000000e+00
1.220052442999999931e+00,-2.373026331790000221e+00,3.723786933820000256e-01,-9.530982462560000812e+00,2.028723992409999996e-02,9.473048150540001877e-03,-6.023743189870000387e-04,1.000000000000000000e+00
1.224890892999999981e+00,-2.347403668620000161e+00,2.598982145670000188e-01,-9.603303602410001361e+00,4.329341650009999737e-02,-4.498069174589999948e-03,2.550354460249999906e-03,1.000000000000000000e+00
1.229877981000000009e+00,-2.363369153390000310e+00,2.606468409780000051e-01,-9.534093288060001115e+00,3.246853500599999887e-02,4.001207649709999890e-03,-7.402716204520000919e-03,1.000000000000000000e+00
1.234866307999999968e+00,-2.344750085379999849e+00,1.949154913190000171e-01,-9.551616085270000056e+00,3.001338988540000127e-02,1.603204291309999778e-03,-4.233575891700000135e-03,1.000000000000000000e+00
1.239913376999999928e+00,-2.376188449079999820e+00,1.550106020350000002e-01,-9.511601470260000468e+00,2.219329588120000016e-02,-1.115294918419999955e-02,-1.214998401700000119e-02,1.000000000000000000e+00
1.245000496000000068e+00,-2.406068623559999953e+00,1.040613360420000050e-01,-9.497495203499999761e+00,3.732362017040000146e-02,6.122584454720000728e-03,-1.559877581890000038e-02,1.000000000000000000e+00
1.249917954999999914e+00,-2.462344053009999811e+00,1.921512873020000123e-01,-9.499788867399999504e+00,2.870022132990000460e-02,-4.177174996580000459e-03,-3.057471476500000021e-03,1.000000000000000000e+00
1.254910854000000020e+00,-2.381908288029999987e+00,1.844834012889999819e-01,-9.539438156219999243e+00,3.252436593170000140e-02,-5.014940164979999129e-03,-4.804389551280000004e-03,1.000000000000000000e+00
1.259906572000000002e+00,-2.320355356569999916e+00,1.807204502930000178e-01,-9.538665418280000807e+00,3.539818525309999797e-02,4.471756052229999313e-03,-9.290320798750001385e-03,1.000000000000000000e+00
1.264907634999999919e+00,-2.314368098849999722e+00,1.272824453580000126e-01,-9.525378066680000089e+00,3.142689168450000375e-02,3.912037238479999790e-03,-1.297957170750000007e-02,1.000000000000000000e+00
1.269896828999999894e+00,-2.356731030550000217e+00,1.891397026630000089e-01,-9.531327915000000317e+00,3.376588225359999917e-02,-1.056184642950000040e-03,-3.111128928139999649e-03,1.000000000000000000e+00
1.274900189000000017e+00,-2.345285069030000002e+00,2.046811350620000025e-01,-9.528607550120000269e+00,4.349008202549999730e-02,-1.050109975039999893e-02,-6.879063323140000366e-03,1.000000000000000000e+00
1.279975013999999911e+00,-2.327988481800000287e+00,2.010512541270000064e-01,-9.531279984199999333e+00,4.091618582610000165e-02,-1.253575459120000006e-02,-1.400857046249999981e-02,1.000000000000000000e+00
1.284945248999999956e+00,-2.372787408470000248e+00,1.950542422019999889e-01,-9.544988776080000292e+00,3.542007133359999921e-02,-2.476593945179999829e-03,-8.125266991559999818e-03,1.000000000000000000e+00
1.290014248000000086e+00,-2.371087911070000054e+00,1.967972864770000108e-01,-9.492871635349999337e+00,3.084578178820000099e-02,-7.861701771619999252e-03,-1.766124181449999983e-02,1.000000000000000000e+00
1.294978968999999980e+00,-2.386922755190000078e+00,1.607898064909999980e-01,-9.519606497539999879e+00,4.248126223680000896e-02,-1.021192641930000018e-03,-6.036915816369999715e-03,1.000000000000000000e+00
1.300042584000000057e+00,-2.340272355440000229e+00,1.181805992850000070e-01,-9.490964924949999215e+00,4.124638438219999786e-02,-9.116444736719998831e-03,-1.301853917540000093e-02,1.000000000000000000e+00
1.305109848999999933e+00,-2.342222466589999996e+00,2.062671073460000115e-01,-9.487713229680000637e+00,3.096137754620000362e-02,-1.309963688249999973e-02,-2.437493018809999690e-02,1.000000000000000000e+00
1.309969600999999928e+00,-2.356173981189999989e+00,1.618873924689999966e-01,-9.520313184510001747e+00,2.255876734850000009e-02,9.710775688290000998e-03,-1.621654257180000017e-02,1.000000000000000000e+00
1.315084995000000090e+00,-2.352127043879999935e+00,1.751602040839999874e-01,-9.503366141360000796e+00,2.598601952200000134e-02,6.081881932910000038e-03,-1.608949340880000065e-02,1.000000000000000000e+00
1.320087435999999892e+00,-2.369157235269999884e+00,1.573857884669999929e-01,-9.501617251869999947e+00,2.584653347729999953e-02,-1.454727537929999953e-02,-1.474634464830000026e-02,1.000000000000000000e+00
1.324985287000000067e+00,-2.343315084139999893e+00,1.323171881219999957e-01,-9.503246898900000517e+00,3.059644065800000076e-02,-6.488480605189999272e-03,-1.580636948350000112e-02,1.000000000000000000e+00
1.330097357999999952e+00,-2.373021071090000156e+00,1.284614899410000122e-01,-9.539951366439998637e+00,1.355741359290000073e-02,-1.230762153859999916e-02,-6.074970588090001025e-03,1.000000000000000000e+00
1.334951047999999973e+00,-2.359552663840000175e+00,1.431976338400000048e-01,-9.490842759870000478e+00,2.588874287899999710e-02,7.114619947970001086e-03,-8.508077822629999884e-03,1.000000000000000000e+00
1.339967248000000000e+00,-2.398559563100000069e+00,1.742059903650000074e-01,-9.495997073899999918e+00,1.409086678179999851e-02,-1.693287631500000213e-03,-9.108239784839999159e-03,1.000000000000000000e+00
1.344956907000000035e+00,-2.351445052970000393e+00,1.774356930009999833e-01,-9.519768994630000591e+00,1.497515011579999937e-02,-7.261743769050000956e-03,-1.482571288939999940e-02,1.000000000000000000e+00
1.350098095999999970e+00,-2.364647210500000263e+00,1.799427073860000170e-01,-9.505438855980001378e+00,9.486868977550000012e-03,2.555152866989999962e-03,-1.438051648439999872e-02,1.000000000000000000e+00
1.355101593000000104e+00,-2.347326950129999812e+00,1.322587268000000038e-01,-9.511491580150000402e+00,5.601290147750000691e-03,1.211490388960000109e-02,-1.523533836009999948e-02,1.000000000000000000e+00
1.359954958999999963e+00,-2.313720886990000114e+00,1.568950823409999973e-01,-9.541008182010001448e+00,1.631257496769999982e-02,-1.163054024799999898e-03,-2.086311951279999979e-02,1.000000000000000000e+00
1.364950797000000104e+00,-2.397845423490000183e+00,1.702115321680000015e-01,-9.534872455739998642e+00,1.423429418359999955e-02,-4.000625573100000457e-03,-9.104466997090001137e-03,1.000000000000000000e+00
1.369944408999999919e+00,-2.347270251499999905e+00,1.999869128319999856e-01,-9.520290972679999797e+00,9.139290079469999592e-03,4.874013829979999615e-03,-1.066474989060000114e-02,1.000000000000000000e+00
1.375079235000000066e+00,-2.380796235140000494e+00,1.677285745119999893e-01,-9.543446807340000504e+00,9.622721001510001204e-03,1.304589677599999860e-03,-3.360901726410000200e-03,1.000000000000000000e+00
1.380109052999999975e+00,-2.369053044240000183e+00,2.261588621759999806e-01,-9.522668807719998796e+00,1.545098517089999943e-02,4.788462538270000027e-03,2.736830851060000243e-03,1.000000000000000000e+00
1.385109785999999898e+00,-2.369872690059999787e+00,2.335962821680000190e-01,-9.494800557589998746e+00,7.051757071170000092e-03,-4.016931634399999824e-04,8.116667158900000081e-04,1.000000000000000000e+00
1.390088294999999974e+00,-2.345180293489999901e+00,2.321982519379999776e-01,-9.507522092000000313e+00,1.687507331370000085e-02,2.415019087489999640e-03,2.988143824040000694e-04,1.000000000000000000e+00
1.394964638000000035e+00,-2.323623272329999878e+00,2.108249167810000158e-01,-9.500410798689999936e+00,1.681296527389999906e-02,1.399285160010000154e-03,-7.710739038880000222e-03,1.000000000000000000e+00
1.399987520000000041e+00,-2.391979015670000042e+00,1.715590560530000086e-01,-9.518077388280000051e+00,1.938853226599999979e-02,9.198146872220000145e-03,-7.366624195130000918e-04,1.000000000000000000e+00
1.405136938999999918e+00,-2.360440260329999873e+00,1.347313639909999972e-01,-9.504108484159999648e+00,4.210003186020000107e-03,-8.443353697659999879e-03,8.527531754229999506e-04,1.000000000000000000e+00
1.409983734999999960e+00,-2.359550033490000143e+00,7.154950245220000060e-02,-9.514778346739998227e+00,5.347702186549999591e-03,2.135425806049999833e-02,8.777992799879999128e-03,1.000000000000000000e+00
1.414988332999999932e+00,-2.300440695790000323e+00,9.876397855289999195e-02,-9.522738365830001328e+00,-2.871399512510000324e-03,8.293064311149999160e-03,-2.854551188650000446e-03,1.000000000000000000e+00
1.419976823999999915e+00,-2.398790595379999946e+00,1.120643448939999953e-01,-9.510038458729999533e+00,-1.194177847359999961e-02,8.558553643520001170e-03,2.053600177170000068e-02,1.000000000000000000e+00
1.425000865999999977e+00,-2.306778082120000128e+00,1.427906604739999918e-01,-9.532938857330000459e+00,-1.003516279160000108e-02,-2.735236193980000296e-03,-2.769098151480000203e-03,1.000000000000000000e+00
1.429949506999999898e+00,-2.352545999950000244e+00,1.462221875589999887e-01,-9.546261280239999536e+00,-6.216210778799999975e-03,8.209647610779999966e-03,3.209819551559999428e-04,1.000000000000000000e+00
1.435118864000000105e+00,-2.353477289449999788e+00,1.390369430969999875e-01,-9.545466914989999552e+00,1.582952216270000143e-02,1.156946178530000088e-03,1.175948604939999927e-02,1.000000000000000000e+00
1.440127248000000026e+00,-2.333135489300000032e+00,1.618060160620000132e-01,-9.533189617219999690e+00,3.239469602699999746e-03,-1.257323473689999846e-02,3.879729425529999855e-03,1.000000000000000000e+00
1.445107906999999914e+00,-2.322441076800000115e+00,1.988594614380000125e-01,-9.504211360010000220e+00,4.974993877109999685e-03,1.142049394550000152e-02,6.548322271560000048e-04,1.000000000000000000e+00
1.450128273000000023e+00,-2.324520367299999890e+00,1.881108528049999784e-01,-9.503355035449999377e+00,4.187011625619999414e-03,-9.911155328149999846e-03,5.722298286859999958e-03,1.000000000000000000e+00
1.454987035999999900e+00,-2.390026712559999655e+00,2.158065411179999893e-01,-9.495857373169998894e+00,1.127888169139999903e-02,7.023915648460000473e-03,1.392727438360000063e-02,1.000000000000000000e+00
1.459971302000000026e+00,-2.334789978509999919e+00,1.764041945289999969e-01,-9.500075867639999672e+00,9.819655679169999804e-03,-6.652383599429999989e-03,1.010838989170000091e-02,1.000000000000000000e+00
1.464976701999999964e+00,-2.357031767059999616e+00,2.110707813010000156e-01,-9.490855034830000037e+00,1.042818743740000012e-02,7.377364672719999685e-04,4.506818950180000762e-03,1.000000000000000000e+00
1.469990713999999921e+00,-2.352450430620000255e+00,2.000722712939999870e-01,-9.516415008030000067e+00,1.151687279339999939e-02,-9.573786519469999062e-03,6.813328713179999871e-03,1.000000000000000000e+00
1.474973843999999978e+00,-2.336514464209999531e+00,1.680546646609999972e-01,-9.513224687550000169e+00,-6.488733924930000212e-04,9.933713823559998241e-03,-9.024244733149999753e-03,1.000000000000000000e+00
1.480148629999999965e+00,-2.352165622329999817e+00,1.346802731249999996e-01,-9.504612926549999230e+00,-2.265541115779999993e-03,1.586535945530000028e-03,3.596346126870000014e-03,1.000000000000000000e+00
1.485127051000000087e+00,-2.369732843199999994e+00,1.552510414609999945e-01,-9.476461767820000048e+00,2.680674660949999670e-03,5.064675584439999254e-03,1.013278029859999985e-02,1.000000000000000000e+00
1.490118292000000011e+00,-2.310979625459999909e+00,1.605728575379999912e-01,-9.544775425589998363e+00,-8.125932887199999871e-03,-2.155335620050000123e-02,-8.457759395239999173e-03,1.000000000000000000e+00
1.495013310999999900e+00,-2.366677693409999783e+00,1.954027085800000008e-01,-9.506780918239998712e+00,1.211430039259999911e-02,7.772918790580000091e-03,4.687204491350000228e-04,1.000000000000000000e+00
1.499992500000000062e+00,-2.349892562830000031e+00,1.251570415680000048e-01,-9.509047109609999993e+00,6.165094207970000899e-03,-1.258165854960000170e-02,7.575790397819999814e-03,1.000000000000000000e+00
1.504852811999999984e+00,-2.347273466369999895e+00,1.191347856039999958e-01,-9.520720011739999933e+00,1.532261911779999979e-02,-3.462806344030001015e-04,9.621553123000000513e-03,1.000000000000000000e+00
1.509813684999999905e+00,-2.303317858659999828e+00,1.097600774070000146e-01,-9.508440375890000240e+00,1.792028360070000229e-02,-1.445296313610000029e-02,-1.568449102339999901e-02,1.000000000000000000e+00
1.514922134999999948e+00,-2.409154753010000150e+00,1.632978803219999886e-01,-9.508711594039999326e+00,1.503232959659999909e-02,-2.356499992309999542e-02,1.097236201169999974e-02,1.000000000000000000e+00
1.519838699999999987e+00,-2.342912494679999735e+00,1.897025607099999955e-01,-9.483688796470000071e+00,1.954744011159999934e-02,-1.951075717809999666e-02,1.055770320820000052e-03,1.000000000000000000e+00
1.524875368000000009e+00,-2.376760842140000385e+00,1.432788915159999843e-01,-9.486980823750000624e+00,-6.150907371189999473e-03,-7.645191159100000501e-03,9.231649339200001178e-03,1.000000000000000000e+00
1.529807895000000029e+00,-2.335864475870000234e+00,1.230294823550000111e-01,-9.490404368460000128e+00,1.138360239570000015e-02,-1.467723771929999900e-02,-3.616228466850000042e-03,1.000000000000000000e+00
1.534801263000000082e+00,-2.357189003449999820e+00,1.123964994580000099e-01,-9.480867893830000170e+00,-2.616956131530000142e-03,2.779951319100000236e-04,-4.121517762539999782e-03,1.000000000000000000e+00
1.539900126999999896e+00,-2.326452650529999833e+00,1.027110722110000096e-01,-9.487665883400000055e+00,-1.899175578730000029e-03,-1.238310895860000004e-02,-4.525693599129999856e-03,1.000000000000000000e+00
1.544678017000000070e+00,-2.329447156170000088e+00,1.122887099689999918e-01,-9.483916759999999613e+00,3.988718148319999983e-03,-6.276414729649999399e-03,-7.590021938089999524e-03,1.000000000000000000e+00
1.549737160999999919e+00,-2.402251549489999860e+00,1.410445657259999930e-01,-9.472493448710000763e+00,-1.815795153379999929e-02,7.364510558550000849e-03,1.085770130159999930e-02,1.000000000000000000e+00
1.554658545999999975e+00,-2.387960281549999841e+00,1.718420377129999954e-01,-9.501538925930001156e+00,-1.044330187139999935e-02,-5.171305034310000326e-03,4.539971239859999334e-03,1.000000000000000000e+00
1.559835057999999997e+00,-2.430638270540000256e+00,1.956892156379999859e-01,-9.491230297889998724e+00,-2.196655608709999902e-02,1.308139599860000044e-02,2.446590177710000064e-02,1.000000000000000000e+00
1.564932972999999894e+00,-2.338547285209999771e+00,1.479328730680000148e-01,-9.501175353320000738e+00,-2.011021785440000181e-02,5.204759538170000525e-03,1.044952124359999936e-02,1.000000000000000000e+00
1.569960570000000111e+00,-2.425847675260000003e+00,1.100672710590000075e-01,-9.503874675409999639e+00,-2.432250417770000228e-02,-7.392682600769999966e-03,9.517380967739999878e-03,1.000000000000000000e+00
1.574958467999999945e+00,-2.350997893720000231e+00,8.026195191499999049e-02,-9.498624499789999120e+00,-3.250626847149999665e-02,4.839897155760000506e-03,-1.334603782739999904e-02,1.000000000000000000e+00
1.579959466000000035e+00,-2.349238190569999940e+00,1.172660599900000183e-01,-9.451077735720000206e+00,-2.641835622489999841e-02,2.061463426800000213e-03,2.917828736829999707e-03,1.000000000000000000e+00
1.584965640999999925e+00,-2.385493745299999802e+00,1.849360038950000062e-01,-9.490409044630000679e+00,-2.764253690840000333e-02,-2.985970582810000030e-03,7.667068392039999396e-03,1.000000000000000000e+00
1.589964925000000084e+00,-2.365784251709999619e+00,1.145275566700000164e-01,-9.513970537480000544e+00,-3.870939463379999973e-02,9.001623839139999070e-04,6.023894995450000331e-03,1.000000000000000000e+00
1.594982238000000052e+00,-2.127173940770000105e+00,5.395545293809999449e-02,-9.409239412419999837e+00,-4.410718008880000485e-02,1.180625520650000143e-03,-1.109627657569999936e-03,1.000000000000000000e+00
1.599938673999999894e+00,-2.495469200759999673e+00,2.858806509549999819e-01,-9.555824642870000218e+00,-4.044978320600000482e-02,6.679359823470000686e-03,1.883806893599999791e-03,1.000000000000000000e+00
1.605112512999999907e+00,-2.391818564409999848e+00,1.818346586129999942e-01,-9.447831301139999027e+00,-3.332601487640000221e-02,-1.317755039779999922e-02,-4.137030802669999785e-03,1.000000000000000000e+00
1.609942997000000098e+00,-2.335869590440000199e+00,2.465880300849999929e-01,-9.478978134560000157e+00,-3.796942159529999999e-02,-1.679785922170000043e-02,1.793237961829999977e-02,1.000000000000000000e+00
1.615126068999999998e+00,-2.261187274420000115e+00,2.549728687280000128e-01,-9.478588258460000304e+00,-4.335239157080000155e-02,-8.003873750570000140e-03,-5.940976552669999765e-03,1.000000000000000000e+00
1.620127388000000002e+00,-2.430046295999999995e+00,1.562845492269999970e-01,-9.506609653330000853e+00,-4.366314411159999409e-02,-8.201356045900000738e-03,1.638729125260000169e-02,1.000000000000000000e+00
1.624991526999999936e+00,-2.253167634089999982e+00,1.085601452989999882e-01,-9.471738830950000576e+00,-4.971520975229999639e-02,4.795406479390000240e-03,1.223988551649999972e-02,1.000000000000000000e+00
1.629918353999999958e+00,-2.267782727159999734e+00,1.095555449779999843e-02,-9.491658167909999833e+00,-2.665720507499999906e-02,-1.988575048740000295e-02,6.858950946479998919e-04,1.000000000000000000e+00
1.634909174999999992e+00,-2.436637510959999808e+00,1.496394189740000123e-02,-9.497249704310000595e+00,-4.797220230100000121e-02,-1.254209876059999944e-02,5.703664384780000179e-03,1.000000000000000000e+00
1.639887974999999942e+00,-2.346041440359999619e+00,1.939781100040000039e-02,-9.497517999850000336e+00,-5.396112799640000179e-02,-1.251755189150000058e-02,1.032021827999999967e-02,1.000000000000000000e+00
1.644950514000000030e+00,-2.235973922709999950e+00,1.109272945549999861e-01,-9.469615847449999180e+00,-6.819720566269998896e-02,-1.700210943820000195e-02,1.705503324049999865e-03,1.000000000000000000e+00
1.649973211999999911e+00,-2.341611056699999693e+00,1.350119070989999892e-01,-9.463073293939999076e+00,-8.592557162049999087e-02,-1.394030172379999953e-02,1.299653854220000036e-02,1.000000000000000000e+00
1.654988211000000042e+00,-2.353281620749999803e+00,-9.990149239959998304e-03,-9.466807219770000614e+00,-8.094555139539999500e-02,-8.818350732329999567e-03,9.514829143879998882e-03,1.000000000000000000e+00
1.659966513999999949e+00,-2.345331100129999680e+00,-4.568934530360000551e-02,-9.454424708060001237e+00,-8.173311501739999319e-02,-1.189393457030000004e-02,1.939754188059999995e-02,1.000000000000000000e+00
1.664946293000000077e+00,-2.238964044429999856e+00,3.105927842800000269e-02,-9.479314234640000336e+00,-7.829240709539998788e-02,9.734500199560000133e-04,2.505395375190000093e-02,1.000000000000000000e+00
1.669967490000000110e+00,-2.246181282329999807e+00,2.461833400079999901e-01,-9.514370934980000527e+00,-1.022374257449999990e-01,1.503645442430000040e-03,1.536644343289999930e-02,1.000000000000000000e+00
1.675127715999999989e+00,-2.349864213520000078e+00,4.542161418519999883e-01,-9.550147766280000283e+00,-1.058253645899999845e-01,-2.505348529670000258e-03,3.214839473370000034e-02,1.000000000000000000e+00
1.680071829999999933e+00,-2.371530101879999908e+00,5.271042313970000226e-01,-9.557036941269998920e+00,-8.853516727690000088e-02,-1.375965401529999875e-02,4.442837089300000382e-03,1.000000000000000000e+00
1.684990741000000014e+00,-2.460793900959999725e+00,2.346182456269999828e-01,-9.554128360349999127e+00,-6.547904014590000266e-02,-4.286619368940000271e-03,8.250968530770000017e-03,1.000000000000000000e+00
1.689981613000000049e+00,-2.442655456069999786e+00,1.798361052069999966e-01,-9.567637245739998519e+00,-4.390148818490000743e-02,5.892487242819999423e-04,-4.371014889329999722e-03,1.000000000000000000e+00
1.694989598000000042e+00,-2.413685528309999828e+00,6.755379392599999422e-01,-9.575539397170000910e+00,-3.778506815430000138e-02,-1.509312540289999872e-02,2.200344344599999922e-03,1.000000000000000000e+00
1.699971252000000099e+00,-2.349264640190000364e+00,8.761789503529999745e-01,-9.607635494129999287e+00,-3.795696794990000011e-02,-2.274089120329999755e-02,-9.654456749559999634e-03,1.000000000000000000e+00
1.704971108000000068e+00,-2.438610856860000009e+00,7.541513111169999561e-01,-9.589729250560001361e+00,-1.564823277289999898e-02,-9.192584082480000432e-03,-2.330057695509999902e-02,1.000000000000000000e+00
1.709984844999999920e+00,-2.374686081690000172e+00,2.061042266679999901e-01,-9.524710542679999392e+00,1.750517264009999671e-02,-7.290253415699999608e-03,-3.186320140960000047e-02,1.000000000000000000e+00
1.715116652999999936e+00,-2.224924559290000214e+00,-3.400380516399999914e-02,-9.430465155800000332e+00,4.497759044169999387e-02,-8.941174484790001195e-03,-2.407207898800000148e-02,1.000000000000000000e+00
1.720112864999999935e+00,-2.140472690540000222e+00,1.381910029260000061e-01,-9.442657113380001022e+00,3.873612731699999784e-02,-1.010493375360000008e-02,-3.475515171890000005e-02,1.000000000000000000e+00
1.725143730999999958e+00,-2.056219559229999660e+00,3.102005792249999949e-01,-9.593460838310001293e+00,1.936931349340000053e-02,-2.996606566009999556e-02,-3.899602964519999909e-02,1.000000000000000000e+00
1.729940653000000106e+00,-2.218664183730000072e+00,3.373585987309999923e-01,-9.534849659380000730e+00,2.917191945019999982e-02,-2.994855865840000131e-02,-2.904619462790000370e-02,1.000000000000000000e+00
1.734984300999999896e+00,-2.371126927909999793e+00,2.043480306509999900e-01,-9.449755547200000549e+00,2.465441823009999894e-02,-5.298650264740000643e-02,-3.566424548629999747e-02,1.000000000000000000e+00
1.739977388000000014e+00,-2.533469845589999991e+00,1.273965001909999895e-01,-9.449809907739998849e+00,3.095954097809999750e-02,-4.797572642559999601e-02,-1.139534264800000016e-02,1.000000000000000000e+00
1.744980498000000102e+00,-2.472641282879999736e+00,-2.136269503230000047e-02,-9.464984096000000235e+00,4.398814588790000285e-02,-4.324765503409999656e-02,-2.609821408990000216e-02,1.000000000000000000e+00
1.749964797000000072e+00,-2.478838383959999891e+00,2.791726206670000140e-03,-9.425594919419999940e+00,2.901338413359999535e-02,-2.979435585440000020e-02,-4.104211926459999660e-02,1.000000000000000000e+00
1.754936287000000039e+00,-2.466804247289999807e+00,-4.043783624990000131e-02,-9.433986315660000344e+00,1.449946779760000019e-02,-4.170297831300000257e-02,-1.429751981050000030e-02,1.000000000000000000e+00
1.759987597999999931e+00,-2.333410506849999955e+00,7.317287957010000510e-02,-9.456983744889999599e+00,-8.389431051909999881e-03,-2.239561639729999859e-02,-1.591376727450000226e-03,1.000000000000000000e+00
1.764966500000000105e+00,-2.371752512460000073e+00,3.287189633429999924e-01,-9.498035301729998992e+00,-2.230931445959999718e-02,-1.610798202459999898e-02,7.087088190020000671e-03,1.000000000000000000e+00
1.770118351000000034e+00,-2.411571020369999818e+00,3.821422547660000002e-01,-9.539293779310000332e+00,-3.453205572440000339e-03,-3.629764914510000273e-02,-1.505368854850000178e-04,1.000000000000000000e+00
1.775019115999999952e+00,-2.461662208229999926e+00,2.971358939359999840e-01,-9.483739649869999511e+00,-1.188187114889999868e-02,-2.933296374979999996e-02,-3.822476603089999814e-03,1.000000000000000000e+00
1.779935360000000077e+00,-2.457180971160000116e+00,1.261326542679999940e-01,-9.451482809389998963e+00,3.246302367190000474e-04,-3.051199205219999946e-02,-9.921920485790000979e-03,1.000000000000000000e+00
1.784926927999999968e+00,-2.347312775470000279e+00,1.265625290189999891e-02,-9.458805115100000549e+00,-2.595902420579999838e-03,-3.124628961090000420e-02,-1.319757942109999957e-02,1.000000000000000000e+00
1.790112785999999900e+00,-2.289543454199999939e+00,-2.712113297819999935e-02,-9.482591064360001099e+00,-9.731065481899999620e-03,-4.272225499149999439e-02,-5.301784258339999707e-04,1.000000000000000000e+00
1.794997503999999910e+00,-2.273263642789999928e+00,-3.566835225919999519e-02,-9.519679562780000381e+00,-1.725862547759999741e-02,-1.700861006979999951e-02,6.757240742439998664e-03,1.000000000000000000e+00
1.799970929000000108e+00,-2.350949962929999693e+00,-1.185012004079999959e-01,-9.500247717080000598e+00,-3.610706329349999688e-02,-4.108580201860000114e-02,1.641017943620000016e-02,1.000000000000000000e+00
1.804968880000000109e+00,-2.420925124170000053e+00,-9.970622555579998839e-03,-9.500316106139999661e+00,-5.060684680940000235e-02,-4.715526103969999716e-02,2.054830826820000164e-02,1.000000000000000000e+00
1.809983845999999952e+00,-2.475989716529999995e+00,2.170649254149999707e-01,-9.521952768410001156e+00,-5.687696114180000595e-02,-3.496021777390000140e-02,4.789221286769999864e-02,1.000000000000000000e+00
1.814987316999999933e+00,-2.428997955989999902e+00,3.757308533540000273e-01,-9.483810961539999695e+00,-7.534457743169999111e-02,-4.778191447259999558e-02,3.190103918309999953e-02,1.000000000000000000e+00
1.820062628999999932e+00,-2.435287996040000014e+00,4.050454298390000485e-01,-9.515081129069999477e+00,-6.674876064059999392e-02,-2.843888662759999630e-02,4.065354168419999664e-02,1.000000000000000000e+00
1.824985599999999986e+00,-2.496910631740000053e+00,4.052189963080000124e-01,-9.529372689280000586e+00,-5.043020471930000082e-02,-4.533749818799999443e-02,3.872042521830000583e-02,1.000000000000000000e+00
1.829979092000000085e+00,-2.417308102720000296e+00,3.706722913220000248e-01,-9.503906239590000027e+00,-5.735016241669999709e-02,-1.996600441630000042e-02,3.498084098100000261e-02,1.000000000000000000e+00
1.835119873000000013e+00,-2.461402388249999795e+00,4.429601134200000234e-01,-9.546525484129999128e+00,-4.516363888980000352e-02,-2.209517732259999936e-02,3.961848840119999715e-02,1.000000000000000000e+00
1.840127692999999898e+00,-2.429028351129999930e+00,4.149172739029999835e-01,-9.478979888119999586e+00,-4.354986175890000755e-02,-3.691933304069999755e-02,3.921211883430000128e-02,1.000000000000000000e+00
1.844992597000000067e+00,-2.403242021830000130e+00,3.663371847280000315e-01,-9.456047925349999161e+00,-5.369501188400000596e-02,-3.252976387740000308e-02,2.711595781150000217e-02,1.000000000000000000e+00
1.849964804000000074e+00,-2.335141422289999991e+00,3.564784558730000330e-01,-9.449677221269999094e+00,-3.376291319730000129e-02,-2.771243825550000206e-02,3.695836663250000320e-02,1.000000000000000000e+00
1.854963032999999983e+00,-2.362886192179999956e+00,3.755788776619999880e-01,-9.464882389189998690e+00,-3.864345699550000152e-02,-2.189786545929999981e-02,3.240685537459999516e-02,1.000000000000000000e+00
1.859969811000000028e+00,-2.330578059900000110e+00,4.436179197420000442e-01,-9.418946567439999029e+00,-3.280941769479999576e-02,-3.912930935619999412e-02,3.397664427759999883e-02,1.000000000000000000e+00
1.864966373999999982e+00,-2.400673340390000021e+00,4.631327675509999686e-01,-9.529200839839999659e+00,-3.933090344069999772e-02,-4.691737890240000458e-02,3.591402620080000330e-02,1.000000000000000000e+00
1.869969824000000003e+00,-2.337297285150000015e+00,4.342300598020000235e-01,-9.555112110689998772e+00,-4.111785814169999914e-02,-3.613247722390000582e-02,2.416561543940000389e-02,1.000000000000000000e+00
1.875116672000000095e+00,-2.446675943759999861e+00,4.855636124040000334e-01,-9.560726443440000111e+00,-2.177316695449999992e-02,-4.154587537050000168e-02,3.476852178569999480e-02,1.000000000000000000e+00
1.880041649000000037e+00,-2.391701221639999986e+00,5.650655671320000684e-01,-9.435555756939999483e+00,-2.379555022340000287e-03,-4.425681382419999893e-02,2.975965850059999682e-02,1.000000000000000000e+00
1.884967430000000110e+00,-2.252836502440000110e+00,5.812160165420000579e-01,-9.443943646060001029e+00,-5.468514747920000078e-03,-6.056930124760000200e-02,1.507996860889999902e-02,1.000000000000000000e+00
1.889955389999999902e+00,-2.248610409179999881e+00,4.171882145099999883e-01,-9.552388238680000754e+00,1.580860931430000090e-03,-5.407290905709999373e-02,1.686879619960000160e-02,1.000000000000000000e+00
1.894977831999999918e+00,-2.237388173420000292e+00,1.621074284279999944e-01,-9.613792263189999687e+00,1.504008006300000012e-02,-5.192434042690000778e-02,1.318524684760000176e-02,1.000000000000000000e+00
1.899987697999999892e+00,-2.296533020830000105e+00,-4.280444208359999309e-02,-9.527810262270000052e+00,3.004722762849999784e-03,-9.921154379839999815e-02,2.226957865059999916e-02,1.000000000000000000e+00
1.905121894999999954e+00,-2.358155364259999942e+00,-4.086533638039999833e-02,-9.461943997649999716e+00,1.112939883020000117e-02,-1.167783588169999942e-01,3.727821260690000055e-02,1.000000000000000000e+00
1.909980715000000107e+00,-2.369226647250000095e+00,5.331843367619999718e-02,-9.454252274099999909e+00,-1.629674062129999809e-02,-1.148124188180000005e-01,3.676899150009999701e-02,1.000000000000000000e+00
1.915111500000000078e+00,-2.391120937540000213e+00,-7.457557227510000497e-02,-9.537231001560000365e+00,-1.428220141679999861e-02,-9.672028571370000494e-02,3.342000022529999920e-02,1.000000000000000000e+00
1.920145658999999894e+00,-2.425034459179999935e+00,-1.586956106909999942e-01,-9.492903199540000614e+00,-2.668049931529999780e-02,-9.203773736950000839e-02,5.467389151450000040e-02,1.000000000000000000e+00
1.925144404000000087e+00,-2.379507656629999968e+00,-4.612297834739999963e-02,-9.393141679580001124e+00,-6.075989454979999899e-02,-8.846094459299999602e-02,6.722278892990000976e-02,1.000000000000000000e+00
1.930118911999999964e+00,-2.595073192070000090e+00,2.253428148189999813e-01,-9.454231815840000053e+00,-5.932706594469999706e-02,-9.180696308609999357e-02,7.653933018450000125e-02,1.000000000000000000e+00
1.935114392000000016e+00,-2.734477863369999984e+00,3.336886049810000032e-01,-9.492059149930000217e+00,-5.896725878119999514e-02,-8.339824527500000473e-02,9.555349498989999801e-02,1.000000000000000000e+00
1.940112255999999924e+00,-2.655762346309999966e+00,5.131620691539999779e-01,-9.494309559199999526e+00,-4.314501211050000146e-02,-8.912929892539998844e-02,9.115414321419998411e-02,1.000000000000000000e+00
1.945000336000000107e+00,-2.666558465610000095e+00,6.406308765300000596e-01,-9.480309675419999138e+00,-4.695672541859999966e-02,-8.157039433719999455e-02,8.172247558830000869e-02,1.000000000000000000e+00
1.950046731999999894e+00,-2.665049814610000123e+00,6.273236511890000200e-01,-9.508661909680000690e+00,-3.566955775019999691e-02,-6.650965660810000124e-02,6.829357892269999342e-02,1.000000000000000000e+00
1.954965121999999944e+00,-2.534517308819999926e+00,3.475395452769999838e-01,-9.480883091399999074e+00,-3.129756078120000257e-02,-7.285923510790000279e-02,5.925144255160000317e-02,1.000000000000000000e+00
1.960115972000000095e+00,-2.366106761659999780e+00,2.268120836540000185e-01,-9.471195810119999337e+00,-3.259216248990000342e-02,-5.692195147279999895e-02,6.034937873480000770e-02,1.000000000000000000e+00
1.964976282000000074e+00,-2.249073642779999993e+00,1.634583133139999866e-01,-9.309197321960001048e+00,-3.233020007609999774e-02,-7.476667314769999684e-02,7.654524594549999561e-02,1.000000000000000000e+00
1.969933033000000000e+00,-1.832713293920000153e+00,-9.365210629869999415e-02,-9.455124965279999572e+00,-3.622949495910000178e-02,-8.776345849040000091e-02,6.542333215480000685e-02,1.000000000000000000e+00
1.974962246000000032e+00,-1.745372717990000266e+00,-7.028593691670000920e-01,-9.531782088510000861e+00,-1.908197253940000296e-02,-1.059765815729999949e-01,1.126810014249999964e-01,1.000000000000000000e+00
1.979913857000000110e+00,-1.774213466420000218e+00,-8.737565455110000157e-01,-9.524341709369998910e+00,-5.773947760459999246e-02,-1.384704560040000143e-01,1.288022994999999948e-01,1.000000000000000000e+00
1.984924601999999982e+00,-2.054290052470000294e+00,-5.002958655789999654e-01,-9.482400510219999745e+00,-5.297356843949999755e-02,-1.637122780080000062e-01,1.750598102809999834e-01,1.000000000000000000e+00
1.989947767000000090e+00,-2.157145008400000119e+00,-1.177230191099999795e-01,-9.469223633260000383e+00,-5.714072287079999951e-02,-2.141824364659999924e-01,1.831052154299999679e-01,1.000000000000000000e+00
1.994924442999999936e+00,-2.238554879109999618e+00,9.294938312320000229e-02,-9.490780800549998730e+00,-7.182724773880000413e-02,-2.424042671920000058e-01,1.868742555380000225e-01,1.000000000000000000e+00
1.999977606000000074e+00,-2.389152413940000219e+00,4.530791371790000022e-01,-9.582257307249999911e+00,-5.211076885459999669e-02,-2.464219033720000118e-01,1.946178078649999921e-01,1.000000000000000000e+00
2.005031151999999928e+00,-2.562192666729999679e+00,5.449968848320000392e-01,-9.633863575839999527e+00,-3.443930298090000508e-02,-2.290593534710000101e-01,1.801502704619999951e-01,1.000000000000000000e+00
2.010104389999999963e+00,-2.690350844609999736e+00,2.354634094800000244e-01,-9.553467850610001477e+00,-1.546965725720000039e-02,-2.398066222670000025e-01,1.993510127070000082e-01,1.000000000000000000e+00
2.014989185000000127e+00,-2.816554673550000221e+00,3.590183130819999957e-01,-9.642361355080000251e+00,-2.603695727879999991e-02,-2.504933476449999752e-01,1.947532743219999862e-01,1.000000000000000000e+00
2.019962462000000070e+00,-2.900396739840000127e+00,6.909360724649999952e-01,-9.544863688399999546e+00,-1.563937775789999915e-02,-2.478918135170000148e-01,1.759330034259999898e-01,1.000000000000000000e+00
2.025129143000000020e+00,-2.823707467919999825e+00,7.400885181690000092e-01,-9.579183891150000463e+00,-1.703721098599999748e-02,-2.357271462680000096e-01,1.903517544269999751e-01,1.000000000000000000e+00
2.029944963999999796e+00,-2.590013278329999835e+00,8.927907701970000387e-01,-9.735302673619999680e+00,-1.870075985790000186e-02,-2.506310939790000192e-01,1.677892357109999899e-01,1.000000000000000000e+00
2.035115552999999800e+00,-2.531889882929999835e+00,7.273086777039999840e-01,-9.858009600360000846e+00,9.705455973740000075e-03,-2.395973652600000003e-01,1.542363315820000080e-01,1.000000000000000000e+00
2.040118994000000185e+00,-2.643693430589999949e+00,5.925969865269999914e-01,-9.801312730630000303e+00,2.616211585700000189e-02,-2.733782827849999819e-01,1.411869078870000016e-01,1.000000000000000000e+00
2.045115286000000143e+00,-2.421402240159999941e+00,4.214180340999999497e-01,-9.848529824349999018e+00,4.057700932030000596e-02,-2.584852576259999979e-01,1.108374819159999997e-01,1.000000000000000000e+00
2.050117274000000211e+00,-2.561770057399999967e+00,7.771634264579999618e-01,-9.990760366729999120e+00,6.869105249640000688e-02,-2.776144146919999889e-01,1.328562349079999982e-01,1.000000000000000000e+00
2.055086909999999989e+00,-2.355822245140000160e+00,9.137614428370000041e-01,-9.957480028410000017e+00,8.942594379189999776e-02,-3.106681704520000142e-01,1.181806623939999912e-01,1.000000000000000000e+00
2.060111994000000113e+00,-2.277534744240000464e+00,1.262641954390000043e+00,-1.017016650130000066e+01,1.207707673310000063e-01,-3.438470065590000235e-01,8.812902867789998429e-02,1.000000000000000000e+00
2.065116272000000031e+00,-2.369309795479999980e+00,9.483326246759999911e-01,-1.008987306739999923e+01,1.688521057369999911e-01,-3.577448129649999919e-01,7.549862563610000576e-02,1.000000000000000000e+00
2.069972480000000115e+00,-2.470879241650000058e+00,5.022681520330000149e-01,-1.013487891479999981e+01,2.231235802169999893e-01,-3.765165805819999933e-01,6.083716824649999799e-02,1.000000000000000000e+00
2.074958587999999882e+00,-2.325854100119999934e+00,3.561407483510000138e-01,-1.018394134409999907e+01,2.327686846260000053e-01,-4.186070263390000434e-01,5.585350841280000561e-02,1.000000000000000000e+00
2.079972595000000091e+00,-2.280059002020000225e+00,-2.318614394649999855e-01,-1.032136244039999973e+01,2.582027018070000013e-01,-4.542352557179999972e-01,8.478898555040000062e-02,1.000000000000000000e+00
2.084956805000000024e+00,-2.335841387249999901e+00,6.018262583719999892e-01,-1.038816043289999946e+01,2.536706924439999788e-01,-5.042223930360000272e-01,7.895664870739999008e-02,1.000000000000000000e+00
2.089921460999999869e+00,-2.374719399439999989e+00,5.364236657440000222e-01,-1.040875197000000085e+01,2.428103685379999765e-01,-5.574865341189999546e-01,6.516067683699999780e-02,1.000000000000000000e+00
2.094971628999999780e+00,-1.871851710609999886e+00,3.111113008620000064e-01,-1.093437275790000029e+01,2.729358673099999688e-01,-6.257234215739999605e-01,6.529080867769999907e-02,0.000000000000000000e+00
2.099948546999999888e+00,-1.934094816300000019e+00,7.183037526669999728e-01,-1.103566806329999928e+01,3.468647897240000333e-01,-6.785557866099999336e-01,8.575990051030001060e-02,1.000000000000000000e+00
2.104959829999999865e+00,-9.044804773379999663e-01,1.255407765359999983e+00,-1.160597905680000075e+01,4.192146062850000132e-01,-7.710850834849999336e-01,1.403171867130000028e-01,0.000000000000000000e+00
2.110107380000000088e+00,-1.479048032310000149e+00,1.075392632060000020e+00,-1.129736435859999943e+01,4.457803666590000047e-01,-9.240125417710000066e-01,8.004894852639998781e-02,0.000000000000000000e+00
2.114956784999999950e+00,-2.058092367370000009e+00,8.687631211380000273e-01,-1.131331128480000103e+01,4.641839563849999850e-01,-1.079403758049999995e+00,7.891723513600000517e-02,0.000000000000000000e+00
2.119971076000000121e+00,-1.630909011209999981e+00,8.608492792739999011e-01,-1.204543781109999934e+01,4.477328956130000037e-01,-1.222198486329999945e+00,8.540201187130000426e-02,0.000000000000000000e+00
2.124982731999999874e+00,-1.308505733820000128e+00,1.571415058099999928e+00,-1.245296647260000000e+01,4.310185313220000203e-01,-1.337228298189999887e+00,3.960829228159999660e-02,0.000000000000000000e+00
2.130101111000000103e+00,-1.036114222369999949e+00,1.418218738939999835e+00,-1.259409226859999897e+01,4.520900845530000378e-01,-1.463652014729999840e+00,-1.403563003989999856e-02,0.000000000000000000e+00
2.135116613000000108e+00,-1.038813179129999931e+00,1.234052988770000026e+00,-1.281753160609999931e+01,4.297695755960000419e-01,-1.632180094720000030e+00,-5.534657463430000396e-02,0.000000000000000000e+00
2.139973808000000144e+00,-1.246900779910000034e+00,5.335135504500000403e-01,-1.327187930190000031e+01,4.138809442520000048e-01,-1.830954551699999877e+00,-4.811260476709999789e-02,0.000000000000000000e+00
2.144952164000000217e+00,-6.585243336819999183e-01,-1.066534714269999906e-01,-1.247974692750000081e+01,4.669214487080000087e-01,-2.039277553559999845e+00,-5.839481018479999314e-03,0.000000000000000000e+00
2.150102674000000214e+00,-9.277000248839999408e-01,-2.715203180990000131e-01,-1.216708616869999915e+01,5.085639357569999852e-01,-2.209460020069999864e+00,-1.298940833660000051e-02,0.000000000000000000e+00
2.154975926000000097e+00,-1.467487650640000085e+00,-5.989675079399999769e-01,-1.227097792030000001e+01,4.983613789079999745e-01,-2.405353546140000187e+00,1.052589062600000139e-02,0.000000000000000000e+00
2.159970534000000164e+00,-1.084737456570000091e+00,-1.694496371110000066e+00,-1.239555823969999970e+01,3.933307230470000082e-01,-2.613773822779999811e+00,3.343673422929999833e-02,0.000000000000000000e+00
2.164932664999999812e+00,-8.232491050019999923e-01,-2.227117100900000146e+00,-1.240578737279999899e+01,2.469071745870000112e-01,-2.807975530620000271e+00,5.062470585109999505e-02,0.000000000000000000e+00
2.169968479000000006e+00,-7.929062814470000387e-01,-2.703874635309999608e+00,-1.225702187569999957e+01,4.265636950730000709e-02,-2.980966567990000371e+00,4.303376376630000527e-02,0.000000000000000000e+00
2.174950056000000131e+00,-7.043956388240000255e-01,-4.161343142359999803e+00,-1.239065410099999909e+01,-1.792511641979999959e-01,-3.159184694290000373e+00,5.661422014240000133e-02,0.000000000000000000e+00
2.179957701999999831e+00,-1.299491237229999818e+00,-5.896368069340000240e+00,-1.241027416280000040e+01,-4.016270935540000586e-01,-3.364725351330000169e+00,1.326915174720000035e-01,0.000000000000000000e+00
2.184954634999999978e+00,-3.003383943849999849e+00,-8.248274894610000629e+00,-1.260810910349999858e+01,-6.755049228669999239e-01,-3.488887071610000223e+00,2.126234024760000063e-01,0.000000000000000000e+00
2.190100820000000059e+00,-3.890206234090000326e+00,-8.522983231619999600e+00,-1.127808448859999935e+01,-1.053537368770000038e+00,-3.605508804319999872e+00,3.558869957920000049e-01,0.000000000000000000e+00
2.194968084000000097e+00,-3.040933922300000258e+00,-6.681922818990000401e+00,-1.151012331220000107e+01,-1.513745784760000213e+00,-3.670653581619999439e+00,5.026985406880000173e-01,0.000000000000000000e+00
2.199985387999999986e+00,-2.698836056619999813e+00,-4.828368250950000551e+00,-1.235878246049999873e+01,-1.944825172420000081e+00,-3.667905330660000018e+00,5.704916119580000222e-01,0.000000000000000000e+00
2.204961502000000184e+00,-3.560537057349999923e+00,-5.427628275569999161e+00,-1.266945467579999907e+01,-2.338255167009999802e+00,-3.720683097840000286e+00,6.721099615100001312e-01,0.000000000000000000e+00
2.210092292000000125e+00,-4.530637934790000543e+00,-7.619161583520000391e+00,-1.310895434660000092e+01,-2.641603231429999976e+00,-3.804498195649999914e+00,8.134767413140000514e-01,0.000000000000000000e+00
2.214972559000000008e+00,-4.654191833740000561e+00,-9.377181893899999565e+00,-1.407861537130000151e+01,-3.017931699750000085e+00,-3.870886802669999405e+00,1.018528103829999809e+00,0.000000000000000000e+00
2.219955989999999879e+00,-4.708550908180000327e+00,-1.109109827410000015e+01,-1.541252939489999996e+01,-3.595985889430000082e+00,-4.010486602780000354e+00,1.136195421220000057e+00,0.000000000000000000e+00
2.224981558000000081e+00,-5.741581996779999919e+00,-1.166239360249999990e+01,-1.757371140369999907e+01,-4.388290882109999735e+00,-4.203267097469999491e+00,1.227243661880000003e+00,0.000000000000000000e+00
2.229973162999999925e+00,-7.270884152419999857e+00,-1.243747313539999944e+01,-1.917734837709999951e+01,-5.223147869109999952e+00,-4.322090625759999583e+00,1.268237590789999869e+00,0.000000000000000000e+00
2.235112750999999953e+00,-9.577140402619999549e+00,-1.365429105780000008e+01,-1.984298436939999988e+01,-5.930307388309999261e+00,-4.313816070559999716e+00,1.340434551239999994e+00,0.000000000000000000e+00
2.239981713000000152e+00,-1.261991527660000045e+01,-1.179116845099999900e+01,-2.095206321719999920e+01,-6.332538604739999855e+00,-4.141758441930000423e+00,1.364771008489999993e+00,0.000000000000000000e+00
2.245116186999999819e+00,-1.380706520599999898e+01,-1.182116494529999962e+01,-1.952775872859999851e+01,-6.505063533780000462e+00,-3.950942993159999972e+00,1.406844377520000133e+00,0.000000000000000000e+00
2.250108513999999893e+00,-1.979893479980000137e+01,-1.044907462809999998e+01,-2.054145061819999896e+01,-6.617715835569999427e+00,-3.418030261989999818e+00,1.436280369760000175e+00,0.000000000000000000e+00
2.254945370999999810e+00,-2.204383320270000013e+01,-1.248101183280000015e+01,-2.147520797039999962e+01,-6.631641864780000617e+00,-2.930365324020000273e+00,1.474937558169999940e+00,0.000000000000000000e+00
2.259960788999999970e+00,-2.249798333010000206e+01,-1.310396720580000007e+01,-2.518595633969999881e+01,-6.846134662629999923e+00,-2.033320665359999779e+00,1.133920550350000056e+00,0.000000000000000000e+00
2.264956100000000028e+00,-1.419640003920000026e+01,-1.364346921960000003e+01,-2.272743856699999654e+01,-7.004468917849999698e+00,-9.385969638819999794e-01,1.352194547649999967e-01,0.000000000000000000e+00
2.269948791000000021e+00,-6.127835230529999677e+00,-2.163898398959999980e+01,-1.564379080440000003e+01,-7.098756790160000385e+00,2.922321558000000041e-01,-1.708160161969999979e+00,0.000000000000000000e+00
2.275090191999999956e+00,-6.235058172409999599e+00,-2.508892102980000161e+01,-1.155314295420000015e+01,-7.249918937680000397e+00,1.074900388720000155e+00,-2.951908588409999812e+00,0.000000000000000000e+00
2.279960411999999881e+00,-4.752509584630000283e+00,-1.726620612800000032e+01,-1.443767781579999898e+01,-7.193607807160001144e+00,1.252916932110000214e+00,-3.687392950060000008e+00,0.000000000000000000e+00
2.284981748999999951e+00,-3.913400354940000270e+00,-1.661194610069999911e+01,-1.262755030150000124e+01,-6.830194473270000621e+00,1.190801739689999916e+00,-3.967045783999999742e+00,0.000000000000000000e+00
2.289971850999999781e+00,4.491545403069999942e+00,-1.279645374680000103e+01,-1.081103513210000067e+01,-6.080850601199999872e+00,1.023406386380000033e+00,-4.036119461060000191e+00,0.000000000000000000e+00
2.294965717999999821e+00,8.036234902949999537e+00,-7.293112350850000425e+00,-9.578276128660000666e+00,-5.453300476069999903e+00,6.450075507160000221e-01,-3.998995304110000149e+00,0.000000000000000000e+00
2.299944151000000048e+00,7.339576580380000159e+00,-6.273984407649999540e+00,-8.861577473099998770e+00,-4.921114444730000592e+00,3.092536926269999764e-01,-4.032873153689999768e+00,0.000000000000000000e+00
2.305079473999999795e+00,7.165874794939999681e+00,-6.563938829119999596e+00,-8.508455524580000429e+00,-4.395210742949999805e+00,1.353603750469999922e-01,-3.921093463899999687e+00,0.000000000000000000e+00
2.310087706000000018e+00,7.614234063989999690e+00,-6.598911358300000529e+00,-7.454778246050000057e+00,-3.614596843719999786e+00,-4.808882623909999793e-02,-3.528412342069999763e+00,0.000000000000000000e+00
2.314939928999999896e+00,6.468176607930000266e+00,-4.823000586440000070e+00,-7.210579613589999326e+00,-2.718123197559999760e+00,-1.339001357559999883e-01,-3.114647388459999444e+00,0.000000000000000000e+00
2.320103084999999954e+00,6.103302846819999239e+00,-3.897135448830000293e+00,-7.649297778589999375e+00,-1.890878677370000149e+00,-1.619168370959999936e-01,-2.792120695109999939e+00,0.000000000000000000e+00
2.324981474999999964e+00,5.720363852190000209e+00,-4.956279176069999792e+00,-8.891791409580001471e+00,-1.228499054909999888e+00,-1.118575334550000050e-01,-2.554387807849999970e+00,0.000000000000000000e+00
2.329921193000000113e+00,4.804239187350000329e+00,-7.367620187080000882e+00,-9.747365451860000363e+00,-7.641081213950000617e-01,1.964692957700000034e-02,-2.360556364059999801e+00,0.000000000000000000e+00
2.335110287000000007e+00,4.084838287090000186e+00,-9.509061722649999382e+00,-1.011264136399999991e+01,-4.631905853750000190e-01,2.642063796520000007e-01,-2.197143793109999965e+00,0.000000000000000000e+00
2.340102965999999896e+00,3.491611697430000216e+00,-1.080288338979999985e+01,-9.793382522150000824e+00,-3.254613280300000522e-01,5.662106871600000035e-01,-2.062427282329999834e+00,0.000000000000000000e+00
2.344972027999999931e+00,3.106600572690000117e+00,-1.123308682450000084e+01,-9.534201424609999975e+00,-3.284877538679999986e-01,9.254923462870000561e-01,-1.974019646639999959e+00,0.000000000000000000e+00
2.350102192000000034e+00,3.117749743220000092e+00,-1.117237370480000003e+01,-9.317759983119998424e+00,-3.847707211970000096e-01,1.284866452219999955e+00,-1.967504382130000007e+00,0.000000000000000000e+00
2.354955019999999788e+00,2.866918833129999733e+00,-1.054824110480000066e+01,-8.797868094249999160e+00,-4.441975951189999772e-01,1.659841895099999798e+00,-1.986038565640000142e+00,0.000000000000000000e+00
2.359948095000000023e+00,2.786028894639999809e+00,-9.321808381729999482e+00,-8.290048920500000307e+00,-3.554384410379999859e-01,1.964683890340000127e+00,-2.021123647690000080e+00,0.000000000000000000e+00
2.364946536999999793e+00,2.720251769619999926e+00,-7.858463091589999117e+00,-7.624978160850000464e+00,-1.677860468629999713e-01,2.209836959840000059e+00,-2.083992004390000208e+00,0.000000000000000000e+00
2.369946699000000212e+00,2.432965982839999874e+00,-6.553046263699999763e+00,-7.137436635970000331e+00,1.194899305699999997e-01,2.437112808229999761e+00,-2.147981643680000108e+00,0.000000000000000000e+00
2.375083114000000162e+00,2.064058290029999743e+00,-5.683585734889999408e+00,-6.628073739900000483e+00,4.972571730610000351e-01,2.621395349499999750e+00,-2.225416660310000072e+00,0.000000000000000000e+00
2.380096822000000056e+00,1.722099102170000062e+00,-5.502198655639999991e+00,-6.325761356640000166e+00,8.700476288799999791e-01,2.820891141890000231e+00,-2.333755731579999715e+00,0.000000000000000000e+00
2.384964285000000128e+00,1.511042422459999868e+00,-5.638771610650000987e+00,-5.968419744600000243e+00,1.197254061700000038e+00,3.020934820179999925e+00,-2.419020891190000189e+00,0.000000000000000000e+00
2.390099923000000182e+00,1.468847686940000008e+00,-5.853370054620000040e+00,-5.647163006900000504e+00,1.493818163869999882e+00,3.178139686579999790e+00,-2.511533975599999913e+00,0.000000000000000000e+00
2.394959676000000037e+00,1.341431851860000135e+00,-6.174011875290000617e+00,-5.521717010580000640e+00,1.675209641459999954e+00,3.277274608609999973e+00,-2.617322206499999915e+00,0.000000000000000000e+00
2.399955863000000189e+00,1.009516065239999927e+00,-6.419407608589999370e+00,-5.580649092019999813e+00,1.809679746629999864e+00,3.386521577840000408e+00,-2.733922243120000317e+00,0.000000000000000000e+00
2.405110972000000125e+00,5.737703036460000128e-01,-6.369373119349999612e+00,-5.763147931900000742e+00,1.900561332700000161e+00,3.447825193409999489e+00,-2.856639862059999757e+00,0.000000000000000000e+00
2.410100012000000014e+00,1.173963627050000069e-01,-6.077813600780000769e+00,-6.077315588130001167e+00,1.953376770019999986e+00,3.523582458500000403e+00,-2.976670980450000226e+00,0.000000000000000000e+00
2.414933398000000064e+00,-4.158654780059999889e-01,-5.907827620990000028e+00,-6.586576192859999956e+00,2.013003826140000285e+00,3.583122491840000201e+00,-3.091407775880000042e+00,0.000000000000000000e+00
2.420096782999999974e+00,-8.592708509759999780e-01,-5.679782835469999291e+00,-7.245176879719999796e+00,2.073527336120000175e+00,3.703058719639999996e+00,-3.225625038150000012e+00,0.000000000000000000e+00
2.425098776000000012e+00,-1.438885825530000107e+00,-5.391532295310000222e+00,-8.092783888639999645e+00,2.122283220289999939e+00,3.842320680619999873e+00,-3.309002637859999929e+00,0.000000000000000000e+00
2.429955945000000117e+00,-1.989115277250000036e+00,-4.623263611519999650e+00,-8.795795379630000355e+00,2.232684612269999924e+00,3.967502117159999564e+00,-3.439591407780000498e+00,0.000000000000000000e+00
2.434978870000000128e+00,-2.796012236259999728e+00,-3.866426130049999799e+00,-9.239747353630001214e+00,2.336302042009999802e+00,4.123971462250000108e+00,-3.569699764250000129e+00,0.000000000000000000e+00
2.440094569000000213e+00,-3.821320329390000214e+00,-3.501243156859999761e+00,-9.533892212530000521e+00,2.474479675290000014e+00,4.284768581389999831e+00,-3.695135116580000378e+00,0.000000000000000000e+00
2.445110993000000121e+00,-4.755681492669999955e+00,-3.164215434059999499e+00,-9.723460844659999935e+00,2.629730939870000395e+00,4.447063446040000478e+00,-3.789233684540000091e+00,0.000000000000000000e+00
2.449943504000000161e+00,-5.535722739580000606e+00,-3.040606882300000091e+00,-9.896489845399999652e+00,2.782318592070000207e+00,4.579547405239999591e+00,-3.841326951980000182e+00,0.000000000000000000e+00
2.454940648000000003e+00,-6.381439404720000041e+00,-3.063734367649999957e+00,-1.002598950099999975e+01,2.907372236250000075e+00,4.640168666840000178e+00,-3.877422571180000332e+00,0.000000000000000000e+00
2.459945487000000153e+00,-7.290463297639999674e+00,-2.828004580590000039e+00,-1.007580011840000012e+01,3.004828453060000015e+00,4.698083400729999859e+00,-3.874952316280000364e+00,0.000000000000000000e+00
2.464944800000000047e+00,-8.194188499630000067e+00,-2.499075116299999788e+00,-1.026135074699999983e+01,3.103442668909999647e+00,4.678887844090000137e+00,-3.898322820659999799e+00,0.000000000000000000e+00
2.469939203000000028e+00,-8.995133126109999822e+00,-2.023593300920000004e+00,-1.061900215570000050e+01,3.186209917070000230e+00,4.638840675349999998e+00,-3.910796165469999863e+00,0.000000000000000000e+00
2.475074953000000022e+00,-9.657061496080000751e+00,-1.312294020179999965e+00,-1.103978426650000166e+01,3.277785062790000481e+00,4.544239044190000243e+00,-3.954107046130000302e+00,0.000000000000000000e+00
2.479949382000000035e+00,-1.040171198840000066e+01,-4.417822652800000305e-01,-1.148396011240000014e+01,3.382016181950000089e+00,4.485462665560000062e+00,-3.971135377880000483e+00,0.000000000000000000e+00
2.485089936000000055e+00,-1.118949201289999884e+01,5.392101546569999515e-01,-1.211575111819999861e+01,3.487769126889999960e+00,4.385387420649999868e+00,-3.984623193740000069e+00,0.000000000000000000e+00
2.490096474000000004e+00,-1.205157295279999907e+01,1.537469680010000062e+00,-1.273783321550000025e+01,3.593158006669999960e+00,4.301834106449999418e+00,-4.029906749730000293e+00,0.000000000000000000e+00
2.494955148999999928e+00,-1.324365040180000008e+01,2.307255928760000074e+00,-1.315935883819999930e+01,3.677403211590000609e+00,4.226570129389999764e+00,-4.018807888030000441e+00,0.000000000000000000e+00
2.499955232000000027e+00,-1.453866449359999891e+01,2.738623584870000016e+00,-1.357307524839999857e+01,3.745837926859999722e+00,4.148092746730000613e+00,-3.973658084869999829e+00,0.000000000000000000e+00
2.505095514000000190e+00,-1.580335125170000055e+01,2.690103299590000052e+00,-1.397084005619999836e+01,3.747185468669999686e+00,4.121979713440000026e+00,-3.818111896509999603e+00,0.000000000000000000e+00
2.510089153000000017e+00,-1.669038426210000026e+01,2.585696584179999924e+00,-1.438501122450000125e+01,3.688329458240000136e+00,4.046175003050000107e+00,-3.603049993519999994e+00,0.000000000000000000e+00
2.514956885000000142e+00,-1.742666907710000146e+01,2.380759702520000243e+00,-1.463484406339999921e+01,3.546778440480000238e+00,4.004194259640000197e+00,-3.287024259570000329e+00,0.000000000000000000e+00
2.520108517000000159e+00,-1.817755641799999822e+01,2.633619195820000147e+00,-1.477056186289999928e+01,3.327945232390000285e+00,3.917201757430000431e+00,-2.876005649570000156e+00,0.000000000000000000e+00
2.525109980999999948e+00,-1.891425390550000074e+01,3.382855554629999872e+00,-1.461233412550000033e+01,3.087447404859999800e+00,3.838116168980000076e+00,-2.405757665629999931e+00,0.000000000000000000e+00
2.529931694000000064e+00,-1.947065795420000001e+01,4.514700653209999359e+00,-1.413293966670000046e+01,2.835713863370000087e+00,3.756546974180000387e+00,-1.853608012200000044e+00,0.000000000000000000e+00
2.534910636000000217e+00,-1.976369280599999811e+01,5.733201121930000532e+00,-1.346142922940000020e+01,2.617367267609999715e+00,3.633536100390000190e+00,-1.260000467300000038e+00,0.000000000000000000e+00
2.539914566000000207e+00,-1.999673934539999820e+01,6.933050958449999968e+00,-1.280820614390000145e+01,2.446875095369999809e+00,3.462988615039999996e+00,-5.610737204550000357e-01,0.000000000000000000e+00
2.544913831000000126e+00,-2.034625304029999882e+01,7.563365462020000152e+00,-1.236581542789999943e+01,2.325600624079999790e+00,3.271216154100000217e+00,1.864651888610000252e-01,0.000000000000000000e+00
2.550096444999999878e+00,-2.123045696470000010e+01,7.656189291669999619e+00,-1.209029051380000119e+01,2.220067024229999575e+00,3.001192092900000219e+00,1.032670378679999779e+00,0.000000000000000000e+00
2.554950203999999836e+00,-2.202674645889999994e+01,3.682714407259999878e-01,-1.881738109269999981e+01,8.597666621209999471e-01,2.625605106350000106e+00,1.253113031390000076e+00,0.000000000000000000e+00
2.560101754000000174e+00,-2.805604065110000178e+01,6.253341432600000083e+00,-5.214926605130000503e+00,2.876080274580000151e-01,1.478033304210000010e+00,2.396915435790000437e+00,0.000000000000000000e+00
2.565109410999999895e+00,-2.119879224490000169e+01,4.332638451180000239e+00,-2.325440550879999790e+00,-9.761730432510000721e-01,1.205567479129999953e+00,2.890359640120000240e+00,0.000000000000000000e+00
2.569939592999999967e+00,-2.349700372030000040e+01,7.559623937400000493e+00,-3.371743793510000309e+00,-1.451828122139999788e+00,9.298798441889999378e-01,3.629121541980000032e+00,0.000000000000000000e+00
2.574989040000000173e+00,-2.987283288400000103e+01,9.542905540070000470e+00,-5.610358001590000754e+00,-1.495739698409999985e+00,7.419618964200000999e-01,4.846999168400000002e+00,0.000000000000000000e+00
2.579944459000000023e+00,-2.550218735820000049e+01,1.316089028549999895e+01,-5.928897297030000679e+00,-1.205058336260000029e+00,6.864248514180000260e-01,5.566021442409999409e+00,0.000000000000000000e+00
2.585100844999999925e+00,-2.179754139739999630e+01,1.563473188410000070e+01,-3.132166975629999683e+00,-6.820567250249999214e-01,2.955444455149999761e-01,6.044778347020000275e+00,0.000000000000000000e+00
2.590084785999999806e+00,-2.215559144999999930e+01,1.531702553240000064e+01,-6.764578305839999972e-01,-2.362917661670000113e-01,1.080731377009999938e-01,6.204817295069999794e+00,0.000000000000000000e+00
2.594952208000000038e+00,-2.195129403520000011e+01,1.355188632990000031e+01,-1.355836224789999989e+00,2.455110847950000008e-01,-2.379439324139999978e-01,6.089962005619999452e+00,0.000000000000000000e+00
2.599963581999999995e+00,-2.324623213919999998e+01,1.048401968469999979e+01,-2.041274649690000054e+00,7.708055377010000209e-01,-6.666185855870000454e-01,5.807455539700000280e+00,0.000000000000000000e+00
2.605087853000000120e+00,-2.407318565170000113e+01,1.024209893409999950e+01,-2.609218037279999791e+00,1.295646786690000107e+00,-1.169593214989999908e+00,5.282245159150000369e+00,0.000000000000000000e+00
2.610087442000000202e+00,-2.454019058449999946e+01,6.561670884190000663e+00,-1.774931405429999831e+00,1.346800565719999954e+00,-1.479748606679999856e+00,4.672626495360000298e+00,0.000000000000000000e+00
2.615173271999999827e+00,-2.740233708869999774e+01,-3.207351395950000406e+00,-1.142001692480000052e+01,5.092417001719999892e-01,-1.701763749119999947e+00,4.108366012569999448e+00,0.000000000000000000e+00
2.620106761000000173e+00,-3.162628632479999879e+01,-2.176033307199999811e+01,7.464128988850000646e-01,-1.035870909690000063e+00,-1.757080316540000187e+00,4.252746582030000333e+00,0.000000000000000000e+00
2.625114302000000066e+00,-1.648387501660000254e+01,-2.605410227880000207e+01,-6.387462318269999884e+00,-3.616896152499999850e+00,-5.701577663419999942e-01,4.266077995299999870e+00,0.000000000000000000e+00
2.629958985000000027e+00,-1.068442067650000027e+01,-1.103495129339999936e+00,2.194178123379999956e+00,-7.438747882839999548e+00,3.240807652470000244e-01,3.668133974080000304e+00,0.000000000000000000e+00
2.635095311000000162e+00,-1.488023570510000049e+01,2.023483615379999989e+01,-1.078808563369999973e+01,-9.571189880369999514e+00,3.156888782979999641e-01,2.639631748199999794e+00,0.000000000000000000e+00
2.640101861000000216e+00,-1.085363158030000008e+01,3.950348275839999701e+00,-1.308541565009999985e+01,-9.623446464540000633e+00,7.730978131290000555e-01,8.419802784919999672e-01,0.000000000000000000e+00
2.645103139999999797e+00,-7.758979804059999985e+00,-7.846950348450000057e+00,-3.279207840889999837e+00,-9.368836402889998638e+00,1.434666037560000218e+00,-9.479340165850000388e-02,0.000000000000000000e+00
2.649957860000000220e+00,-2.019696147350000359e+00,1.723431928990000017e+01,-9.954410119450001204e+00,-6.365512371059999452e+00,1.920323848720000059e+00,4.944583773610000121e-01,0.000000000000000000e+00
2.654935887000000161e+00,3.864875101219999998e+00,3.620130642219999828e+01,-1.580951211240000021e+01,-4.198067188259999583e+00,8.783348798749999187e-01,9.153763651849999849e-01,0.000000000000000000e+00
2.659939661000000122e+00,-1.585343191820000053e+00,2.943537903980000081e+01,-2.358955691630000118e+01,-2.457897424700000055e+00,-4.092004001139999958e-01,1.188101410870000096e+00,0.000000000000000000e+00
2.664938831999999813e+00,-4.624140102090000148e+00,1.974383542840000061e+01,-2.281484797039999890e+01,-9.097474813460000309e-01,-1.451198697089999934e+00,8.960853219030000538e-01,0.000000000000000000e+00
2.669933023000000016e+00,-7.575256390819999908e+00,1.333380471999999983e+01,-1.542479617119999880e+01,2.763255266469999763e-03,-1.822680473329999939e+00,2.099654376509999809e-01,0.000000000000000000e+00
2.674954897000000109e+00,-3.812012695079999958e+00,7.040807568820000029e+00,-1.294484865699999965e+01,-6.454315781590000412e-02,-1.269603967669999944e+00,8.083602786060001266e-02,0.000000000000000000e+00
2.680070277000000001e+00,-4.210669556400000180e-01,6.903052272159999614e-01,-1.346409464920000154e+01,-2.258300930259999895e-01,-3.026171028610000202e-01,-2.301443070169999772e-01,0.000000000000000000e+00
2.684950430999999860e+00,4.590162356100000451e-01,-1.936029108829999956e-01,-8.991108692899999255e+00,-5.304738283159999845e-01,5.008272528649999611e-01,-3.671715557580000344e-01,0.000000000000000000e+00
2.689932359000000162e+00,3.582589899209999817e+00,-8.201957818459999494e-01,-1.012089130600000075e+01,-7.308351993559999427e-01,4.884777963160000236e-01,-3.095012903209999888e-01,0.000000000000000000e+00
2.695074609999999815e+00,9.406929966430001289e-02,8.685875453759999143e-01,-8.505448743980000614e+00,-9.218567609790000450e-01,-3.255280107260000166e-02,-7.598865777249999825e-04,0.000000000000000000e+00
2.699941372000000062e+00,-3.738549399469999646e+00,2.235975822399999924e+00,-8.931690289239998748e+00,-8.278754353520000331e-01,-5.153989195820000146e-01,2.870888710020000345e-01,0.000000000000000000e+00
2.705084117999999815e+00,-5.862501455580001242e+00,1.729904953620000185e+00,-8.028865250960000921e+00,-6.829517483710000336e-01,-7.738597989079999406e-01,3.114530146119999787e-01,0.000000000000000000e+00
2.710088612999999924e+00,-5.997034429190000182e+00,1.268521513949999902e+00,-8.667195303199999756e+00,-2.942541241649999639e-01,-8.609197735789999584e-01,2.757153213019999938e-01,0.000000000000000000e+00
2.715083465999999834e+00,-6.681918727330000252e+00,-6.839761703250000213e-01,-1.047726261169999873e+01,-1.665075868370000101e-01,-1.845816373829999857e-01,-3.962081298230000354e-02,0.000000000000000000e+00
2.720092435999999836e+00,-3.817250595740000030e+00,-3.713430667230000481e-01,-9.907817879619999601e+00,-2.660900652409999845e-01,-1.937358677389999784e-01,-6.973887979980000762e-02,0.000000000000000000e+00
2.724936902000000050e+00,-5.679560132629999814e+00,2.107816621609999996e-01,-9.587311668029999012e+00,-4.207212030889999621e-01,7.251188158989999022e-02,-8.897266350690000505e-03,0.000000000000000000e+00
2.730089840999999851e+00,-4.067891828469999638e+00,1.181850873169999927e+00,-1.072344452689999983e+01,-6.116039752959999687e-01,2.597429752350000065e-01,3.031018674370000165e-01,0.000000000000000000e+00
2.735088145000000193e+00,-2.741884340229999939e+00,2.972798251449999984e+00,-9.574227145529999206e+00,-5.548812150959999689e-01,2.543463110920000103e-01,3.950159251690000262e-01,0.000000000000000000e+00
2.739956407999999843e+00,-2.991715425620000257e+00,2.948370789420000193e+00,-1.043751629219999977e+01,-3.870216310019999884e-01,1.867547482250000168e-01,3.181567490100000173e-01,0.000000000000000000e+00
2.745084095999999807e+00,-2.414740444190000446e+00,2.178668273420000023e+00,-1.000951767419999960e+01,-1.562040895219999892e-01,7.523341476919999382e-02,1.528397947550000080e-01,0.000000000000000000e+00
2.749931483000000121e+00,-1.818161621480000045e+00,1.684521358930000101e+00,-9.920027372849999026e+00,8.155215531590000178e-02,-3.348573297259999776e-02,3.680612519380000586e-02,0.000000000000000000e+00
2.754905087000000030e+00,-1.993875038999999960e+00,2.236556691029999655e+00,-1.020277463940000118e+01,1.523993909359999954e-01,-1.454525738949999925e-01,-1.722390390929999862e-02,0.000000000000000000e+00
2.759915318000000006e+00,-2.943523057120000175e+00,2.676058407619999802e+00,-1.034596964290000010e+01,1.493885666129999845e-01,-1.821008622649999964e-01,-1.675012148919999971e-02,0.000000000000000000e+00
2.764906199999999981e+00,-2.886258032109999760e+00,2.230570748489999922e+00,-1.010789037009999980e+01,1.272015273569999938e-01,-1.464788466689999902e-01,-1.235444447960000079e-03,1.000000000000000000e+00
2.770089002999999828e+00,-3.429181836999999788e+00,1.752076307279999856e+00,-9.417542545860001724e+00,1.640235781670000004e-01,-1.559590995309999839e-01,3.831568872559999988e-03,1.000000000000000000e+00
2.774992673999999937e+00,-2.983626227190000257e+00,8.393918460289999661e-01,-9.530354686049999913e+00,2.037818282840000161e-01,-6.363210082049999827e-02,3.329780697819999941e-02,1.000000000000000000e+00
2.779907738999999989e+00,-2.121570860059999841e+00,1.062741386409999933e+00,-1.008188849839999968e+01,2.176592350010000121e-01,-1.012836769219999933e-01,-2.379268873480000056e-03,1.000000000000000000e+00
2.784904828000000165e+00,-2.293058622709999828e+00,1.252339902220000134e+00,-1.023125020780000050e+01,2.769939005370000151e-01,-1.474666148420000211e-01,-3.288106247779999658e-02,1.000000000000000000e+00
2.790077020000000019e+00,-2.361307252420000058e+00,1.452931886539999828e+00,-1.031051137600000089e+01,2.755962610240000332e-01,-2.230409085750000298e-01,-6.543009728189999596e-02,1.000000000000000000e+00
2.794948428000000096e+00,-2.420068068950000040e+00,7.962999424740000443e-01,-1.034322940429999882e+01,2.841554284099999661e-01,-2.421462684870000215e-01,-1.014946773650000078e-01,1.000000000000000000e+00
2.799937223999999780e+00,-2.537057933209999838e+00,7.245966422660000683e-01,-1.026827265520000054e+01,2.878611087800000412e-01,-2.642880678180000165e-01,-1.070425063370000068e-01,1.000000000000000000e+00
2.804944260000000078e+00,-2.190945863459999643e+00,8.150122417280000198e-01,-1.054107369729999988e+01,3.023736178870000124e-01,-2.936452627180000108e-01,-1.196866258979999986e-01,0.000000000000000000e+00
2.810084740000000192e+00,-2.350766569190000155e+00,5.387998933559999815e-01,-1.062362923100000067e+01,3.315947651860000067e-01,-3.524435460570000123e-01,-1.160248890520000076e-01,0.000000000000000000e+00
2.814943749000000217e+00,-1.988866709320000092e+00,-8.472736122550001206e-03,-1.066629348370000052e+01,3.372478783129999602e-01,-4.450652003289999881e-01,-1.285872906449999908e-01,0.000000000000000000e+00
2.820056069000000054e+00,-2.197134196699999986e+00,3.229449191190000151e-02,-1.071311953230000036e+01,3.026497960089999939e-01,-4.919264018539999950e-01,-1.387738138440000046e-01,0.000000000000000000e+00
2.824961500000000125e+00,-2.386892506190000152e+00,1.616817320960000082e-01,-1.082605033039999931e+01,3.037746548649999934e-01,-5.934749841690000194e-01,-1.533805876969999982e-01,0.000000000000000000e+00
2.829949179000000203e+00,-2.987617927180000077e+00,9.696555448209999151e-01,-1.034244497589999945e+01,3.115180134769999776e-01,-6.433920860289999988e-01,-1.585670560599999890e-01,1.000000000000000000e+00
2.834931377000000197e+00,-2.078686534850000101e+00,8.567295689949999682e-01,-1.103202181579999852e+01,3.333404064180000015e-01,-7.168106436730000697e-01,-1.328508108850000036e-01,0.000000000000000000e+00
2.839941311000000024e+00,-2.295307716810000009e+00,5.928111407349999640e-01,-1.124547985759999946e+01,3.396176099780000013e-01,-8.051608204839999505e-01,-1.103291064499999918e-01,0.000000000000000000e+00
2.844949163999999975e+00,-2.223638318879999964e+00,5.771903046890000111e-01,-1.128115089039999930e+01,3.716932535169999996e-01,-8.825163841249998864e-01,-1.448481380939999896e-01,0.000000000000000000e+00
2.849930146999999803e+00,-1.979453568809999897e+00,-2.618520520490000281e-01,-1.146541907800000004e+01,4.500468373300000047e-01,-1.055870413779999906e+00,-1.252747327089999974e-01,0.000000000000000000e+00
2.854936766999999875e+00,-1.366476276750000052e+00,-1.273330247670000082e-01,-1.163409105260000054e+01,4.735497534279999865e-01,-1.153281569480000046e+00,-1.329663693900000054e-01,0.000000000000000000e+00
2.860099937000000203e+00,-1.222648382180000048e+00,5.743235170820000235e-01,-1.198678922280000059e+01,5.424650311469999542e-01,-1.337232828139999885e+00,-1.207137554880000074e-01,0.000000000000000000e+00
2.865094988000000065e+00,-1.582672072910000116e+00,-7.664584925699999829e-01,-1.219582944809999958e+01,5.210239887240000201e-01,-1.511955142020000142e+00,-1.451003104450000192e-01,0.000000000000000000e+00
2.869923977000000015e+00,-1.075083273850000021e+00,-1.291216599229999984e+00,-1.213713994319999934e+01,4.612174332139999944e-01,-1.701756477360000019e+00,-1.549297571179999999e-01,0.000000000000000000e+00
2.874945187999999874e+00,-1.138603925179999976e+00,-1.174177269800000145e+00,-1.251474576010000028e+01,3.275255262849999793e-01,-1.864143729209999822e+00,-1.531974971289999932e-01,0.000000000000000000e+00
2.879943686999999919e+00,-1.398023507660000053e+00,-1.501457432520000079e+00,-1.265316989599999964e+01,2.323054075240000016e-01,-2.073728322979999650e+00,-1.600634455680000068e-01,0.000000000000000000e+00
2.885087240999999914e+00,-8.228424238969999083e-01,-1.574048475340000142e+00,-1.269221712720000106e+01,1.883812099700000187e-01,-2.271761655809999780e+00,-1.604070961480000002e-01,0.000000000000000000e+00
2.889949021000000062e+00,-6.402339861670000021e-01,-9.814664671889999914e-01,-1.256411330989999975e+01,1.366648524999999892e-01,-2.490904808040000251e+00,-1.224135160449999898e-01,0.000000000000000000e+00
2.895087825000000059e+00,-1.537556627639999896e+00,-4.348268201189999793e-01,-1.163652617079999985e+01,1.185324564580000073e-01,-2.651412963869999917e+00,-9.877236932520000456e-02,0.000000000000000000e+00
2.900084791999999911e+00,-1.556224357100000066e+00,-4.213217341180000575e-02,-1.189334170829999948e+01,1.324706375599999930e-01,-2.875210046769999916e+00,-6.180928274989999638e-02,0.000000000000000000e+00
2.904967629000000162e+00,-1.373999657990000012e+00,3.045141676189999994e-02,-1.144859887609999838e+01,1.268489807840000039e-01,-3.036867141719999719e+00,-7.638582587239999000e-02,0.000000000000000000e+00
2.910079474999999860e+00,-1.652979388720000165e+00,5.730654067789999750e-01,-1.125309617779999982e+01,1.598367244009999966e-01,-3.221504688259999583e+00,-7.184949517249999973e-02,0.000000000000000000e+00
2.915077275999999884e+00,-1.919758978559999774e+00,1.332209411620000061e+00,-1.122599072869999937e+01,1.586287468669999867e-01,-3.396051883700000218e+00,-9.868753701449999027e-02,0.000000000000000000e+00
2.920095170000000184e+00,-1.839885523640000242e+00,1.531983649810000125e+00,-1.121439732160000169e+01,1.684122979640000073e-01,-3.555805206300000076e+00,-1.385543644429999832e-01,0.000000000000000000e+00
2.925103964999999917e+00,-1.588788363839999995e+00,1.546009837079999949e+00,-1.141389113540000011e+01,2.025944739579999820e-01,-3.726801395419999885e+00,-1.730093657969999921e-01,0.000000000000000000e+00
2.930078085999999971e+00,-1.061310038430000047e+00,1.563333458450000046e+00,-1.192790098049999870e+01,2.333479076619999759e-01,-3.899150371549999772e+00,-1.838456839319999869e-01,0.000000000000000000e+00
