t,ax,ay,az,wx,wy,wz,zv
5.075806000000000415e-03,-2.469528119300000046e+00,5.426621582739999949e-01,-9.382974505830000922e+00,6.126857828350000881e-03,1.088096760210000014e-02,1.680826302619999870e-03,1.000000000000000000e+00
1.004189400000000086e-02,-2.638718272529999798e+00,6.234874340270000204e-01,-9.466420266280000106e+00,1.295420061800000092e-02,-1.332584535700000140e-03,-4.331709817050000133e-03,1.000000000000000000e+00
1.521388899999999954e-02,-2.529431676120000194e+00,5.748527651199999422e-01,-9.408248647819998922e+00,1.416239771060000046e-03,1.418088562789999833e-02,-1.330718398090000032e-02,1.000000000000000000e+00
2.005874900000000072e-02,-2.525458388569999713e+00,6.255162364410000730e-01,-9.461298685479999193e+00,-9.084843099120000834e-03,4.218232352290000593e-04,-2.091694250699999841e-02,1.000000000000000000e+00
2.523888000000000173e-02,-2.619328512400000086e+00,6.317551308309999891e-01,-9.446862748370000062e+00,-3.039984148929999867e-04,1.793850911780000071e-03,-4.387738183140000095e-03,1.000000000000000000e+00
3.006812299999999868e-02,-2.599667534119999956e+00,6.612494477970000117e-01,-9.471192302989999590e+00,1.035839668479999857e-03,9.890895336870000887e-03,6.597346160559999784e-03,1.000000000000000000e+00
3.529692699999999878e-02,-2.513925771690000310e+00,6.778424168100001257e-01,-9.447240349510000357e+00,5.194812547419999996e-03,7.367302663620000150e-03,1.185956597330000035e-02,1.000000000000000000e+00
4.023173099999999974e-02,-2.467034256649999868e+00,6.600280893090000323e-01,-9.458054588989998734e+00,1.181877870109999951e-02,-1.949881762270000082e-02,-2.402855269609999872e-02,1.000000000000000000e+00
4.514469399999999910e-02,-2.569539522359999495e+00,6.423534625389999420e-01,-9.443290735099999722e+00,-5.317145260050000532e-04,5.989742465320000570e-03,-1.327020861209999951e-02,1.000000000000000000e+00
5.023587000000000191e-02,-2.555803842480000032e+00,6.282135127010000097e-01,-9.429920965920000953e+00,-1.094708451999999938e-03,6.240296177569998846e-03,-1.205266825849999821e-02,1.000000000000000000e+00
5.522163699999999703e-02,-2.628544376779999858e+00,6.317139220380000308e-01,-9.456091179970000482e+00,-6.772520719099999137e-04,1.130365766579999841e-02,3.672678023580000332e-03,1.000000000000000000e+00
6.023465100000000017e-02,-2.536407652609999896e+00,6.266597073879999202e-01,-9.470571540739998184e+00,1.163174305110000091e-02,-8.419759571550000654e-03,-3.240334335709999826e-03,1.000000000000000000e+00
6.511844999999999439e-02,-2.545197400530000209e+00,6.730564977079999123e-01,-9.461908341810001843e+00,-2.556419372559999917e-02,5.012550391260000258e-03,3.872661385690000235e-03,1.000000000000000000e+00
7.021452400000000038e-02,-2.506538584049999852e+00,6.767242264349999648e-01,-9.448919680899999562e+00,1.051239110529999903e-02,4.812850616869999987e-03,-6.844945717600000971e-03,1.000000000000000000e+00
7.529145199999999483e-02,-2.530124919079999923e+00,6.586094546819999396e-01,-9.482077269619999527e+00,7.671627681699999708e-03,1.392757706340000054e-02,-7.561342325060001028e-03,1.000000000000000000e+00
8.021763199999999705e-02,-2.549539229120000083e+00,6.614982349269999951e-01,-9.419155241760000408e+00,1.071257237340000022e-02,4.557571373880000588e-04,6.612159777429999982e-03,1.000000000000000000e+00
8.536514900000000128e-02,-2.540509534969999983e+00,6.052750471190000425e-01,-9.470233102569999062e+00,-2.213288657370000162e-02,1.285311998800000091e-03,-1.435251906510000112e-03,1.000000000000000000e+00
9.025438600000000589e-02,-2.554842888490000075e+00,6.004200083030000190e-01,-9.495880754039999871e+00,-9.681907831689998785e-04,-9.164514951409999735e-03,-1.201065070930000013e-02,1.000000000000000000e+00
9.509829899999999725e-02,-2.553554602240000193e+00,6.589001812570000061e-01,-9.461345447230000261e+00,5.256715696310000456e-03,1.154054049399999907e-02,-8.680647239090000938e-03,1.000000000000000000e+00
1.002512319999999957e-01,-2.525887135380000093e+00,6.663544427859999786e-01,-9.419632796140000153e+00,7.059297058729999998e-03,-2.563943155110000316e-03,-1.323787122960000048e-02,1.000000000000000000e+00
1.050529050000000020e-01,-2.558179631699999845e+00,6.612544892989999923e-01,-9.465662725910000574e+00,1.131217088549999958e-02,-1.683929190040000037e-02,-9.368078783149999880e-03,1.000000000000000000e+00
1.100647800000000009e-01,-2.577465639190000157e+00,6.023301162409999687e-01,-9.420974273880000638e+00,1.266289385969999971e-03,9.333764202889999542e-03,-1.865669898690000203e-02,1.000000000000000000e+00
1.150943990000000000e-01,-2.529667530699999833e+00,5.769441479089999492e-01,-9.448420499210000045e+00,1.173244137320000012e-02,9.420879650860000286e-04,-2.816005609929999806e-02,1.000000000000000000e+00
1.202670500000000003e-01,-2.607724876109999812e+00,6.056938935860000095e-01,-9.434820428400000125e+00,2.250047400590000218e-03,1.563640497619999889e-02,-9.811754338440000639e-03,1.000000000000000000e+00
1.252559679999999953e-01,-2.592780989480000020e+00,5.987529884059999974e-01,-9.417682246600000084e+00,-8.985440246760000374e-03,2.201589522880000038e-03,-5.828289315100000298e-03,1.000000000000000000e+00
1.302600110000000089e-01,-2.520407827190000116e+00,5.400811653379999910e-01,-9.439167517689998732e+00,8.784938603639999913e-03,3.064431017260000126e-03,-9.975248947740000122e-03,1.000000000000000000e+00
1.351021219999999912e-01,-2.529443658819999996e+00,5.852430070349999847e-01,-9.444215448730000517e+00,4.898812621829999603e-03,1.669813180339999904e-03,-1.037105265999999949e-02,1.000000000000000000e+00
1.400765389999999999e-01,-2.575264329749999970e+00,6.498671261049999703e-01,-9.421597958730000499e+00,-1.772167347369999965e-02,1.081353332849999821e-02,-1.551282033320000239e-02,1.000000000000000000e+00
1.450651209999999913e-01,-2.593044608850000099e+00,6.161284495669999695e-01,-9.458104273360000036e+00,1.394528802479999899e-02,-5.263888742769998923e-04,5.162670742720000365e-03,1.000000000000000000e+00
1.502692599999999878e-01,-2.520733990400000124e+00,6.376851784670000134e-01,-9.445990641710000801e+00,-1.628033444290000187e-02,3.220794023949999883e-03,-1.693594455719999933e-02,1.000000000000000000e+00
1.552344240000000097e-01,-2.645156196619999900e+00,6.083936905960000141e-01,-9.414547455700001066e+00,1.139194937420000080e-04,1.085886731739999986e-02,-1.948322169479999911e-04,1.000000000000000000e+00
1.602587099999999987e-01,-2.567594233509999935e+00,6.197685596349999937e-01,-9.454239414619999948e+00,3.603517077859999789e-03,1.607406511899999932e-02,2.051360905170000054e-03,1.000000000000000000e+00
1.651047710000000113e-01,-2.538367554509999735e+00,6.151982560440000247e-01,-9.427151501210000006e+00,-5.340985488149999939e-03,1.692832633849999935e-02,-3.893562592570000164e-03,1.000000000000000000e+00
1.700933149999999949e-01,-2.551210377209999880e+00,6.306028920560000639e-01,-9.435499058319999577e+00,-1.044099032880000007e-02,1.946456730370000124e-02,-5.291629582640000433e-03,1.000000000000000000e+00
1.752697470000000035e-01,-2.571164200950000200e+00,6.447371428050000519e-01,-9.450026765360000525e+00,-6.463814061139999765e-04,2.315835794430000111e-03,5.408713128420000217e-03,1.000000000000000000e+00
1.800644630000000079e-01,-2.494649993329999926e+00,6.544006778809999814e-01,-9.428908574010000265e+00,2.011538017540000049e-03,-5.671336315569999731e-03,-1.791222207250000101e-02,1.000000000000000000e+00
1.851089800000000063e-01,-2.569842012440000101e+00,6.472911381370000106e-01,-9.425309672730000088e+00,1.511567179110000214e-02,1.843849383290000268e-02,-2.336557023229999912e-03,1.000000000000000000e+00
1.902770599999999979e-01,-2.499404494379999786e+00,6.622763796920000390e-01,-9.468049328790000274e+00,-1.410252647470000001e-03,1.784992590550000049e-02,-7.361610885710000336e-03,1.000000000000000000e+00
1.951164320000000063e-01,-2.499569037299999685e+00,7.050779219989999902e-01,-9.468482459510001448e+00,7.297296542670000073e-03,8.521101437510000126e-03,-1.012203842399999991e-02,1.000000000000000000e+00
2.000955490000000114e-01,-2.544564655579999890e+00,6.825509598270000922e-01,-9.475576801679999051e+00,-4.585592541840000265e-03,1.620840281250000153e-02,-9.047312662010000700e-03,1.000000000000000000e+00
2.050605719999999965e-01,-2.529210142319999743e+00,7.012876628709999727e-01,-9.499119589830000265e+00,-4.883649293329999502e-03,7.068758830430000445e-03,-2.870866795999999551e-03,1.000000000000000000e+00
2.102220979999999961e-01,-2.531475164640000219e+00,6.732588153470000503e-01,-9.449297282039999857e+00,4.923444939780000258e-04,2.958511468019999965e-04,-7.900758646430000587e-03,1.000000000000000000e+00
2.151281200000000060e-01,-2.549148183979999871e+00,6.477961650490000611e-01,-9.507413370930001051e+00,7.518105674539999998e-03,-4.699037875980000001e-03,-6.651840638369999233e-03,1.000000000000000000e+00
2.202833130000000084e-01,-2.490830727309999659e+00,7.075310142399999780e-01,-9.462362515319998835e+00,1.040666457270000150e-02,1.506621763110000019e-02,-1.688646152620000215e-02,1.000000000000000000e+00
2.251101859999999899e-01,-2.512170160190000168e+00,6.301741452500000396e-01,-9.467733102440000437e+00,-7.478196639569999714e-03,1.247287448499999861e-02,-1.688715815539999776e-02,1.000000000000000000e+00
2.302584779999999887e-01,-2.521993342810000094e+00,6.147141988550000047e-01,-9.466491577950000291e+00,-1.641925983129999961e-02,3.118738299239999772e-03,-1.078648678959999961e-02,1.000000000000000000e+00
2.350803780000000065e-01,-2.510058282609999747e+00,6.371495372200000062e-01,-9.473465508620000364e+00,-8.290351368490000289e-03,-3.078976413239999706e-03,4.045020323249999550e-03,1.000000000000000000e+00
2.400534549999999989e-01,-2.380879237249999836e+00,6.574296703130000363e-01,-9.462007126010000491e+00,-1.021822541949999989e-02,1.397814834489999932e-03,-4.130593314769999413e-02,1.000000000000000000e+00
2.451012840000000026e-01,-2.583354404960000128e+00,5.808868211200000076e-01,-9.409926810159999988e+00,-3.371509257699999759e-03,-2.455130405720000117e-02,-2.912407740950000157e-02,1.000000000000000000e+00
2.500641960000000164e-01,-2.517114338600000334e+00,5.997587313830000655e-01,-9.425754493889998642e+00,-1.590385288000000300e-02,-8.121275343000000646e-03,-4.752761125559999689e-02,1.000000000000000000e+00
2.550866769999999839e-01,-2.560901457880000009e+00,6.133089351670000244e-01,-9.368808617830000074e+00,-4.070661496370000382e-03,-5.462202243510000561e-03,-3.975721448659999546e-02,1.000000000000000000e+00
2.600563479999999927e-01,-2.634053203330000148e+00,6.288399740360000045e-01,-9.389567328220000064e+00,-9.776177816089999875e-03,-6.474218331280000294e-03,-2.997672930359999641e-02,1.000000000000000000e+00
2.652458569999999738e-01,-2.578584998600000233e+00,5.227526851239999717e-01,-9.395026178150001073e+00,-7.216797675939999775e-03,-8.464654907579999277e-03,-2.312764339149999890e-02,1.000000000000000000e+00
2.701295189999999846e-01,-2.559617555550000034e+00,5.355921468230000482e-01,-9.428176752600000654e+00,-1.294672768560000027e-02,5.563786253329999591e-03,-3.198911994700000261e-02,1.000000000000000000e+00
2.753020199999999806e-01,-2.593994456919999969e+00,5.925048512650000765e-01,-9.438854798480001307e+00,-1.179647538810000076e-02,2.074102172630000115e-03,-1.067310944200000090e-02,1.000000000000000000e+00
2.800768550000000134e-01,-2.539948101699999850e+00,6.627189358280000109e-01,-9.426796111899999886e+00,-2.524851448830000081e-02,1.342893764379999785e-02,-7.168469484899999723e-03,1.000000000000000000e+00
2.851095229999999758e-01,-2.517642746390000408e+00,7.091686984439999897e-01,-9.428874671739999158e+00,-1.948714070019999869e-02,1.577788218860000022e-02,-2.624455839400000046e-02,1.000000000000000000e+00
2.900464560000000080e-01,-2.562540164990000147e+00,7.361112120360000510e-01,-9.466759288980000520e+00,-1.595667190849999958e-02,-6.506985519079999973e-04,-1.006302051249999968e-02,1.000000000000000000e+00
2.951020939999999815e-01,-2.548708623520000049e+00,7.531755248879999920e-01,-9.426966792289999120e+00,1.476155011910000158e-03,5.562000907959999824e-03,-1.049677375700000005e-02,1.000000000000000000e+00
3.000411669999999975e-01,-2.531760411330000071e+00,7.079667022429999568e-01,-9.427847082260001343e+00,-2.185644581909999828e-03,3.596289316189999873e-03,-1.933431252840000364e-02,1.000000000000000000e+00
3.052456499999999795e-01,-2.544561440709999900e+00,6.390244642469999903e-01,-9.421458257999999475e+00,2.852292265739999645e-03,3.016602480780000185e-03,-2.037296630440000103e-02,1.000000000000000000e+00
3.101761690000000016e-01,-2.581857152140000000e+00,5.651633284179999883e-01,-9.448578320119999319e+00,5.241745384409999972e-05,1.164590381090000078e-02,-1.951258257029999874e-02,1.000000000000000000e+00
3.150908040000000021e-01,-2.591972303439999958e+00,5.807114645530000452e-01,-9.439119002380000012e+00,7.785156834869999196e-03,1.459753373640000065e-03,-1.396525651220000171e-02,1.000000000000000000e+00
3.202491700000000274e-01,-2.557267193029999941e+00,5.936758678050000348e-01,-9.447917810379999892e+00,1.959986984730000166e-03,-3.612949512900000097e-03,-1.991759799420000226e-02,1.000000000000000000e+00
3.251315089999999852e-01,-2.534275901280000021e+00,6.398171489939999956e-01,-9.457914303739999085e+00,1.664862618779999921e-03,8.005472831429999089e-03,-1.465508528049999995e-02,1.000000000000000000e+00
3.302718479999999790e-01,-2.590939745530000060e+00,6.331341640990000297e-01,-9.437699783230000250e+00,1.202399493199999983e-03,-9.208653122190000109e-03,-2.018108218909999904e-02,1.000000000000000000e+00
3.351041300000000001e-01,-2.607660578700000009e+00,6.663511548499999604e-01,-9.444163426290000274e+00,2.610338851809999947e-03,5.629927851260000705e-03,-1.264799013730000081e-02,1.000000000000000000e+00
3.400752060000000188e-01,-2.538437697130000004e+00,6.676699823639999920e-01,-9.419787109919999679e+00,1.337049528959999983e-02,1.056867744770000062e-02,-2.876840718090000262e-02,1.000000000000000000e+00
3.452618820000000199e-01,-2.567027247279999980e+00,6.651365183640000067e-01,-9.428746076919999553e+00,3.025579731910000084e-03,1.540796598419999844e-03,-1.936860755090000219e-02,1.000000000000000000e+00
3.501852189999999920e-01,-2.615933024749999891e+00,6.415693264239999971e-01,-9.423554938019998772e+00,1.967465318740000205e-02,1.620632968839999868e-02,-1.022959500550000081e-02,1.000000000000000000e+00
3.550885590000000258e-01,-2.541727970850000240e+00,6.368670670170000214e-01,-9.405270508790000150e+00,1.050129253419999908e-02,4.966091364619999726e-03,-2.429744973780000039e-02,1.000000000000000000e+00
3.600938069999999880e-01,-2.543870535840000002e+00,5.974971065940000159e-01,-9.409245257639998528e+00,2.582494169469999948e-03,1.154276728629999998e-02,-2.540079504250000383e-02,1.000000000000000000e+00
3.652661649999999760e-01,-2.577553901990000007e+00,4.977518801849999952e-01,-9.397254960119999723e+00,1.125123235400000065e-03,1.578276976940000062e-02,-1.867549680170000129e-02,1.000000000000000000e+00
3.702233609999999731e-01,-2.555999072790000159e+00,4.857075143869999945e-01,-9.420601348910000894e+00,3.334663342679999691e-03,3.939691931010000370e-03,-3.039163723590000005e-02,1.000000000000000000e+00
3.751219359999999892e-01,-2.609708743400000142e+00,5.689123787529999365e-01,-9.431626600799999594e+00,1.553415204400000228e-03,3.281615301969999926e-02,-2.015064843000000105e-02,1.000000000000000000e+00
3.800839249999999891e-01,-2.617133340449999679e+00,5.914313402809999731e-01,-9.450221995669998876e+00,1.007739920170000122e-02,3.727846080440000084e-03,-1.756254397329999953e-02,1.000000000000000000e+00
3.850229760000000168e-01,-2.531932845280000066e+00,6.341295318119999358e-01,-9.435839834580001195e+00,1.900910283439999999e-03,1.866961456840000172e-02,-2.326761186120000074e-02,1.000000000000000000e+00
3.900763500000000161e-01,-2.532625503720000282e+00,6.518157028890000371e-01,-9.448288981779999318e+00,6.399577483529999070e-03,1.095224730669999876e-02,-2.178249508140000026e-02,1.000000000000000000e+00
3.953029299999999968e-01,-2.568480953219999918e+00,5.962412978459999957e-01,-9.425342990479999017e+00,1.746431551870000071e-02,1.874749921259999744e-02,-2.073974721130000115e-02,1.000000000000000000e+00
4.001792989999999883e-01,-2.548257080359999982e+00,6.567310935899999258e-01,-9.435978950790000042e+00,8.737651631240000299e-03,2.463993430140000440e-02,-1.854422129690000073e-02,1.000000000000000000e+00
4.052558490000000013e-01,-2.516760118330000129e+00,5.926148144449999711e-01,-9.406816569189999200e+00,1.531031820920000092e-02,3.489146009090000194e-02,-1.275852695110000004e-02,1.000000000000000000e+00
4.100517690000000104e-01,-2.482750588960000115e+00,4.986396958699999549e-01,-9.411815984910001376e+00,1.903669349850000206e-02,2.752505429090000219e-02,-2.936305291950000104e-02,1.000000000000000000e+00
4.152991739999999932e-01,-2.603879598859999867e+00,6.809335877590000363e-01,-9.411822999169999093e+00,3.485138714309999469e-02,1.008091773839999913e-02,-2.785698510709999978e-02,1.000000000000000000e+00
4.202818260000000250e-01,-2.561070969220000215e+00,7.378416890899999192e-01,-9.413622157549999869e+00,1.665379106999999997e-02,3.138739988209999360e-02,-2.391486056150000233e-02,1.000000000000000000e+00
4.253038849999999926e-01,-2.487446637829999752e+00,6.433597900370000566e-01,-9.455905302010000568e+00,1.374437194320000076e-02,-4.718390759079999636e-03,-3.639196977019999724e-02,1.000000000000000000e+00
4.302742969999999723e-01,-2.618013630409999681e+00,5.796693716210000735e-01,-9.418622742320000185e+00,2.088340185579999966e-02,2.161676064129999797e-02,-2.120079845190000339e-02,1.000000000000000000e+00
4.350675840000000072e-01,-2.580129305440000298e+00,5.390229615220000214e-01,-9.445537052729999772e+00,2.170850895349999907e-02,2.002315968279999928e-02,-2.935675345359999716e-02,1.000000000000000000e+00
4.400823680000000016e-01,-2.600800045279999750e+00,5.165500676249999978e-01,-9.419134783489999663e+00,2.230176329609999744e-02,2.043598890299999984e-02,-1.248299330470000086e-02,1.000000000000000000e+00
4.451160820000000240e-01,-2.559794957940000337e+00,6.546089138039999922e-01,-9.412757649680001393e+00,2.701949328179999860e-02,2.239815145730000151e-02,-2.024887129659999965e-02,1.000000000000000000e+00
4.502524949999999748e-01,-2.552357793680000153e+00,5.866667562280000192e-01,-9.431218019999999314e+00,2.024831809100000046e-02,2.293889410790000277e-02,-3.421908617020000265e-02,1.000000000000000000e+00
4.550906849999999948e-01,-2.507684831470000208e+00,5.900409088359999110e-01,-9.424919212110001610e+00,1.948503591119999864e-02,3.622902557250000377e-02,-3.554088994860000322e-02,1.000000000000000000e+00
4.602907680000000168e-01,-2.560411920790000462e+00,6.155817024040000085e-01,-9.382915469120000296e+00,2.415960654620000203e-02,1.830434240400000134e-02,-3.838783875110000215e-02,1.000000000000000000e+00
4.651201649999999743e-01,-2.576556999909999757e+00,5.583905463470000274e-01,-9.408899805199999022e+00,3.350999206300000338e-02,2.054955437780000074e-02,-5.119446292519999608e-02,1.000000000000000000e+00
4.702745959999999892e-01,-2.559353059390000240e+00,5.319061883190000506e-01,-9.278401786199999890e+00,1.752378977840000213e-02,2.360748499629999886e-02,-3.621047362690000410e-02,1.000000000000000000e+00
4.750927560000000049e-01,-2.339360355159999738e+00,4.084830396050000423e-01,-9.317920726639998819e+00,3.320175036790000422e-02,4.203873872760000019e-02,-5.269872397180000445e-02,1.000000000000000000e+00
4.802811089999999838e-01,-2.565076113209999953e+00,5.031455924550000125e-01,-9.452696861350000646e+00,2.745199948549999908e-02,3.753279149530000525e-02,-4.990730434659999826e-02,1.000000000000000000e+00
4.850965440000000184e-01,-2.521656950459999713e+00,5.627416907610000019e-01,-9.414272730409999568e+00,1.027573924510000007e-02,2.175630815329999967e-02,-3.944055736060000233e-02,1.000000000000000000e+00
4.900815889999999841e-01,-2.429795097720000019e+00,8.000316763479999871e-01,-9.454994032380000135e+00,2.007786929609999688e-02,1.623633876440000109e-02,-4.036308452489999893e-02,1.000000000000000000e+00
4.951055799999999896e-01,-2.484846684459999899e+00,9.533071982190000071e-01,-9.500738715469999818e+00,1.456034276629999957e-02,1.634250022470000105e-02,-4.618101194500000284e-02,1.000000000000000000e+00
5.000948629999999451e-01,-2.485507194199999770e+00,9.679469873370000199e-01,-9.461274720080000478e+00,9.403008734810000199e-04,3.432528302070000231e-02,-5.513795837759999374e-02,1.000000000000000000e+00
5.052016830000000125e-01,-2.552345226449999949e+00,8.659849616620000079e-01,-9.438007826269998901e+00,1.719892211259999720e-02,2.763469703499999916e-02,-4.851751774550000507e-02,1.000000000000000000e+00
5.100926279999999924e-01,-2.467973291069999853e+00,6.347423299480000614e-01,-9.336391033830000907e+00,3.093537129460000035e-02,3.956835344430000706e-02,-5.953240022059999581e-02,1.000000000000000000e+00
5.150719190000000447e-01,-2.626179693470000132e+00,6.522348050840000022e-01,-9.422743037120000054e+00,5.492724478239999902e-02,1.215919945389999993e-02,-4.661341384050000231e-02,1.000000000000000000e+00
5.202860700000000449e-01,-2.577893801470000135e+00,5.389878536759999950e-01,-9.451730646669998848e+00,5.120850726959999544e-02,3.391036391260000143e-02,-5.865888670089999812e-02,1.000000000000000000e+00
5.253109249999999841e-01,-2.587774267229999925e+00,5.629139055230000244e-01,-9.421877944720000286e+00,5.028762295839999535e-02,3.312502056359999808e-02,-4.835213720800000253e-02,1.000000000000000000e+00
5.302602650000000084e-01,-2.516575993940000089e+00,6.027587899819999429e-01,-9.475718255980000393e+00,5.424756556750000291e-02,2.229442819949999793e-02,-5.579533427950000152e-02,1.000000000000000000e+00
5.351382860000000186e-01,-2.566410576690000500e+00,5.764954542929999759e-01,-9.491867426749999836e+00,4.844763502480000511e-02,2.682874165479999864e-02,-4.417319595810000055e-02,1.000000000000000000e+00
5.400769829999999549e-01,-2.371777062380000078e+00,5.417037250380000168e-01,-9.466040327050000869e+00,5.943121761080000232e-02,3.583827987309999574e-02,-5.759726837280000622e-02,1.000000000000000000e+00
5.451021510000000347e-01,-2.517655605869999924e+00,5.747008259610000280e-01,-9.549950782399999838e+00,5.767025798559999999e-02,3.307618200779999934e-02,-5.627809464930001032e-02,1.000000000000000000e+00
5.502718610000000288e-01,-2.431252018529999948e+00,5.638650322360000411e-01,-9.531928803499999603e+00,6.551612168550000059e-02,3.206894919279999756e-02,-5.820155516269999441e-02,1.000000000000000000e+00
5.551260230000000240e-01,-2.352590423609999704e+00,6.841818489650001167e-01,-9.618415246819999709e+00,6.389497965569999882e-02,3.959577903150000161e-02,-6.336277723310000665e-02,1.000000000000000000e+00
5.600790089999999610e-01,-2.405740414520000314e+00,7.724786296420000919e-01,-9.600186347170000190e+00,6.026275455950000359e-02,7.643567398190000486e-03,-5.838580057019999298e-02,1.000000000000000000e+00
5.652577159999999656e-01,-2.427659108600000337e+00,7.425459212589999858e-01,-9.499934413350000995e+00,5.781818181280000413e-02,-1.141783315690000043e-02,-6.003428623080000331e-02,1.000000000000000000e+00
5.701005070000000341e-01,-2.555037242020000043e+00,6.917896936199999791e-01,-9.506648816289999360e+00,7.405906170610000727e-02,-1.479496713730000027e-04,-6.060594320300000115e-02,1.000000000000000000e+00
5.752999749999999635e-01,-2.601608146799999854e+00,6.767334326549999668e-01,-9.466678624949999232e+00,6.251472234730000299e-02,-6.751428358260000082e-03,-4.605089500549999770e-02,1.000000000000000000e+00
5.802440349999999913e-01,-2.490383568059999941e+00,6.203771930520000089e-01,-9.483110704319999584e+00,6.224756687880000222e-02,-1.977605745199999959e-02,-4.416177421810000420e-02,1.000000000000000000e+00
5.851277649999999664e-01,-2.516937520729999989e+00,6.319171895249999782e-01,-9.530460484510001606e+00,8.168934285639999071e-02,6.775131914759999078e-04,-3.663409128790000302e-02,1.000000000000000000e+00
5.900512209999999591e-01,-2.427568507709999768e+00,5.465424337740000249e-01,-9.475485616269999412e+00,8.712092041970000145e-02,-1.434037741270000055e-02,-4.479731991889999987e-02,1.000000000000000000e+00
5.952004939999999689e-01,-2.453466919070000252e+00,4.190511223049999678e-01,-9.486326159229999888e+00,7.865935564039999717e-02,9.394103661180000509e-03,-2.190625295040000281e-02,1.000000000000000000e+00
6.000608960000000103e-01,-2.419916093259999901e+00,3.687974738939999719e-01,-9.532817861289998973e+00,9.120158106089999717e-02,-9.810876101260000010e-03,-3.124790638690000052e-02,1.000000000000000000e+00
6.050669469999999661e-01,-2.465261986290000262e+00,3.181649822329999933e-01,-9.471731232170000681e+00,7.106025516989999957e-02,-8.764665573840001167e-03,-1.536204479629999994e-02,1.000000000000000000e+00
6.102705489999999955e-01,-2.438451282379999974e+00,3.682490096980000072e-01,-9.475559850549998941e+00,5.514301359649999984e-02,-3.382688388229999898e-02,-3.591787442560000210e-02,1.000000000000000000e+00
6.152518300000000551e-01,-2.471906831130000093e+00,4.476668298059999773e-01,-9.491566397969998903e+00,3.336144238709999599e-02,-3.378497064109999698e-02,-1.987463980909999831e-02,1.000000000000000000e+00
6.202884119999999557e-01,-2.334206187269999955e+00,4.693935084459999740e-01,-9.546275893280000702e+00,3.864275291560000103e-02,-3.335320204500000218e-02,-1.720496825869999996e-02,1.000000000000000000e+00
6.253151009999999843e-01,-2.363873741909999993e+00,5.136628582829999567e-01,-9.536798455359999593e+00,2.235075458879999880e-02,-3.799832612280000521e-02,-2.464834041889999924e-02,1.000000000000000000e+00
6.302338979999999591e-01,-2.498062432129999788e+00,3.666683163780000143e-01,-9.389240580489998322e+00,1.646677590909999961e-02,-3.961506485940000100e-02,-2.201885171229999924e-02,1.000000000000000000e+00
6.351197710000000551e-01,-2.406655191280000050e+00,3.504934631790000421e-01,-9.564069908649999618e+00,1.644762977960000094e-02,-4.059302806850000056e-02,-1.086145639420000100e-02,1.000000000000000000e+00
6.402593300000000154e-01,-2.505072310890000153e+00,3.998502723490000021e-01,-9.525374559550000342e+00,-2.267233328889999878e-03,-4.765151813630000982e-02,1.434060372410000082e-02,1.000000000000000000e+00
6.451304249999999518e-01,-2.496052261350000023e+00,4.893294677440000462e-01,-9.518350359999999455e+00,-3.690280485900000133e-03,-4.184660688039999743e-02,5.184540059419999805e-03,1.000000000000000000e+00
6.502579429999999494e-01,-2.475930387559999613e+00,5.594747248550000496e-01,-9.502357841100000257e+00,-1.534787658600000014e-02,-5.646822974090000280e-02,1.017116010189999913e-02,1.000000000000000000e+00
6.551051220000000397e-01,-2.444861733940000281e+00,4.966521387820000411e-01,-9.469068734960000455e+00,-2.557827625420000008e-03,-5.696849524969999773e-02,9.214697405700000496e-03,1.000000000000000000e+00
6.600825679999999807e-01,-2.426545886659999596e+00,3.772934995600000230e-01,-9.521552370910001173e+00,-1.430600974709999966e-02,-5.199209973220000197e-02,-7.017171010379999810e-03,1.000000000000000000e+00
6.650706800000000252e-01,-2.474603815129999607e+00,4.141861831499999980e-01,-9.516081246029999718e+00,-8.905805647370000633e-03,-4.195469990369999486e-02,5.219200160349999999e-03,1.000000000000000000e+00
6.700560660000000057e-01,-2.439604397940000169e+00,4.652474581499999595e-01,-9.518190201010000351e+00,-3.757833689449999875e-02,-5.726852640510000231e-02,9.194694459439999717e-03,1.000000000000000000e+00
6.753191659999999708e-01,-2.490045422150000132e+00,5.621698091579999668e-01,-9.482139813459999900e+00,-2.975491620600000109e-02,-7.331417500970000001e-02,1.313281245530000104e-03,1.000000000000000000e+00
6.802415370000000072e-01,-2.572772220670000110e+00,6.353356927309999902e-01,-9.438994499219999668e+00,-3.897681459780000246e-02,-8.046019822360001017e-02,2.121384721249999859e-03,1.000000000000000000e+00
6.852755959999999869e-01,-2.570136903729999922e+00,6.031153848670000039e-01,-9.447376543110001634e+00,-3.510994464159999939e-02,-5.112557858230000474e-02,6.164567079399999733e-03,1.000000000000000000e+00
6.901164180000000092e-01,-2.472923606949999797e+00,5.163185604240000393e-01,-9.406421432389999282e+00,-4.003036767240000099e-02,-5.858279019590000025e-02,6.356156896800000539e-03,1.000000000000000000e+00
6.952795229999999549e-01,-2.426375498529999675e+00,4.850845236500000435e-01,-9.408556690850000237e+00,-5.401516705750000064e-02,-5.376883223650000265e-02,2.404087409379999929e-02,1.000000000000000000e+00
7.000641420000000004e-01,-2.383606762509999921e+00,3.709535924819999941e-01,-9.523384262520000476e+00,-3.993176296349999765e-02,-7.256591320039999793e-02,3.957652673130000742e-02,1.000000000000000000e+00
7.051084239999999559e-01,-2.392011748899999901e+00,4.206375512459999966e-01,-9.567029927500000142e+00,-6.321969628330000035e-02,-9.011374413969999719e-02,4.452310875059999756e-02,1.000000000000000000e+00
7.100440820000000208e-01,-2.501631815040000095e+00,5.180896252169999716e-01,-9.489063475240000045e+00,-5.621865764259999926e-02,-8.740688860419999762e-02,4.404172301289999841e-02,1.000000000000000000e+00
7.150686769999999859e-01,-2.702111425030000014e+00,6.919137583910000000e-01,-9.545821135249999756e+00,-8.565445244310000705e-02,-9.379471838469999323e-02,5.259531363839999724e-02,1.000000000000000000e+00
7.202929479999999884e-01,-2.513612175700000062e+00,6.229708628069999810e-01,-9.328688204369999681e+00,-6.899655610320000465e-02,-9.868758916850001173e-02,5.689784139390000051e-02,1.000000000000000000e+00
7.251220539999999604e-01,-2.802885921420000148e+00,6.446081095979999676e-01,-9.434082177249999646e+00,-6.731309741740000574e-02,-7.874248176810000333e-02,4.641667753459999962e-02,1.000000000000000000e+00
7.302527049999999464e-01,-2.796824429429999981e+00,5.573477227629999309e-01,-9.337451941060001204e+00,-6.199225038290000211e-02,-6.343560665850001001e-02,4.383575543759999499e-02,1.000000000000000000e+00
7.350817539999999761e-01,-2.601102827620000113e+00,5.651596020910000240e-01,-9.467480004469999599e+00,-6.893016397949999763e-02,-5.751030519600000557e-02,2.369053661819999976e-02,1.000000000000000000e+00
7.402808950000000499e-01,-2.679476107110000171e+00,6.675367113729999691e-01,-9.471989590839999806e+00,-7.795039564370000174e-02,-5.233642086390000170e-02,2.603752352299999739e-02,1.000000000000000000e+00
7.450867939999999967e-01,-2.596425483460000017e+00,6.900657924369999474e-01,-9.453734387709999964e+00,-7.294949144119999840e-02,-6.824083626269999980e-02,1.859585940840000062e-02,1.000000000000000000e+00
7.502938569999999530e-01,-2.553694302979999886e+00,6.329089039760000812e-01,-9.432656528369999904e+00,-7.487337291239999637e-02,-5.835297331209999411e-02,2.430165559049999799e-02,1.000000000000000000e+00
7.551700169999999712e-01,-2.571077399450000023e+00,5.382157367919999658e-01,-9.390603101010000842e+00,-7.263561338189999939e-02,-6.701944768430000143e-02,2.473738789559999998e-02,1.000000000000000000e+00
7.601004700000000280e-01,-2.599604698020000271e+00,4.939831753010000548e-01,-9.426544767490000254e+00,-8.952616155150000532e-02,-3.745967894790000474e-02,2.708067744970000038e-02,1.000000000000000000e+00
7.651524499999999840e-01,-2.640460732279999778e+00,4.776458980820000311e-01,-9.418463752360000996e+00,-8.553418517110000785e-02,-5.593398213390000234e-02,1.537175104019999905e-02,1.000000000000000000e+00
7.700447839999999822e-01,-2.713490020400000091e+00,5.350006837359999601e-01,-9.416175349159999541e+00,-8.956608176230000662e-02,-4.608089849349999989e-02,1.452252082530000078e-02,1.000000000000000000e+00
7.750755080000000241e-01,-2.700457812599999841e+00,5.718269144929999381e-01,-9.422351991970000284e+00,-7.280093431469998599e-02,-4.635158181190000143e-02,6.098486017440000150e-03,1.000000000000000000e+00
7.800960190000000294e-01,-2.661938404599999863e+00,6.781308783630000114e-01,-9.489701188619999783e+00,-7.367613166570000094e-02,-4.863192886110000168e-02,1.387855038049999904e-03,1.000000000000000000e+00
7.851107389999999464e-01,-2.656596751309999949e+00,7.571217782960000253e-01,-9.423011332659999795e+00,-8.484812080860000549e-02,-4.628780484199999934e-02,6.899811793119998982e-03,1.000000000000000000e+00
7.900758799999999527e-01,-2.632982066959999923e+00,6.702882751040000198e-01,-9.422449607129999904e+00,-7.661329954860000846e-02,-1.636866480110000036e-02,1.466052141039999798e-03,1.000000000000000000e+00
7.950188049999999951e-01,-2.572238844449999728e+00,5.729137233490000369e-01,-9.382680491320000371e+00,-5.231921747330000455e-02,-3.448436781759999653e-02,-8.834198117260000024e-03,1.000000000000000000e+00
8.000388999999999973e-01,-2.540860248109999997e+00,5.199165849160000130e-01,-9.430821714149999480e+00,-7.591873407360000270e-02,-1.804973930120000111e-02,-2.611628733580000192e-04,1.000000000000000000e+00
8.051089120000000099e-01,-2.407460370179999920e+00,3.913972821060000551e-01,-9.394736839820000185e+00,-6.895638257269999516e-02,-2.823854051529999659e-02,-7.020937744529998949e-03,1.000000000000000000e+00
8.100791800000000098e-01,-2.379570931129999956e+00,2.558226174250000096e-01,-9.364651498149999753e+00,-6.951002031560001015e-02,-2.278037182990000006e-02,5.696143489329999997e-03,1.000000000000000000e+00
8.152572120000000089e-01,-2.292413895070000152e+00,3.085608857259999893e-01,-9.430060666650000201e+00,-6.775569915769999452e-02,-4.092755168679999833e-02,5.440374370659999646e-03,1.000000000000000000e+00
8.202701100000000523e-01,-2.311292783059999856e+00,4.279661771010000448e-01,-9.525569789860000469e+00,-7.143951207399999725e-02,-3.023715689780000215e-02,1.009949482979999964e-03,1.000000000000000000e+00
8.252840259999999484e-01,-2.423407296369999742e+00,5.404197131100000329e-01,-9.505821133299999559e+00,-7.721386849880000625e-02,-5.457280203700000387e-02,-1.360923051830000008e-02,1.000000000000000000e+00
8.302624600000000354e-01,-2.593052207640000439e+00,5.561269853289999565e-01,-9.392494029330000771e+00,-7.971760630610000287e-02,-7.668221741910000167e-02,-6.086014211180000404e-03,1.000000000000000000e+00
8.353077070000000104e-01,-2.649341081090000216e+00,6.007758725360000662e-01,-9.354500691020000147e+00,-7.649131864310000639e-02,-7.469803839919998689e-02,-1.397835835810000080e-02,1.000000000000000000e+00
8.400963169999999813e-01,-2.654083014920000316e+00,7.122112810109999526e-01,-9.400441188939998582e+00,-7.211450487380001440e-02,-8.061257749800000705e-02,-2.286474779250000089e-02,1.000000000000000000e+00
8.451173939999999662e-01,-2.738497328140000242e+00,6.884503931300001156e-01,-9.406752271780000285e+00,-8.059670031070000074e-02,-6.333160400390000500e-02,-5.245411302890000795e-04,1.000000000000000000e+00
8.502773529999999580e-01,-2.609955411640000111e+00,5.634635752950000187e-01,-9.396593281339999493e+00,-5.437764525410000022e-02,-6.005757302050000052e-02,-1.790448091920000123e-02,1.000000000000000000e+00
8.551240300000000349e-01,-2.659701439320000027e+00,5.759143299369999802e-01,-9.471701421549999722e+00,-3.172444924710000197e-02,-4.934900999070000044e-02,-1.237915456299999890e-02,1.000000000000000000e+00
8.600239549999999511e-01,-2.683440042309999551e+00,6.688826460890000547e-01,-9.470877830210000070e+00,-4.997390881180000660e-02,-4.933771491049999958e-02,-2.082077600059999839e-02,1.000000000000000000e+00
8.652904790000000013e-01,-2.582141522040000137e+00,6.839617764730000493e-01,-9.466101701849998662e+00,-3.075063601140000033e-02,-5.656578391790000049e-02,-2.038490772249999805e-02,1.000000000000000000e+00
8.702719450000000467e-01,-2.594393393109999835e+00,7.056594482140000624e-01,-9.445115027920000017e+00,-5.899282917380000574e-02,-6.655541807409999511e-02,-2.872716076670000021e-02,1.000000000000000000e+00
8.751167680000000448e-01,-2.586836986379999814e+00,7.429102245259999737e-01,-9.518407058630000250e+00,-3.572869300840000178e-02,-8.188173919919999877e-02,-1.570375077429999808e-02,1.000000000000000000e+00
8.800779610000000197e-01,-2.578679398890000307e+00,6.894875541580000045e-01,-9.517263149289998836e+00,-3.869736567140000250e-02,-1.002724915740000056e-01,-2.006687410179999742e-02,1.000000000000000000e+00
8.851201600000000447e-01,-2.612660578949999923e+00,6.475551228350000521e-01,-9.432216967899998750e+00,-1.640724204479999948e-02,-9.121838212010000002e-02,-2.869899012149999817e-02,1.000000000000000000e+00
8.900399909999999748e-01,-2.656738790129999916e+00,7.040110964849999320e-01,-9.371568730199999919e+00,-3.103807382290000097e-02,-9.159698337320000550e-02,-1.857290975749999878e-02,1.000000000000000000e+00
8.951009840000000439e-01,-2.557373576009999816e+00,5.735992944600000198e-01,-9.305023835660001907e+00,-1.725308410819999944e-02,-9.922946244480000677e-02,-3.811996802690000019e-02,1.000000000000000000e+00
9.002154519999999716e-01,-2.466826459119999981e+00,4.025633306999999994e-01,-9.356739994380001590e+00,-6.267079152170000611e-03,-1.078436970709999998e-01,-3.332665562630000161e-02,1.000000000000000000e+00
9.051235389999999770e-01,-2.270682832519999916e+00,3.161822109180000284e-01,-9.504567333839998966e+00,2.144934609530000074e-03,-1.043750643730000094e-01,-3.612885251640000212e-02,1.000000000000000000e+00
9.100621399999999639e-01,-2.164817296599999885e+00,4.103858775520000113e-01,-9.562602758709999762e+00,-2.612890210000000119e-03,-1.286425292490000205e-01,-2.874185517430000170e-02,1.000000000000000000e+00
9.149926329999999997e-01,-2.266991576780000184e+00,4.669996721119999972e-01,-9.390294473450000012e+00,-6.156083196400000124e-03,-1.472269147629999830e-01,-2.708790265020000199e-02,1.000000000000000000e+00
9.202847119999999492e-01,-2.224229270509999967e+00,2.977010900709999852e-01,-9.422250285160000516e+00,-2.342787384990000291e-02,-1.858453601600000005e-01,-3.029288724059999924e-02,1.000000000000000000e+00
9.250941099999999695e-01,-2.249580130990000093e+00,1.636922499340000003e-01,-9.524304299969999832e+00,-1.969195902350000249e-02,-2.132413536309999968e-01,-3.396607562899999627e-02,1.000000000000000000e+00
9.300790599999999575e-01,-2.288488830579999966e+00,4.055680654739999835e-01,-9.635457567039999560e+00,-2.686646580699999717e-02,-2.437609434130000030e-01,-4.455583915109999349e-02,1.000000000000000000e+00
9.350667780000000429e-01,-2.419586715170000346e+00,4.631459192930000301e-01,-9.618791678919999200e+00,-3.770766779780000688e-02,-2.658264935019999942e-01,-3.654057905080000668e-02,1.000000000000000000e+00
9.401063309999999618e-01,-2.518365507700000006e+00,5.181524978529999936e-01,-9.625857964039999715e+00,-4.424477368589999765e-02,-3.066493570800000179e-01,-2.822247520090000183e-02,1.000000000000000000e+00
9.449993389999999938e-01,-2.622053261190000040e+00,6.130752725410000270e-01,-9.701824182390000217e+00,-4.229526221749999731e-02,-3.125912249089999873e-01,-2.735235542059999761e-02,1.000000000000000000e+00
9.500425620000000348e-01,-2.753760948250000062e+00,7.321838094589999679e-01,-9.589814590760001423e+00,-2.883984148499999997e-02,-3.328843414780000010e-01,-1.366111077370000051e-02,1.000000000000000000e+00
9.551041890000000478e-01,-2.761708107860000094e+00,5.849854155449999427e-01,-9.567637245739998519e+00,-2.591059543189999995e-02,-3.194832801820000068e-01,-1.056902576239999829e-02,1.000000000000000000e+00
9.600792059999999628e-01,-2.959896684299999858e+00,7.334473996539999652e-01,-9.520030275910000839e+00,-3.363982308660000073e-03,-3.324663341050000387e-01,1.434206217529999938e-02,1.000000000000000000e+00
9.652944279999999821e-01,-2.895130197620000345e+00,7.689387650779999639e-01,-9.539563243899999989e+00,1.022703479979999996e-02,-3.239135444160000099e-01,9.495608508590000843e-03,1.000000000000000000e+00
9.702559189999999667e-01,-2.889159891029999816e+00,8.075739814860000143e-01,-9.600237785090000031e+00,8.107429370280000436e-03,-3.376120328900000245e-01,1.469699665899999903e-02,1.000000000000000000e+00
9.752973550000000325e-01,-2.798914971959999942e+00,8.331460835079999017e-01,-9.646177113969999439e+00,9.105744771659998738e-03,-3.452463448049999939e-01,2.115875016900000197e-03,1.000000000000000000e+00
9.802937029999999607e-01,-2.764987567920000000e+00,6.719982938920000537e-01,-9.679523503260000439e+00,2.009914256630000035e-02,-3.438254892829999965e-01,1.232403889299999930e-02,1.000000000000000000e+00
9.851051079999999516e-01,-2.742242067630000335e+00,6.448653722950000722e-01,-9.663144030860001621e+00,2.212579175830000147e-02,-3.547518551349999605e-01,-8.239630842580000303e-04,1.000000000000000000e+00
9.902544509999999800e-01,-2.819710799490000142e+00,8.543999570039999547e-01,-9.663110128590000514e+00,2.477586083110000156e-02,-3.708706796169999875e-01,-1.370062120259999891e-03,1.000000000000000000e+00
9.951225519999999936e-01,-2.897017618800000083e+00,8.791850003009999970e-01,-9.594408932809999513e+00,2.174350433050000267e-02,-3.956831991669999549e-01,-1.944527402520000031e-02,1.000000000000000000e+00
1.000237623000000076e+00,-2.843595532950000226e+00,9.868160845890000532e-01,-9.635433017120000443e+00,3.445426747199999834e-02,-4.052600562569999565e-01,-2.853464521470000168e-02,1.000000000000000000e+00
1.005159155000000082e+00,-2.799206356129999573e+00,1.024300815789999985e+00,-9.675743984720000412e+00,5.801147222519999203e-02,-4.087916910650000180e-01,-2.770667336879999859e-02,1.000000000000000000e+00
1.010041038000000002e+00,-2.889380255789999907e+00,9.934597603870000126e-01,-9.567774023860000199e+00,7.020086050029999969e-02,-4.060907661909999855e-01,-2.923177368939999798e-02,1.000000000000000000e+00
1.015291465000000004e+00,-2.823264108060000055e+00,7.265018182999999352e-01,-9.489555642670000069e+00,1.061031818389999992e-01,-4.097823500630000115e-01,-6.354720890519999221e-02,1.000000000000000000e+00
1.020266187000000047e+00,-2.805115580170000289e+00,7.119369210489999711e-01,-9.608820319999999526e+00,9.810665994879999574e-02,-4.305902719499999920e-01,-4.326722770930000600e-02,1.000000000000000000e+00
1.025305372000000048e+00,-2.848736110709999991e+00,7.502220819099999494e-01,-9.618528644069998634e+00,1.128042563800000092e-01,-4.521116912359999795e-01,-4.431745782490000007e-02,1.000000000000000000e+00
1.030292586000000066e+00,-2.799106110620000365e+00,8.567309572350000346e-01,-9.791780932170000895e+00,1.229016780849999935e-01,-4.938914179800000248e-01,-3.756272047760000204e-02,0.000000000000000000e+00
1.035283458000000101e+00,-1.938633336509999916e+00,1.208610650610000059e+00,-1.013847606250000055e+01,1.786769330499999864e-01,-5.266172289850000743e-01,-2.179458923640000337e-02,0.000000000000000000e+00
1.040270975000000098e+00,-2.965859392090000046e+00,1.032169649470000117e+00,-9.693625093839999707e+00,1.895468235020000003e-01,-5.554423928260000531e-01,-6.192582100630000114e-02,0.000000000000000000e+00
1.045129162999999917e+00,-2.805498734269999961e+00,6.660661273640000601e-01,-9.547736028960001065e+00,2.398834377530000006e-01,-5.697309374810000104e-01,-3.969163820149999855e-02,0.000000000000000000e+00
1.050199368999999994e+00,-2.764207523459999649e+00,6.428397847510000096e-01,-9.891389307389999885e+00,2.184688895939999875e-01,-6.391535997389999890e-01,-3.390618413690000416e-02,0.000000000000000000e+00
1.055121186999999905e+00,-2.544668115959999977e+00,6.913927301919999824e-01,-9.837634336329999840e+00,2.268396914009999932e-01,-6.658266186710000145e-01,-4.307297989730000248e-02,0.000000000000000000e+00
1.060079605999999952e+00,-2.735750659779999872e+00,7.332957162240000271e-01,-1.001428035850000064e+01,2.135634124280000046e-01,-6.982932090760000099e-01,-4.172642901540000310e-02,0.000000000000000000e+00
1.065344355999999992e+00,-2.792760833250000019e+00,6.990694753650000814e-01,-9.743173260869999908e+00,2.120172530409999978e-01,-7.467908263210000230e-01,-5.360642820599999941e-02,0.000000000000000000e+00
1.070088082000000052e+00,-2.896900129900000120e+00,6.110817241040000791e-01,-9.915199222050000927e+00,2.161398082969999968e-01,-7.716608643529999645e-01,-5.957136675719999774e-02,0.000000000000000000e+00
1.075107580000000063e+00,-2.854558825509999842e+00,6.237513456609999896e-01,-9.936267729039998997e+00,2.147604376080000099e-01,-8.003519773480000099e-01,-5.391155183319999711e-02,0.000000000000000000e+00
1.080083211000000043e+00,-2.797589860840000053e+00,7.204838731849999567e-01,-1.001657986759999908e+01,2.004844546319999865e-01,-8.522263169289999718e-01,-6.153826788069999970e-02,0.000000000000000000e+00
1.085099282999999915e+00,-2.839671637509999957e+00,8.304446425290000766e-01,-1.010591117899999958e+01,2.014199644330000039e-01,-8.885738849640000270e-01,-6.373572349550001015e-02,0.000000000000000000e+00
1.090110753999999904e+00,-2.956412057049999653e+00,7.926712305830000416e-01,-9.859135389520000459e+00,2.210082113740000076e-01,-9.494054913519999195e-01,-8.160429447889999688e-02,0.000000000000000000e+00
1.095097685000000043e+00,-3.030061815149999838e+00,8.413803894979999809e-01,-9.893339272420000441e+00,2.278749942780000093e-01,-1.010298728939999835e+00,-9.522737562660001098e-02,0.000000000000000000e+00
1.100103553000000067e+00,-3.094173345059999747e+00,7.833087973450000296e-01,-1.002408162159999883e+01,2.277526706459999939e-01,-1.046336650849999828e+00,-9.784537553789998676e-02,0.000000000000000000e+00
1.105128402000000065e+00,-3.140380969480000228e+00,7.895902157019999423e-01,-9.999294386319999006e+00,2.468833178279999929e-01,-1.091110944750000034e+00,-9.358038753269999621e-02,0.000000000000000000e+00
1.110080619000000102e+00,-3.180874892429999878e+00,9.172936355509999640e-01,-9.861701440610001868e+00,2.716799080369999841e-01,-1.135841727260000100e+00,-1.122476384039999969e-01,0.000000000000000000e+00
1.115307883999999916e+00,-3.168050189909999759e+00,8.894269928519999979e-01,-9.908847807189999912e+00,2.512406706810000334e-01,-1.174905419349999924e+00,-1.225799471139999985e-01,0.000000000000000000e+00
1.120261402999999989e+00,-3.258697844559999890e+00,8.564435185950000085e-01,-9.906602074089999377e+00,2.740921676159999709e-01,-1.232569932939999946e+00,-1.291786879300000079e-01,0.000000000000000000e+00
1.125120004000000007e+00,-3.256088538849999825e+00,7.125493538580000008e-01,-9.906515564850000288e+00,2.823678851130000389e-01,-1.280015349389999946e+00,-1.408499628309999863e-01,0.000000000000000000e+00
1.130080165000000081e+00,-3.267566795199999596e+00,6.551550764450000397e-01,-9.948530998280000759e+00,3.045708537099999780e-01,-1.324594378470000056e+00,-1.553507745269999962e-01,0.000000000000000000e+00
1.135129371000000109e+00,-3.425481521179999600e+00,8.097096783409999388e-01,-9.995829340549999387e+00,3.124374151229999952e-01,-1.392826914790000092e+00,-1.361969262359999933e-01,0.000000000000000000e+00
1.140056755999999893e+00,-3.430855615429999617e+00,9.059435356280000073e-01,-9.904728096910000446e+00,3.139851689339999696e-01,-1.454531192779999982e+00,-1.540713161229999850e-01,0.000000000000000000e+00
1.145102905999999976e+00,-3.472750929609999648e+00,8.423006461480000429e-01,-9.866392813300000952e+00,3.452656567099999796e-01,-1.496672987940000032e+00,-1.866715848449999882e-01,0.000000000000000000e+00
1.150107248999999943e+00,-3.536349833819999677e+00,6.820540431559999339e-01,-9.832667069310002006e+00,3.462744057180000001e-01,-1.534785389900000130e+00,-1.918743848799999707e-01,0.000000000000000000e+00
1.155102776000000109e+00,-3.550776418580000371e+00,6.272743321549999473e-01,-9.843931975169999404e+00,3.976933062080000303e-01,-1.600323915479999748e+00,-1.939536929129999920e-01,0.000000000000000000e+00
1.160082134000000043e+00,-3.669518533339999777e+00,6.382580829839999970e-01,-9.864171630119999534e+00,4.317539334300000142e-01,-1.650333642959999958e+00,-1.996518224480000048e-01,0.000000000000000000e+00
1.165274662999999933e+00,-3.654446636409999893e+00,5.131563335329999420e-01,-9.877171396950000570e+00,4.360202848910000317e-01,-1.716332793240000099e+00,-1.985139399769999813e-01,0.000000000000000000e+00
1.170301135999999964e+00,-3.735292443500000115e+00,2.453368061809999834e-01,-9.938104296819998851e+00,4.390881955619999610e-01,-1.781248807909999732e+00,-2.032254040239999948e-01,0.000000000000000000e+00
1.175285845999999967e+00,-3.667643387119999598e+00,2.034440492819999946e-01,-9.791466459389999599e+00,4.418231546879999860e-01,-1.845255851750000176e+00,-1.927902102470000212e-01,0.000000000000000000e+00
1.179985089999999959e+00,-3.606068389949999897e+00,1.066359905700000055e-01,-9.840014509460001335e+00,4.374967217450000390e-01,-1.910803437229999791e+00,-2.067517042160000040e-01,0.000000000000000000e+00
1.185107155999999939e+00,-3.700373398069999986e+00,1.729271295360000071e-01,-9.899721082410000150e+00,4.422281086439999731e-01,-1.959002614020000088e+00,-2.000758498910000238e-01,0.000000000000000000e+00
1.190043079999999920e+00,-3.588855097080000167e+00,1.621687484279999980e-01,-9.746135617800000261e+00,4.476964175700000048e-01,-2.031995058060000137e+00,-2.213965207339999852e-01,0.000000000000000000e+00
1.195095671000000026e+00,-3.755759185199999628e+00,1.881223788459999990e-01,-9.950891297669999247e+00,4.661028385159999843e-01,-2.096330165859999983e+00,-2.091960310940000067e-01,0.000000000000000000e+00
1.200034207999999936e+00,-3.720594932840000535e+00,1.528858832320000027e-01,-1.002650621839999978e+01,4.680044949050000125e-01,-2.169893264769999774e+00,-2.011515647170000198e-01,0.000000000000000000e+00
1.205064048999999970e+00,-3.628208325569999726e+00,8.824252973960000634e-02,-1.018089832320000099e+01,4.771327078339999694e-01,-2.252023458480000073e+00,-2.010107487440000174e-01,0.000000000000000000e+00
1.210080059000000041e+00,-3.596691489799999975e+00,5.896524392419999483e-02,-1.025312067880000022e+01,4.856706857680000433e-01,-2.350434064870000395e+00,-2.001061886549999891e-01,0.000000000000000000e+00
1.215283126000000102e+00,-3.529603574430000279e+00,-1.775920548900000034e-02,-1.044896824509999966e+01,4.911743402480000520e-01,-2.440958738329999989e+00,-2.183675765989999962e-01,0.000000000000000000e+00
1.220249570000000006e+00,-3.547460133640000013e+00,-1.343879939129999923e-01,-1.070411088090000007e+01,4.897597730160000440e-01,-2.561345577240000004e+00,-1.920062750580000255e-01,0.000000000000000000e+00
1.225141631999999925e+00,-3.508120056900000172e+00,-2.105461911710000134e-01,-1.082210597670000141e+01,4.661431312560000428e-01,-2.704570055010000029e+00,-1.535449922079999974e-01,0.000000000000000000e+00
1.230338305000000076e+00,-3.160256759559999740e+00,-1.500342931929999901e-01,-1.085277350209999980e+01,4.674594104290000218e-01,-2.859523057940000168e+00,-1.355791091920000024e-01,0.000000000000000000e+00
1.235105443999999997e+00,-2.979076893330000253e+00,-1.754464371469999784e-01,-1.096078964019999979e+01,4.788611829280000065e-01,-2.999753475189999907e+00,-1.085613667960000084e-01,0.000000000000000000e+00
1.240239081999999993e+00,-2.931488920460000092e+00,-2.909306552209999994e-02,-1.091348077660000015e+01,4.904681146140000281e-01,-3.177500486370000043e+00,-4.968268051739999774e-02,0.000000000000000000e+00
1.245281641000000050e+00,-2.892675790199999764e+00,2.155708326660000229e-01,-1.083642676300000041e+01,5.054154992100000632e-01,-3.391576051709999984e+00,-2.663486637180000061e-02,0.000000000000000000e+00
1.250283099000000009e+00,-3.003560469459999993e+00,3.642487610809999610e-01,-1.102258412539999988e+01,5.106109976770000225e-01,-3.614936590190000132e+00,6.711417809129999450e-04,0.000000000000000000e+00
1.255014346999999919e+00,-2.501922614679999768e+00,5.227652158120000836e-01,-1.079056634460000019e+01,5.609176754950000454e-01,-3.819224596020000195e+00,1.908949948850000022e-02,0.000000000000000000e+00
1.260060975000000028e+00,-2.469147595549999963e+00,9.823015297740000928e-01,-1.060881277010000012e+01,6.536254286770000199e-01,-4.046680450440000243e+00,2.455229498449999770e-02,0.000000000000000000e+00
1.265313139999999947e+00,-2.692650645979999702e+00,1.556853594909999972e+00,-1.057322590839999954e+01,7.377156019210000526e-01,-4.251494884489999571e+00,1.874258182940000128e-02,0.000000000000000000e+00
1.270233331000000021e+00,-2.840323087149999814e+00,1.984097449090000076e+00,-1.048843399399999932e+01,8.364357352259998990e-01,-4.499401569369999798e+00,-1.093883533030000051e-03,0.000000000000000000e+00
1.275308305000000031e+00,-3.482971587109999767e+00,2.033366653040000305e+00,-1.028172133490000029e+01,9.875889420510000072e-01,-4.697882652280000570e+00,-1.298325136299999932e-02,0.000000000000000000e+00
1.280092385999999971e+00,-4.255498512880000028e+00,2.109806480250000060e+00,-1.030630866369999943e+01,1.222776174549999872e+00,-4.893549919130000703e+00,-4.195116087790000392e-02,0.000000000000000000e+00
1.285101307999999998e+00,-4.823389293500000008e+00,3.358818260959999691e+00,-1.042878236620000010e+01,1.490160822870000068e+00,-5.098618507390000332e+00,-1.100619435310000033e-01,0.000000000000000000e+00
1.290087412999999961e+00,-6.028291152719999602e+00,3.943155441730000543e+00,-1.214434008390000130e+01,1.734025478359999983e+00,-5.291645050049999632e+00,-1.966877728699999994e-01,0.000000000000000000e+00
1.295277006000000064e+00,-8.158636709260001396e+00,4.874414839599999993e+00,-1.130926639329999972e+01,2.049952030180000051e+00,-5.399545669559999261e+00,-3.591672480110000287e-01,0.000000000000000000e+00
1.300085938999999913e+00,-8.307952241460000664e+00,4.212594606169999700e+00,-1.103725328670000039e+01,2.416798353199999916e+00,-5.621731758119999256e+00,-5.495038628580000140e-01,0.000000000000000000e+00
1.305092616999999899e+00,-1.026643141129999925e+01,3.139372669219999690e+00,-1.241595571559999911e+01,2.793258190159999543e+00,-5.701617240909999218e+00,-7.232314348219999189e-01,0.000000000000000000e+00
1.310039442999999970e+00,-1.221623627630000186e+01,3.206452109020000218e+00,-1.258165130470000115e+01,3.034753799440000233e+00,-5.697738647459999584e+00,-8.571230173109999351e-01,0.000000000000000000e+00
1.315282706999999940e+00,-1.343158704880000087e+01,1.644541084589999924e+00,-1.335826462300000017e+01,3.075501203540000450e+00,-5.639591693879999923e+00,-8.041362762450000590e-01,0.000000000000000000e+00
1.320251937000000098e+00,-1.315629711250000078e+01,-1.818986454930000222e-03,-1.245707449240000031e+01,2.944792509080000009e+00,-5.538325309750000258e+00,-7.769793272020000252e-01,0.000000000000000000e+00
1.325303686000000036e+00,-1.220189561630000163e+01,-7.237441170899998610e-01,-1.218542612749999954e+01,2.645027637480000138e+00,-5.393761157990000221e+00,-7.415415644650000804e-01,0.000000000000000000e+00
1.330291493999999908e+00,-1.173499239030000041e+01,-8.386597323630000655e-01,-1.265876727759999909e+01,2.326050281520000151e+00,-5.231552600859999735e+00,-7.449998855589998747e-01,0.000000000000000000e+00
1.335261913999999939e+00,-1.255441842980000011e+01,-1.275721800720000187e+00,-1.398020058980000080e+01,2.045135021210000126e+00,-5.094110012049999803e+00,-6.977870464319999577e-01,0.000000000000000000e+00
1.340113466999999892e+00,-1.228672610910000174e+01,-1.796331336339999973e+00,-1.314518885849999918e+01,1.798292160029999920e+00,-4.984358310700000239e+00,-6.563214063639999374e-01,0.000000000000000000e+00
1.345124556000000027e+00,-1.182932370189999993e+01,-1.836152620720000073e+00,-1.306901864199999963e+01,1.721619486809999877e+00,-4.915945053099999740e+00,-6.739727854729999912e-01,0.000000000000000000e+00
1.350265556000000089e+00,-1.224956571440000097e+01,-2.718179347259999989e+00,-1.250544367880000074e+01,1.672374963760000277e+00,-4.834949493409999910e+00,-7.101281881329999379e-01,0.000000000000000000e+00
1.355295990999999978e+00,-1.810606003859999902e+01,-2.125477365979999700e+00,-1.630150301790000000e+01,1.729039430620000095e+00,-4.714073657990000221e+00,-6.333734393119999639e-01,0.000000000000000000e+00
1.360072455999999930e+00,-1.874203271400000048e+01,-2.886579519150000106e+00,-1.440096750300000039e+01,1.687523126599999923e+00,-4.421142578119999555e+00,-4.621395468710000065e-01,0.000000000000000000e+00
1.365107274000000093e+00,-1.481850084119999877e+01,-9.622301440600000699e-01,-1.391179282400000083e+01,1.763857960700000005e+00,-4.056209087370000077e+00,-3.194728195670000215e-01,0.000000000000000000e+00
1.370080270000000100e+00,-1.207238894640000026e+01,-4.049577150230000422e-01,-1.425347977079999851e+01,1.872452020649999938e+00,-3.679226875309999478e+00,-2.350567728279999991e-01,0.000000000000000000e+00
1.375294162999999958e+00,-9.517873974660000513e+00,-1.121871255440000104e+00,-1.504594064650000007e+01,1.908791542050000123e+00,-3.408575057979999823e+00,-1.149003803730000023e-01,0.000000000000000000e+00
1.380289893000000045e+00,-7.928387691689999350e+00,-1.052427351529999999e+00,-1.337701374710000124e+01,1.869227051729999811e+00,-3.192717790600000161e+00,-1.715196073059999937e-01,0.000000000000000000e+00
1.385113586999999979e+00,-7.154208322549999721e+00,-1.216403861769999928e+00,-1.083852753470000074e+01,1.714941501620000031e+00,-2.937419891359999813e+00,-6.084663048390000217e-02,0.000000000000000000e+00
1.390248806000000004e+00,-5.569185448719999876e+00,-1.928317255809999686e+00,-8.441890171779999008e+00,1.601088404659999798e+00,-2.615661144260000182e+00,7.763450592760000324e-02,0.000000000000000000e+00
1.395227962999999960e+00,2.006425162359999792e+00,-3.252498989919999861e+00,-7.711306783260001296e+00,1.545900583270000128e+00,-1.840846061709999759e+00,3.356556892399999992e-01,0.000000000000000000e+00
1.400264653000000026e+00,1.236311844390000125e+01,-3.030244478240000205e+00,-8.814158719319999946e+00,1.654703617100000024e+00,-7.887179255490001095e-01,9.179794192309999046e-01,0.000000000000000000e+00
1.405125407000000104e+00,6.611833383719999624e+00,-4.496105477520000449e-01,-9.774447520049999838e+00,1.568407058720000080e+00,-3.041612505909999653e-01,1.638145327569999976e+00,0.000000000000000000e+00
1.410081168999999912e+00,-6.277783799929999908e+00,-7.524585357250000994e-01,-1.298703827799999999e+01,1.158234596250000026e+00,-6.569575667379999873e-01,2.206189155580000172e+00,0.000000000000000000e+00
1.415142262999999900e+00,-1.039827616870000071e+01,-3.152799137030000143e+00,-1.558484995509999926e+01,8.228682279590000537e-01,-6.466810703279999295e-01,2.702338218690000016e+00,0.000000000000000000e+00
1.420225413999999908e+00,-8.153723802780000085e+00,-2.668716228170000093e+00,-1.619132882499999937e+01,7.435007691380000061e-01,-5.531770586969999570e-01,2.838218450549999883e+00,0.000000000000000000e+00
1.425292618000000067e+00,-1.194179024350000118e+00,5.523973338139999134e-01,-1.506755743509999945e+01,7.644752264020000521e-01,1.867716312409999913e-01,2.663537502290000081e+00,0.000000000000000000e+00
1.430285416999999892e+00,1.146584694810000027e+00,1.660918511149999999e+00,-1.230801790339999968e+01,6.971234083180000152e-01,1.346682310099999835e+00,2.687241077419999957e+00,0.000000000000000000e+00
1.435308513999999924e+00,3.289423603020000253e-01,5.850991415849999822e-01,-1.013279334070000104e+01,5.373824834820000174e-01,2.236394405360000004e+00,2.861095905299999576e+00,0.000000000000000000e+00
1.440056245999999929e+00,1.936618927949999902e+00,-1.404251149999999893e+00,-8.892793280090000252e+00,3.706990480419999900e-01,2.852827310559999940e+00,2.996800422670000241e+00,0.000000000000000000e+00
1.445054899999999920e+00,3.765827867009999608e+00,-2.393737695910000074e+00,-8.376044365429999417e+00,2.993075847630000119e-01,2.880860805509999789e+00,3.159327030180000051e+00,0.000000000000000000e+00
1.450080932000000100e+00,5.968213408370000472e+00,-1.996892194859999803e+00,-7.417074246080000322e+00,3.288474082950000321e-01,2.527192831039999810e+00,3.249670505519999697e+00,0.000000000000000000e+00
1.455078295000000077e+00,6.214279588270000154e+00,-1.037710040199999906e+00,-7.509206001810000863e+00,2.856805920600000159e-01,2.289676427839999917e+00,3.194400548930000028e+00,0.000000000000000000e+00
1.460071225999999944e+00,5.969245089509999325e+00,-1.161529165959999998e+00,-7.517599151619999809e+00,1.966487616299999741e-01,2.105558633799999857e+00,3.092295169829999857e+00,0.000000000000000000e+00
1.465296458000000079e+00,5.623731862430000561e+00,-1.453752847529999892e+00,-7.403220492769999161e+00,5.682928860190000070e-02,1.957401633259999718e+00,2.903804540629999487e+00,0.000000000000000000e+00
1.470235806000000034e+00,4.171237636649999914e+00,-2.363673981549999858e+00,-7.651855061860000973e+00,-1.258642375469999908e-01,2.008158683780000064e+00,2.804453372959999857e+00,0.000000000000000000e+00
1.475297499999999928e+00,3.200497584529999884e+00,-3.363234616100000185e+00,-8.071702522169999838e+00,-3.243504762650000206e-01,2.171055316929999979e+00,2.740383148189999840e+00,0.000000000000000000e+00
1.480253252000000019e+00,2.349887302129999966e+00,-3.798427529580000073e+00,-8.378613923659999685e+00,-5.345340967180000069e-01,2.342861890790000068e+00,2.712273359300000131e+00,0.000000000000000000e+00
1.485300923000000051e+00,1.642990786399999958e+00,-4.073050234140000114e+00,-8.550489078189999148e+00,-7.925468683239998979e-01,2.546305179600000024e+00,2.642384529109999658e+00,0.000000000000000000e+00
1.490091848999999913e+00,1.369723588109999834e+00,-4.152155042780000471e+00,-8.904603544880000499e+00,-1.052925944330000085e+00,2.749409437179999749e+00,2.528139352799999795e+00,0.000000000000000000e+00
1.495099181000000055e+00,1.295642014460000047e+00,-3.679684538040000064e+00,-9.084274467849999368e+00,-1.257849931720000036e+00,2.985703468320000109e+00,2.361583948140000278e+00,0.000000000000000000e+00
1.500103847999999962e+00,8.940368978000000633e-01,-2.953209169359999997e+00,-9.141338417330000965e+00,-1.398038864140000115e+00,3.173707962039999941e+00,2.199397563929999855e+00,0.000000000000000000e+00
1.505072616999999946e+00,3.041334064070000398e-01,-2.160512292880000018e+00,-9.181603792220000670e+00,-1.442918658259999987e+00,3.367264270780000235e+00,2.046500921249999827e+00,0.000000000000000000e+00
1.510073527000000082e+00,-3.390869934260000162e-01,-1.608531321310000095e+00,-9.171122730219998687e+00,-1.383033394809999983e+00,3.630749702450000171e+00,1.891059160229999980e+00,0.000000000000000000e+00
1.515280154999999906e+00,-1.013474301350000051e+00,-1.154146435299999940e+00,-9.163786395980000776e+00,-1.243318557739999886e+00,3.900771141050000335e+00,1.756881356240000081e+00,0.000000000000000000e+00
1.520226392999999954e+00,-1.347385207310000110e+00,-7.306082307060000058e-01,-9.068721509410000436e+00,-1.058995723720000059e+00,4.162682056430000443e+00,1.568292260170000230e+00,0.000000000000000000e+00
1.525283264000000027e+00,-1.552712111199999967e+00,-4.973427513950000045e-01,-8.992262539109999508e+00,-8.527729511259999340e-01,4.423166751860000190e+00,1.402550578120000058e+00,0.000000000000000000e+00
1.530282941999999924e+00,-1.477103766369999960e+00,-6.015643925649999391e-01,-8.965842734209999776e+00,-6.510851979259999478e-01,4.666854381559999432e+00,1.178507328029999801e+00,0.000000000000000000e+00
1.535301416000000030e+00,-1.407225343499999948e+00,-8.355267680990000612e-01,-8.865684323889999163e+00,-4.491740167140000350e-01,4.887363910680000423e+00,1.003715753560000090e+00,0.000000000000000000e+00
1.540094945999999965e+00,-1.376630591020000072e+00,-9.227380916280000234e-01,-8.747508610849999755e+00,-2.603853642939999991e-01,5.037868976590000436e+00,8.543891310690000518e-01,0.000000000000000000e+00
1.545070222999999965e+00,-1.263259794029999883e+00,-1.075005167110000048e+00,-8.569286717639998940e+00,-1.046027615670000049e-01,5.161155223849999807e+00,7.089540958399999093e-01,0.000000000000000000e+00
1.550081060999999982e+00,-1.125217058739999887e+00,-1.186471737910000046e+00,-8.491267073889998684e+00,7.983860559760001113e-03,5.268312454220000163e+00,5.480100512500000187e-01,0.000000000000000000e+00
1.555107765999999891e+00,-1.020501934959999968e+00,-1.292573274540000039e+00,-8.352945229389998616e+00,7.412710785869999763e-02,5.279308795930000464e+00,3.704984784130000430e-01,0.000000000000000000e+00
1.560077616000000056e+00,-1.367095869949999987e+00,-1.488740135889999872e+00,-8.303966386689999979e+00,1.507657617329999922e-01,5.262053489690000418e+00,2.480861097569999896e-01,0.000000000000000000e+00
1.565306016999999938e+00,-1.852738575470000315e+00,-1.664564612569999991e+00,-8.325515955200000207e+00,1.713783591989999910e-01,5.212003231050000629e+00,1.443700194360000022e-01,0.000000000000000000e+00
1.570261506000000029e+00,-2.472810501970000185e+00,-1.710024633500000002e+00,-8.582376500840000588e+00,1.995683610440000255e-01,5.153216362000000217e+00,7.482555508610000405e-02,0.000000000000000000e+00
1.575204846000000103e+00,-3.137377403749999960e+00,-1.375100751100000185e+00,-8.887108220200000019e+00,2.410319149490000035e-01,5.053821086880000202e+00,3.605073690409999615e-02,0.000000000000000000e+00
1.580274734999999930e+00,-3.685106270829999975e+00,-9.230538795780000028e-01,-9.242025235439999875e+00,2.557252049450000064e-01,4.985698699950000368e+00,-2.175927627830000037e-03,0.000000000000000000e+00
1.585276157000000019e+00,-4.210835195290000499e+00,-6.614600218080000094e-01,-9.870014510929999929e+00,2.892466187480000062e-01,4.942720890050000371e+00,-2.744587138300000340e-02,0.000000000000000000e+00
1.590075939000000105e+00,-4.711135371710000186e+00,-3.005222119059999808e-01,-1.055093224350000014e+01,3.707449436190000114e-01,4.898332118989999984e+00,-3.562256321309999890e-02,0.000000000000000000e+00
1.595121272000000090e+00,-5.454077891080000740e+00,6.158636794169999873e-02,-1.118617192849999853e+01,4.490180313589999805e-01,4.910100936890000156e+00,-1.056903228159999930e-02,0.000000000000000000e+00
1.600054877000000042e+00,-5.992115677480000180e+00,3.110865317470000169e-01,-1.183676700359999856e+01,5.254822969439999492e-01,4.906827449800000629e+00,3.727064654230000107e-02,0.000000000000000000e+00
1.605083803999999947e+00,-6.761154176609999844e+00,6.604967297339999766e-01,-1.244781332760000048e+01,6.035741567610000136e-01,4.916913986209999976e+00,1.065413281320000127e-01,0.000000000000000000e+00
1.610083163000000095e+00,-7.374913266699999248e+00,8.676868702089999275e-01,-1.296260409390000135e+01,7.077143192290000773e-01,4.974602699280000095e+00,1.666115373369999875e-01,0.000000000000000000e+00
1.615275070000000035e+00,-8.014913882500000142e+00,9.610353082529999869e-01,-1.342273504929999994e+01,7.782710790629999709e-01,5.077337265009999712e+00,2.507078051570000299e-01,0.000000000000000000e+00
1.620251080999999926e+00,-8.366416120860000305e+00,8.599685509159999963e-01,-1.358557700259999912e+01,8.874322772029999973e-01,5.188580512999999783e+00,3.171550333500000041e-01,0.000000000000000000e+00
1.625271350000000004e+00,-8.525239486120000265e+00,6.453069055169999846e-01,-1.372990714760000053e+01,9.287025928500000083e-01,5.306143760680000376e+00,3.742116391659999763e-01,0.000000000000000000e+00
1.630260982000000025e+00,-8.508689917859999952e+00,3.111285077250000031e-01,-1.376731654849999842e+01,9.310743212700000049e-01,5.359906196590000782e+00,3.713448643680000161e-01,0.000000000000000000e+00
1.635112659000000024e+00,-8.490669692519999145e+00,-5.837257069409999659e-03,-1.384418000800000037e+01,8.870627880099999363e-01,5.384028911590000632e+00,3.457241058349999618e-01,0.000000000000000000e+00
1.640072234000000018e+00,-8.234827384009999918e+00,-1.252651141860000039e-01,-1.383924313609999857e+01,8.613238334659999440e-01,5.371867656710000105e+00,2.626738250260000074e-01,0.000000000000000000e+00
1.645080094000000104e+00,-8.064040024720000588e+00,-1.338965388680000146e-01,-1.354704531960000047e+01,7.839967012409999603e-01,5.309584617609999668e+00,1.516688913110000037e-01,0.000000000000000000e+00
1.650069828999999988e+00,-8.076603738220001105e+00,-6.948107584740000064e-02,-1.352378485549999887e+01,7.514410614969999624e-01,5.236742019649999413e+00,4.437286406759999996e-02,0.000000000000000000e+00
1.655096974000000110e+00,-8.153605729349999720e+00,1.122137907019999936e-01,-1.370678346160000061e+01,7.427986860279999215e-01,5.162853240969999646e+00,-4.263598844409999256e-02,0.000000000000000000e+00
1.660074046999999942e+00,-8.182794414439998221e+00,5.538597345169999908e-01,-1.380858963910000092e+01,7.788615822789999310e-01,5.094473838809999933e+00,-1.244210749860000104e-01,0.000000000000000000e+00
1.665144656999999917e+00,-8.409201954139998492e+00,8.801385746989999204e-01,-1.384030930400000159e+01,8.474422693249999972e-01,4.986005306240000046e+00,-1.861651390790000082e-01,0.000000000000000000e+00
1.670247862000000083e+00,-8.912744181229999896e+00,7.784474749190000153e-01,-1.392641288549999956e+01,9.935563802719999948e-01,4.896727561949999696e+00,-1.842924207449999907e-01,0.000000000000000000e+00
1.675314477999999996e+00,-9.488232869639999123e+00,2.485888485130000047e-01,-1.395571730589999859e+01,1.129826426509999981e+00,4.793196201319999794e+00,-1.878739297390000229e-01,0.000000000000000000e+00
1.680269400000000024e+00,-1.037339774809999859e+01,-3.577775192400000082e-01,-1.411890880320000008e+01,1.227190732960000030e+00,4.676924228669999906e+00,-1.513342112299999875e-01,0.000000000000000000e+00
1.685286779999999984e+00,-1.049484619919999950e+01,-1.135098474350000108e+00,-1.372212248499999987e+01,1.294692158699999984e+00,4.520051956180000552e+00,-1.617355644700000095e-01,0.000000000000000000e+00
1.690090947000000066e+00,-1.121448967599999946e+01,-9.007391719180000145e-01,-1.388263687210000086e+01,1.307179331779999787e+00,4.377447128300000045e+00,-1.844343692060000095e-01,0.000000000000000000e+00
1.695046878999999951e+00,-1.160046818450000039e+01,-6.077892584299999790e-01,-1.372905608369999797e+01,1.289647102360000019e+00,4.231921672819999536e+00,-2.159449756150000066e-01,0.000000000000000000e+00
1.700067479999999964e+00,-1.156290330069999861e+01,-7.270677816199999643e-01,-1.352546594050000017e+01,1.272899389270000015e+00,4.086821079249999933e+00,-3.140167593959999892e-01,0.000000000000000000e+00
1.705045396999999907e+00,-1.257074997140000150e+01,-6.998238739290000288e-01,-1.348709207839999991e+01,1.290315032010000085e+00,3.951940059659999616e+00,-3.484986126419999941e-01,0.000000000000000000e+00
1.710079643000000038e+00,-1.298758772849999943e+01,-7.873142701270000043e-02,-1.365025902579999872e+01,1.337119460110000047e+00,3.819402217860000004e+00,-4.041253626349999850e-01,0.000000000000000000e+00
1.715268750999999980e+00,-1.379166422329999975e+01,4.115342438690000049e-01,-1.380895438079999948e+01,1.380362868309999991e+00,3.701346158979999856e+00,-4.485780596729999625e-01,0.000000000000000000e+00
1.720245130999999983e+00,-1.458859084630000069e+01,7.437601193539999933e-01,-1.395089500029999918e+01,1.424723863600000140e+00,3.614121198649999922e+00,-4.859658777709999766e-01,0.000000000000000000e+00
1.725237383000000069e+00,-1.523617446460000124e+01,1.173629718920000009e+00,-1.404252698980000069e+01,1.486421227459999939e+00,3.601243257519999741e+00,-5.421419739720000353e-01,0.000000000000000000e+00
1.730150545999999956e+00,-1.542421515650000075e+01,1.217125746300000033e+00,-1.391384566490000019e+01,1.497380137439999981e+00,3.612691164019999679e+00,-6.081976294520000659e-01,0.000000000000000000e+00
1.735108740999999899e+00,-1.559668184720000106e+01,9.984311921239999998e-01,-1.366567520609999953e+01,1.506178021430000014e+00,3.671162366869999971e+00,-6.397458314899999721e-01,0.000000000000000000e+00
1.740069548999999993e+00,-1.526826354730000013e+01,6.229387871689999745e-01,-1.309711777829999946e+01,1.454451918600000226e+00,3.750697612759999799e+00,-6.965371966360000000e-01,0.000000000000000000e+00
1.745074076999999946e+00,-1.463261352790000025e+01,1.172294999719999953e-01,-1.241944297319999890e+01,1.357747554779999755e+00,3.799124956130000452e+00,-7.226112484929999580e-01,0.000000000000000000e+00
1.750074560000000057e+00,-1.371957163150000092e+01,1.842118543389999752e-01,-1.157197157329999904e+01,1.245884895320000130e+00,3.721432924269999720e+00,-7.359620332719999380e-01,0.000000000000000000e+00
1.755070758000000009e+00,-1.280090078929999997e+01,4.134968126460000226e-01,-1.068473865640000042e+01,1.124477624889999916e+00,3.577454328540000450e+00,-7.693818807600000254e-01,0.000000000000000000e+00
1.760075221999999995e+00,-1.231697511680000012e+01,6.051014806500000232e-01,-9.918029477039999264e+00,1.013127207759999981e+00,3.345626592639999952e+00,-8.070521950719999893e-01,0.000000000000000000e+00
1.765076786000000064e+00,-1.216816168900000150e+01,7.952819245379999513e-01,-9.206448310619999020e+00,9.702120423319999798e-01,3.074825763700000270e+00,-8.811628222470000438e-01,0.000000000000000000e+00
1.770257884000000059e+00,-1.254409694229999950e+01,9.091997609450001017e-01,-8.516429572199999853e+00,9.440575838089999561e-01,2.784439325329999715e+00,-9.005249738689998784e-01,0.000000000000000000e+00
1.775109867999999924e+00,-1.298886666239999954e+01,1.044123122110000024e+00,-7.962239107889999445e+00,9.562267661090000370e-01,2.528617382050000195e+00,-9.372733831409999494e-01,0.000000000000000000e+00
1.780070840999999904e+00,-1.374088563769999993e+01,1.082819640250000104e+00,-7.611669766460000375e+00,9.842547774309999831e-01,2.294967651369999917e+00,-9.324018955230000127e-01,0.000000000000000000e+00
1.785100539999999958e+00,-1.443434019579999905e+01,9.561319002509999221e-01,-7.274850133450000200e+00,9.897413849830000165e-01,2.090615510940000199e+00,-9.247153997419998994e-01,0.000000000000000000e+00
1.790068154999999939e+00,-1.489687821230000075e+01,7.373968679319999886e-01,-6.747098178729999951e+00,9.824227094649999881e-01,1.963288307190000026e+00,-9.150071740149999799e-01,0.000000000000000000e+00
1.795000133999999914e+00,-1.498209682769999951e+01,4.431456991200000139e-01,-6.142792561159999387e+00,9.383886456489999306e-01,1.842887163159999897e+00,-9.022083282469999244e-01,0.000000000000000000e+00
1.800275682999999960e+00,-1.468547418049999997e+01,1.587958561950000014e-01,-5.485191406740000275e+00,8.707845807080000222e-01,1.707946658130000017e+00,-9.010972976680000635e-01,0.000000000000000000e+00
1.805116396000000067e+00,-1.409829973039999906e+01,-5.711296712100000228e-02,-4.935300685450000557e+00,7.592347264290000286e-01,1.577782154079999888e+00,-9.448922872539999851e-01,0.000000000000000000e+00
1.810085501000000097e+00,-1.357777480440000062e+01,-5.866416035209999491e-02,-4.492029387190000556e+00,6.248325109480000750e-01,1.378632903099999973e+00,-9.989206790919999968e-01,0.000000000000000000e+00
1.814975524000000062e+00,-1.311137894339999832e+01,1.518585129460000016e-01,-4.065350619550000211e+00,4.574232101440000031e-01,1.146027445789999932e+00,-1.105252623559999980e+00,0.000000000000000000e+00
1.820256590999999924e+00,-1.284691435250000069e+01,4.258613503090000196e-01,-3.795239547200000452e+00,3.261862993240000064e-01,8.933212757109999513e-01,-1.245843052859999966e+00,0.000000000000000000e+00
1.825268714999999986e+00,-1.272700553199999973e+01,7.562787515999999099e-01,-3.654373863440000481e+00,2.045421451330000084e-01,6.633123755459999771e-01,-1.407871603970000107e+00,0.000000000000000000e+00
1.830177479999999912e+00,-1.289093001980000075e+01,1.090042358050000049e+00,-3.777246794389999884e+00,7.964320480819998826e-02,4.576512575150000206e-01,-1.569628953930000126e+00,0.000000000000000000e+00
1.835093453000000041e+00,-1.325205582660000125e+01,1.395849670749999882e+00,-4.062712379999999790e+00,7.058362942189999080e-03,3.025576472279999929e-01,-1.744341731070000012e+00,0.000000000000000000e+00
1.840236186000000052e+00,-1.365499716029999888e+01,1.427448485710000048e+00,-4.415784644160000383e+00,-3.960132971409999897e-02,1.821180582050000163e-01,-1.903460025790000287e+00,0.000000000000000000e+00
1.845132551000000065e+00,-1.363514562790000006e+01,1.298049952379999983e+00,-4.664000987840000612e+00,-1.280342936520000030e-01,1.120011433960000080e-01,-2.072726488109999821e+00,0.000000000000000000e+00
1.850251620000000097e+00,-1.355668408559999882e+01,1.152526944339999915e+00,-4.788854863469999223e+00,-2.214365899559999906e-01,6.439527124169999728e-02,-2.205543279650000077e+00,0.000000000000000000e+00
1.855306976999999913e+00,-1.312387952849999984e+01,9.983847956990000716e-01,-4.795531857019999400e+00,-3.487249314790000221e-01,2.707317285240000079e-02,-2.295951843259999681e+00,0.000000000000000000e+00
1.860233358999999975e+00,-1.237689796289999933e+01,7.839175768930000121e-01,-4.665515484049999273e+00,-4.685242176059999930e-01,-4.482026770710000052e-02,-2.383488893509999595e+00,0.000000000000000000e+00
1.865284971999999986e+00,-1.163171789369999942e+01,6.372203374339999726e-01,-4.507203575450000166e+00,-5.605512857440000385e-01,-1.188354492190000083e-01,-2.429026603700000120e+00,0.000000000000000000e+00
1.870254432000000078e+00,-1.056300378959999975e+01,6.849654005580000371e-01,-4.584819899090000206e+00,-6.278600096699999966e-01,-2.569063305850000090e-01,-2.460150480270000273e+00,0.000000000000000000e+00
1.875311337000000078e+00,-1.283403616619999887e+01,-5.220100500639999197e-01,-1.476117561040000048e+01,-4.018578231330000028e-01,-5.919079184529999482e-01,-2.244295358660000073e+00,0.000000000000000000e+00
1.880283933000000074e+00,-1.351358261050000031e+01,2.449939183340000159e+00,-5.091850845079999743e+00,-7.265114188189999433e-01,-1.922414541240000219e+00,-2.529637336729999575e+00,0.000000000000000000e+00
1.885124835000000054e+00,-1.186212356319999905e+01,-6.496914042120000010e-01,4.206090631110000366e+00,-5.027826428410000492e-01,-2.063898801800000182e+00,-2.370404481890000081e+00,0.000000000000000000e+00
1.890259834000000083e+00,-5.104764687190000316e+00,-2.161657955779999973e+00,8.269849487960000134e-02,-4.387899935249999772e-01,-2.509967088699999849e+00,-2.242397308350000174e+00,0.000000000000000000e+00
1.895318588999999943e+00,-2.090247647170000000e+00,-2.434909591180000055e-01,-3.769740364280000477e+00,-4.361164271829999772e-01,-2.545852661130000083e+00,-2.077647447589999974e+00,0.000000000000000000e+00
1.900090405999999899e+00,-5.346068182729999840e+00,1.616737716379999856e+00,-1.247449675190000029e+01,-5.410181880000000110e-01,-2.480278253559999868e+00,-1.833919882770000065e+00,0.000000000000000000e+00
1.905279772999999954e+00,-3.996809436640000324e-01,6.884235781880000404e-01,-1.544919528400000175e+01,-5.620734691619999612e-01,-2.381207466130000228e+00,-1.779941678050000142e+00,0.000000000000000000e+00
1.910261975999999917e+00,3.900320800869999438e+00,2.402676789170000049e+00,-1.766039716899999945e+01,-5.823182463649999585e-01,-2.291866302490000340e+00,-1.771426558489999969e+00,0.000000000000000000e+00
1.915272099999999922e+00,8.035556273030000085e+00,3.180382432740000098e+00,-1.727852668039999884e+01,-7.136847376819999145e-01,-2.245320796969999755e+00,-1.680467724799999951e+00,0.000000000000000000e+00
1.920244121999999942e+00,4.899646019230000427e+00,1.256605450710000182e+00,-1.561902461190000047e+01,-9.446692466739999849e-01,-2.126089572909999781e+00,-1.277103662490000069e+00,0.000000000000000000e+00
1.925238983999999931e+00,2.554841134920000201e+00,1.961650639479999736e+00,-1.289647479450000134e+01,-1.122894525529999799e+00,-2.313024282459999803e+00,-1.015722990039999996e+00,0.000000000000000000e+00
1.930282547000000015e+00,-1.919159551359999716e+00,4.934893273700000194e+00,-9.953670114739999519e+00,-1.228506445879999909e+00,-2.949667692179999801e+00,-8.637351393700000157e-01,0.000000000000000000e+00
1.935276094000000002e+00,-4.719267240239999772e+00,7.880555096410000182e+00,-9.327581119910000496e+00,-1.209842205049999952e+00,-3.512364387509999908e+00,-9.414340257639999265e-01,0.000000000000000000e+00
1.940089004000000061e+00,-6.781721748339999856e+00,9.071928781020000443e+00,-1.072368418090000119e+01,-9.436409473419999916e-01,-3.889854669569999590e+00,-9.345662593839999532e-01,0.000000000000000000e+00
1.945002882999999905e+00,-9.174338185130000767e+00,1.002561073080000043e+01,-1.215665245289999952e+01,-5.743550658229999994e-01,-3.802402973179999979e+00,-9.395179152490000796e-01,0.000000000000000000e+00
1.949985780000000002e+00,-9.614743280309999918e+00,9.311285818669999159e+00,-1.371827633099999844e+01,-6.144255772229999940e-02,-3.449836015699999869e+00,-8.823137283329999248e-01,0.000000000000000000e+00
1.955017943999999952e+00,-9.327170201019999496e+00,6.968891502639999125e+00,-1.362845635930000121e+01,3.791312277319999757e-01,-2.793097019200000197e+00,-6.697950363160000142e-01,0.000000000000000000e+00
1.959992804000000088e+00,-7.788200637839999274e+00,3.870073254390000272e+00,-1.344429104760000016e+01,5.616510510440000381e-01,-2.073636770250000261e+00,-3.169456124310000011e-01,0.000000000000000000e+00
1.965021330999999982e+00,-4.578976433760000297e+00,2.135462753430000138e+00,-1.232021804430000067e+01,5.681619644169999539e-01,-1.674201726910000243e+00,2.173709683120000034e-03,0.000000000000000000e+00
1.970052260000000111e+00,-2.750250602039999936e+00,1.201600698779999865e+00,-1.083764841369999843e+01,4.800949990749999730e-01,-1.518773317339999984e+00,2.191693186760000078e-01,0.000000000000000000e+00
1.975077554999999929e+00,-1.178559868799999855e+00,1.170402062110000196e+00,-9.580583821080001172e+00,4.191067218779999659e-01,-1.647384405139999952e+00,2.095482796429999905e-01,0.000000000000000000e+00
1.980275113999999892e+00,-3.903677198630000067e-01,1.220750731870000161e+00,-9.255756239149999232e+00,4.457454383370000328e-01,-1.952005028720000146e+00,-2.224283851679999952e-02,0.000000000000000000e+00
1.985282366999999937e+00,-9.669460666660000259e-01,1.205811119550000005e-01,-9.095791887160000755e+00,5.612261891369999534e-01,-2.185319900510000135e+00,-2.784235179419999873e-01,0.000000000000000000e+00
1.990099132000000104e+00,-1.818713117879999785e+00,-1.187480403489999947e+00,-1.004008699999999976e+01,6.182659268379999684e-01,-2.328568458559999943e+00,-4.634026885029999820e-01,0.000000000000000000e+00
1.995071924999999968e+00,-2.503701022530000042e+00,-1.498997764399999877e+00,-1.036594509400000064e+01,5.842603445049999733e-01,-2.376465320590000374e+00,-5.468165874479999911e-01,0.000000000000000000e+00
2.000227474999999977e+00,-3.629831542850000314e+00,-1.249478375310000056e+00,-1.114453877240000068e+01,4.161371886729999803e-01,-2.338088989260000083e+00,-4.691595435140000214e-01,0.000000000000000000e+00
2.005213896999999967e+00,-4.417694861700000253e+00,-4.840836395120000080e-01,-1.424167009049999955e+01,1.046626791359999975e-01,-2.217495203020000361e+00,-3.333590626719999950e-01,0.000000000000000000e+00
2.010075725000000091e+00,-6.512160711089999943e+00,-2.969056434570000125e+00,-1.517378376709999976e+01,-2.917915880679999852e-01,-2.063607454300000033e+00,-8.078865706919999279e-02,0.000000000000000000e+00
2.015247571999999820e+00,-9.149314803039999333e+00,-2.207870110250000018e+00,-1.308679862890000045e+01,-5.135578513149999802e-01,-1.855288982390000285e+00,2.020706832409999987e-01,0.000000000000000000e+00
2.020080640000000205e+00,-9.137478234770000540e+00,-4.739786077459999802e-01,-1.133506251329999870e+01,-5.949919223790000045e-01,-1.568177580830000029e+00,3.109529614450000090e-01,0.000000000000000000e+00
2.025278515000000112e+00,-8.197693292880000371e+00,-7.324886376250000497e-01,-1.222225918980000081e+01,-4.433362185959999757e-01,-1.244523406029999890e+00,2.515655457970000231e-01,0.000000000000000000e+00
2.030271355000000000e+00,-7.498823724000000190e+00,-1.853147740800000109e+00,-1.131508589319999913e+01,-2.359407097100000017e-01,-8.598772883419999458e-01,1.287525147200000164e-01,0.000000000000000000e+00
2.035257914999999862e+00,-5.933343170519999710e+00,-3.067488313360000052e-01,-1.116924183650000124e+01,-9.570638090369999740e-02,-5.599796771999999700e-01,4.680832847950000541e-02,0.000000000000000000e+00
2.040163891000000174e+00,-3.912586115940000386e+00,1.965385003710000023e+00,-1.120127363609999982e+01,-1.481664329769999955e-01,-4.464994072909999612e-01,4.102488234639999759e-02,0.000000000000000000e+00
2.045263821999999898e+00,-2.825008905899999867e+00,2.226282111379999762e+00,-1.040736080789999995e+01,-2.168633639810000069e-01,-4.761400520800000424e-01,6.326273083689999688e-02,0.000000000000000000e+00
2.050247810000000115e+00,-2.873227577890000273e+00,8.289503123180000932e-01,-9.975302100830001351e+00,-1.885701119900000111e-01,-4.469366669650000068e-01,9.472404420379999801e-02,0.000000000000000000e+00
2.055263624000000178e+00,-3.012521482290000385e+00,-1.942407886609999745e-01,-9.897813202960000112e+00,-9.597659856080001384e-02,-4.549895524979999939e-01,1.601424813269999858e-01,1.000000000000000000e+00
2.060260421000000175e+00,-3.220101279670000149e+00,-5.506441334720000302e-01,-9.729138305770000272e+00,-2.916294895109999841e-02,-4.438047111029999603e-01,1.387441158290000087e-01,1.000000000000000000e+00
2.065289475000000152e+00,-3.320332755219999932e+00,-7.179827770839999346e-01,-9.891336700420000128e+00,-1.369760837410000098e-03,-4.218236505990000107e-01,8.426962047819999690e-02,1.000000000000000000e+00
2.070144943999999931e+00,-3.119983201359999736e+00,-5.236007898539999372e-01,-1.003286347839999948e+01,-3.162745758890000286e-02,-3.951902687550000182e-01,2.046747319400000001e-02,1.000000000000000000e+00
2.075263742000000189e+00,-2.862872772609999839e+00,-1.112051707819999985e-01,-9.800777893099999361e+00,-9.906309843060000231e-02,-3.455792367459999959e-01,-8.508572354909999663e-03,1.000000000000000000e+00
2.080290307999999921e+00,-2.250987951960000011e+00,7.308091783710000955e-02,-9.360090473850000592e+00,-1.381841301920000153e-01,-2.829326689239999859e-01,3.562282770869999726e-02,1.000000000000000000e+00
2.085288026000000183e+00,-1.784192277990000353e+00,-2.715908077859999770e-01,-9.246645880980000953e+00,-1.619109809400000044e-01,-2.516287863250000201e-01,1.123618930579999980e-01,1.000000000000000000e+00
2.090105886999999996e+00,-1.504609320669999972e+00,-4.452675501120000323e-01,-9.283626827370000001e+00,-1.670716851950000137e-01,-2.780397832389999713e-01,1.727560460570000123e-01,1.000000000000000000e+00
2.095270558000000172e+00,-1.342276924379999903e+00,-8.696050518549999220e-01,-9.357757646989998790e+00,-1.916781216860000137e-01,-3.285539150239999984e-01,1.860878765579999927e-01,1.000000000000000000e+00
2.100116859999999974e+00,-1.606186804010000024e+00,-1.270710548429999864e+00,-9.379173944499999749e+00,-2.199326455589999951e-01,-4.183387458319999808e-01,1.755421012640000222e-01,1.000000000000000000e+00
2.105077452000000182e+00,-1.920733376550000093e+00,-1.407209853670000177e+00,-9.216431359979999627e+00,-2.529593110080000096e-01,-4.999572038650000327e-01,1.468414813279999842e-01,0.000000000000000000e+00
2.110266992000000119e+00,-1.996333830330000003e+00,-1.630344655320000058e+00,-9.174479639430000333e+00,-3.102600276470000029e-01,-5.456134676930000094e-01,1.400988698010000033e-01,0.000000000000000000e+00
2.115128046999999789e+00,-2.156906669600000104e+00,-1.461350901450000128e+00,-9.326616074269999501e+00,-3.378732204439999776e-01,-5.503907203669999859e-01,1.842509359120000079e-01,0.000000000000000000e+00
2.120218178000000009e+00,-1.892419136220000020e+00,-1.447148480830000139e+00,-9.513626838610001357e+00,-3.922633230690000250e-01,-5.238799452779999699e-01,2.117635458709999918e-01,0.000000000000000000e+00
2.125272440999999901e+00,-2.172873615669999925e+00,-1.179244855389999902e+00,-9.731877959869999373e+00,-4.338776171209999810e-01,-4.957047402859999785e-01,2.432215511799999952e-01,0.000000000000000000e+00
2.130293212999999852e+00,-3.059000032609999753e+00,-8.097136969289998876e-02,-9.795195709050000588e+00,-4.726047515869999938e-01,-5.008535385129999629e-01,2.775080502030000118e-01,0.000000000000000000e+00
2.135069340999999898e+00,-3.564351647209999641e+00,6.800239255679999539e-01,-9.652530282389999883e+00,-4.930886924270000415e-01,-5.010986924170000023e-01,2.739879786969999786e-01,0.000000000000000000e+00
2.140071454000000095e+00,-3.726851947410000143e+00,1.044791157559999961e+00,-9.649017890349998794e+00,-4.890635311600000645e-01,-4.802204072479999697e-01,2.444488406179999851e-01,0.000000000000000000e+00
2.145303009000000038e+00,-3.844247031469999687e+00,1.297258948139999868e+00,-9.522349658770000502e+00,-4.147326052189999612e-01,-4.247399866580000016e-01,2.178528159860000091e-01,0.000000000000000000e+00
2.150257034000000012e+00,-3.592062076429999973e+00,1.016774219670000035e+00,-9.358268519119999240e+00,-3.658438026910000307e-01,-3.492110371589999818e-01,2.321354895829999820e-01,0.000000000000000000e+00
2.155270819000000060e+00,-3.299132438540000489e+00,6.349346376500000222e-01,-9.535572712960000530e+00,-3.392655253410000182e-01,-2.773440182209999660e-01,2.201436460020000097e-01,0.000000000000000000e+00
2.160098172000000094e+00,-3.411257473250000061e+00,6.831466606980000078e-01,-9.469809324199999878e+00,-3.263399600979999815e-01,-2.412902712819999795e-01,2.565776705739999941e-01,0.000000000000000000e+00
2.165285610000000194e+00,-3.209606189140000509e+00,9.252714094969999303e-01,-9.484353982380000048e+00,-3.575743436810000508e-01,-2.355351895089999870e-01,2.470630407330000056e-01,0.000000000000000000e+00
2.170079053999999896e+00,-3.226285228999999699e+00,1.123341839449999879e+00,-9.574657353639999258e+00,-3.664688765999999376e-01,-2.569725811479999789e-01,2.158611416820000184e-01,0.000000000000000000e+00
2.175076030000000049e+00,-3.214941704950000201e+00,1.168113439719999924e+00,-9.474444582780000346e+00,-3.466260135170000090e-01,-2.592428028579999988e-01,1.939658522610000213e-01,0.000000000000000000e+00
2.180080191000000056e+00,-3.228639390909999740e+00,9.271686944859999224e-01,-9.437692184450000354e+00,-3.087157309059999633e-01,-2.548645734789999895e-01,1.507496982809999886e-01,1.000000000000000000e+00
2.185039494000000193e+00,-3.259813404590000019e+00,7.794368512819999095e-01,-9.447427981040000589e+00,-2.681499421599999877e-01,-2.263526618479999863e-01,1.452144384379999986e-01,1.000000000000000000e+00
2.190076753000000043e+00,-3.024695904210000119e+00,7.760032235719999116e-01,-9.482178391899999781e+00,-2.690281867980000019e-01,-1.842671930789999968e-01,1.269267946479999964e-01,1.000000000000000000e+00
2.195299048999999947e+00,-2.969146450940000292e+00,7.967115189489999416e-01,-9.534463874940000139e+00,-2.491822838780000104e-01,-1.611522138120000114e-01,1.156959980729999893e-01,1.000000000000000000e+00
2.200249727000000100e+00,-2.987209346380000241e+00,8.924998244259999547e-01,-9.471243156389999029e+00,-2.562381029129999765e-01,-1.523992866279999803e-01,1.017067655919999952e-01,1.000000000000000000e+00
2.205210281999999911e+00,-3.013929887779999817e+00,7.196766484550001231e-01,-9.513983396969999617e+00,-2.877508699890000132e-01,-1.429755836730000063e-01,9.863172471519998652e-02,1.000000000000000000e+00
2.210268332000000058e+00,-3.121386053889999790e+00,7.390978266309999878e-01,-9.524519404030000302e+00,-2.616620361800000016e-01,-1.381257623430000026e-01,8.183619379999999832e-02,1.000000000000000000e+00
2.215112725000000005e+00,-3.091497403850000047e+00,6.016209450580000118e-01,-9.446235556379999565e+00,-2.476575225590000040e-01,-1.168381571770000099e-01,7.494485378269999387e-02,1.000000000000000000e+00
2.220068315999999875e+00,-2.997836831109999878e+00,5.745233139700000047e-01,-9.368299499269999941e+00,-2.274049967529999938e-01,-1.018987372519999934e-01,7.932002842429999867e-02,1.000000000000000000e+00
2.225224416000000094e+00,-2.928176727169999882e+00,7.055381599219999744e-01,-9.334427040279999588e+00,-2.475969046350000036e-01,-1.072908639910000045e-01,6.517710536719999170e-02,1.000000000000000000e+00
2.230289115999999794e+00,-2.883355880929999948e+00,5.460920596580000064e-01,-9.315967254480000292e+00,-2.568296194079999761e-01,-9.610284864899999724e-02,5.920376628639999889e-02,1.000000000000000000e+00
2.235076510999999932e+00,-2.886632126119999864e+00,5.115290611249999619e-01,-9.460145423789999342e+00,-2.646256089210000106e-01,-6.312207877640001186e-02,5.617595463990000121e-02,1.000000000000000000e+00
2.240097403000000043e+00,-2.977271012950000184e+00,4.831834392689999813e-01,-9.331247825720000222e+00,-2.780459821219999905e-01,-4.429151117800000231e-02,6.023802235719999398e-02,1.000000000000000000e+00
2.245262988999999987e+00,-3.063311758330000245e+00,6.039234133140000127e-01,-9.314088016610000409e+00,-2.687949240210000257e-01,-3.858194127680000113e-02,4.328080639240000638e-02,1.000000000000000000e+00
2.250262363000000043e+00,-3.072815791990000100e+00,8.026402514110000386e-01,-9.423072122939998962e+00,-2.803913354870000152e-01,-2.523799426849999972e-02,5.520799756050000229e-02,1.000000000000000000e+00
2.255269510000000199e+00,-2.969063156569999862e+00,7.945959150350000444e-01,-9.366270039269998904e+00,-2.778148651119999868e-01,1.756171928720000157e-03,4.409645125269999466e-02,1.000000000000000000e+00
2.260254784999999877e+00,-2.904774808800000052e+00,7.755081335310000101e-01,-9.343168565139999160e+00,-2.614809274670000239e-01,-7.762791588899999734e-03,3.669459000230000656e-02,1.000000000000000000e+00
2.265252400000000055e+00,-2.979234129709999568e+00,7.471126446520001130e-01,-9.362996132160001039e+00,-2.430967390540000050e-01,5.303123965859999484e-03,2.122045122090000097e-02,1.000000000000000000e+00
2.270055806999999870e+00,-3.029351913320000200e+00,8.054062820580000226e-01,-9.364426457230001333e+00,-2.363145351410000095e-01,4.171461611990000262e-02,2.808581478890000496e-02,1.000000000000000000e+00
2.275237986000000046e+00,-3.144432875220000145e+00,9.030747752580000620e-01,-9.397505135489998551e+00,-2.370696663859999942e-01,2.885435335340000296e-02,3.400071337820000095e-02,1.000000000000000000e+00
2.280104826000000084e+00,-2.904066952790000489e+00,8.055573809670000252e-01,-9.305331878700000559e+00,-2.301975786690000081e-01,4.078986495729999828e-02,2.831880189479999560e-02,1.000000000000000000e+00
2.285161510000000007e+00,-2.770102134459999643e+00,7.525132615870000485e-01,-9.340451122879999346e+00,-2.273333370689999966e-01,5.961573868990000663e-02,1.178725995120000029e-02,1.000000000000000000e+00
2.290106049999999893e+00,-2.650001298559999885e+00,7.721804504129999858e-01,-9.476429034600000634e+00,-2.113308310509999788e-01,5.765141546730000871e-02,1.452304981649999924e-02,1.000000000000000000e+00
2.295290141999999811e+00,-2.834184146000000126e+00,8.465889179269999731e-01,-9.475235440900000583e+00,-1.990060508250000026e-01,5.858021229509999955e-02,1.844749040899999748e-02,1.000000000000000000e+00
2.300102234000000134e+00,-2.878768553140000019e+00,6.340083165850000091e-01,-9.322920726880001396e+00,-1.887993216509999961e-01,4.088369384409999696e-02,1.612750068309999965e-02,1.000000000000000000e+00
2.305195930000000004e+00,-2.734561450000000171e+00,6.930095908040000419e-01,-9.310196269869999597e+00,-1.729692518710000126e-01,4.151094704869999485e-02,2.314643003050000092e-02,1.000000000000000000e+00
2.310320857999999866e+00,-2.790055373679999562e+00,8.496437754530000719e-01,-9.387648927380000785e+00,-1.737650185819999971e-01,2.693282812829999803e-02,1.633135043080000126e-02,1.000000000000000000e+00
2.315302797000000190e+00,-2.795753877580000157e+00,9.069807697210000574e-01,-9.357213457110001187e+00,-1.642385721209999871e-01,3.725519031290000505e-02,1.537298783659999876e-02,1.000000000000000000e+00
2.320080197999999871e+00,-2.796141707859999936e+00,7.198194179269998827e-01,-9.402578785489998481e+00,-1.777245849370000241e-01,4.705965518950000481e-02,1.788215339180000002e-02,1.000000000000000000e+00
2.325281493999999949e+00,-2.754634223949999683e+00,7.952533560300000248e-01,-9.469639228330001046e+00,-1.757183372969999824e-01,4.670840874309999807e-02,1.500566303729999884e-02,1.000000000000000000e+00
2.330119224999999794e+00,-2.776630951700000072e+00,9.546513793690000194e-01,-9.468407056180000225e+00,-1.537526249889999974e-01,3.731602430340000276e-02,2.344784699380000198e-02,1.000000000000000000e+00
2.335097698999999860e+00,-2.690822261509999702e+00,9.162687494830000778e-01,-9.473926696389998625e+00,-1.493538022039999913e-01,2.895216830069999997e-02,2.686389721929999946e-02,1.000000000000000000e+00
2.340090367999999810e+00,-2.625525321220000041e+00,9.215847568739999884e-01,-9.534484917720000396e+00,-1.211334988470000040e-01,2.923631854359999907e-02,1.219822838900000081e-02,1.000000000000000000e+00
2.345092768000000216e+00,-2.759561451219999739e+00,8.602861654979999662e-01,-9.494200253609999862e+00,-1.211378425359999900e-01,-1.523035764689999877e-02,3.678160533310000091e-02,1.000000000000000000e+00
2.350078073999999795e+00,-2.657626971140000016e+00,8.148388579230000373e-01,-9.510267006789998590e+00,-1.162279546259999963e-01,-7.658502086999999410e-03,2.484795078640000127e-02,1.000000000000000000e+00
2.355268183000000182e+00,-2.844595942159999780e+00,8.691491247810000376e-01,-9.462315753569999544e+00,-9.906870871780000531e-02,-4.398482292889999840e-02,5.572187155490000016e-02,1.000000000000000000e+00
2.360297407000000014e+00,-2.679313317770000147e+00,7.214630934800000395e-01,-9.449417109029999651e+00,-1.091872528199999970e-01,-5.953665077689999918e-02,4.567372798919999699e-02,1.000000000000000000e+00
2.365151576999999783e+00,-2.744316828079999659e+00,6.705839701150000387e-01,-9.438121808029999116e+00,-1.162098050119999976e-01,-5.238612368700000521e-02,4.456728324289999793e-02,1.000000000000000000e+00
2.370288755999999886e+00,-2.825663570420000159e+00,7.520454979449999744e-01,-9.393038803730000552e+00,-1.058614253999999866e-01,-5.006078630690000142e-02,5.822068825360000172e-02,1.000000000000000000e+00
2.375276272999999883e+00,-2.970923105220000249e+00,9.347881565140000459e-01,-9.372920729330001421e+00,-1.072429269549999981e-01,-7.367768883710000549e-02,6.331230700019999103e-02,1.000000000000000000e+00
2.380283372000000064e+00,-2.859998386219999578e+00,1.103942215520000047e+00,-9.304178032490000305e+00,-9.655708819630000328e-02,-6.115876883270000147e-02,6.090109422799999672e-02,1.000000000000000000e+00
2.385116201999999852e+00,-2.800607455099999754e+00,1.135151373579999845e+00,-9.377032256299999702e+00,-8.670939505100000444e-02,-6.363040208819999155e-02,6.740962713959999797e-02,1.000000000000000000e+00
2.390094431000000075e+00,-2.799719858610000056e+00,1.171930732989999946e+00,-9.384682478789999394e+00,-8.393143117429999189e-02,-7.796519994739999071e-02,7.744010537860000765e-02,1.000000000000000000e+00
2.395096577999999976e+00,-2.670879835940000113e+00,1.050623443909999954e+00,-9.489732168280001545e+00,-5.847354605790000548e-02,-5.982869490980000093e-02,5.902674794200000324e-02,1.000000000000000000e+00
2.400199377999999939e+00,-2.735038712120000159e+00,1.029396823749999967e+00,-9.477046874230000029e+00,-6.152553483840000198e-02,-7.835932821039999496e-02,6.281892955300000247e-02,1.000000000000000000e+00
2.405154897000000069e+00,-2.735606867400000031e+00,9.396280708259999725e-01,-9.413698145399999717e+00,-4.074013605709999458e-02,-1.024396494030000021e-01,5.528430268170000245e-02,1.000000000000000000e+00
2.410066107000000013e+00,-2.689158419950000045e+00,9.887189225350000443e-01,-9.354740929510001024e+00,-3.206451237199999665e-02,-1.035039350390000029e-01,5.078085139390000474e-02,1.000000000000000000e+00
2.415289652999999870e+00,-2.585342363909999719e+00,8.967804243549999388e-01,-9.351213339910000144e+00,-4.828961193559999643e-02,-1.406938284639999981e-01,4.755789786580000289e-02,1.000000000000000000e+00
2.420135997000000039e+00,-2.446556847420000125e+00,7.710635752130000631e-01,-9.518353867130000978e+00,-3.740176558489999997e-02,-1.382879763840000054e-01,5.404133349660000113e-02,1.000000000000000000e+00
2.425341716000000147e+00,-2.539353350669999898e+00,8.460582451160000295e-01,-9.555185760449999677e+00,-4.176175221799999920e-02,-1.715018302200000122e-01,5.416954681279999989e-02,1.000000000000000000e+00
2.430291915999999830e+00,-2.595107971120000023e+00,8.309284805230000570e-01,-9.533604043239998660e+00,-6.036705151200000286e-02,-2.011307626959999983e-01,6.197263672949999275e-02,1.000000000000000000e+00
2.435107952000000076e+00,-2.662912218059999780e+00,8.691667335029999997e-01,-9.540326044969999586e+00,-5.523626133799999782e-02,-2.232224792240000144e-01,7.115262746809999927e-02,1.000000000000000000e+00
2.440094166000000175e+00,-2.740194195189999959e+00,8.927335601170000023e-01,-9.464033078880000005e+00,-7.093837112190000405e-02,-2.608352303500000025e-01,7.623843103649999287e-02,1.000000000000000000e+00
2.445286911000000174e+00,-2.704977043590000463e+00,1.052343984099999963e+00,-9.559386134749999542e+00,-3.707888722419999672e-02,-2.597762048239999899e-01,8.341787755489998846e-02,1.000000000000000000e+00
2.450126018000000183e+00,-2.626277893150000153e+00,1.231694296810000200e+00,-9.578162146889999562e+00,-3.986075147990000150e-02,-2.944942116739999727e-01,6.421320140359999817e-02,1.000000000000000000e+00
2.455227976999999839e+00,-2.672187119149999734e+00,1.181169905169999979e+00,-9.653454996020000678e+00,-3.203300759199999986e-02,-2.991752326489999780e-01,5.630059167740000120e-02,1.000000000000000000e+00
2.460261173000000134e+00,-2.779323844049999881e+00,1.120433696919999944e+00,-9.701523738139998798e+00,-1.725642709059999839e-03,-3.264016211030000281e-01,5.428979173299999794e-02,1.000000000000000000e+00
2.465118276000000108e+00,-2.757131009200000094e+00,1.239491234299999967e+00,-9.676962128339999580e+00,9.632130386310000731e-04,-3.476234674449999451e-01,5.546636506919999654e-02,1.000000000000000000e+00
2.470282275999999833e+00,-2.732754692840000388e+00,1.119313241520000002e+00,-9.530817627390000268e+00,9.939457289870000031e-03,-3.874890506270000090e-01,6.980101764200000170e-02,1.000000000000000000e+00
2.475235803999999984e+00,-2.547189743390000150e+00,1.275887658809999881e+00,-9.532951132290000018e+00,3.755059838290000090e-02,-3.853946626190000169e-01,4.868948087100000155e-02,1.000000000000000000e+00
2.480291103999999969e+00,-2.759409475529999600e+00,1.309273211060000053e+00,-9.591277649049999354e+00,3.852000460030000073e-02,-4.026540517809999997e-01,5.246072262530000058e-02,1.000000000000000000e+00
2.485106818000000217e+00,-2.816556427120000095e+00,9.341401409339999962e-01,-9.807405202280000012e+00,7.081758230920000285e-02,-4.235067665580000140e-01,5.270801857110000294e-02,1.000000000000000000e+00
2.490100431000000114e+00,-2.786903339390000234e+00,1.021681573199999971e+00,-9.842838919229999206e+00,9.101161360739998263e-02,-4.389759600159999775e-01,6.232080981140000059e-02,1.000000000000000000e+00
2.495097373000000118e+00,-2.787979444190000322e+00,1.209082578970000155e+00,-9.776707866200000652e+00,1.174531504509999935e-01,-4.769835770130000374e-01,6.078875437379999830e-02,1.000000000000000000e+00
2.500093607999999801e+00,-2.888950924460000014e+00,9.842793326530000497e-01,-9.659138302349999705e+00,1.240473315120000086e-01,-5.032424926759999639e-01,8.598762005570000089e-02,1.000000000000000000e+00
2.505295193999999892e+00,-2.745826063590000476e+00,9.884523805539999763e-01,-9.827565362260001436e+00,1.355483233929999920e-01,-5.337646603580000759e-01,8.325789123769999911e-02,0.000000000000000000e+00
2.510284632999999932e+00,-2.516163321480000103e+00,1.237965632170000108e+00,-1.003551720779999989e+01,1.705727577210000290e-01,-5.475013852119999802e-01,8.473111689089998788e-02,0.000000000000000000e+00
2.515287912999999875e+00,-2.639004103730000050e+00,1.160931930720000116e+00,-1.004957028309999956e+01,2.171944528819999831e-01,-5.833656191830000060e-01,9.148979187010002068e-02,0.000000000000000000e+00
2.520113095000000136e+00,-2.688411985500000156e+00,9.502860237669999988e-01,-9.948564900550000090e+00,2.798043191429999688e-01,-6.274276971819999771e-01,9.442155063149999805e-02,0.000000000000000000e+00
2.525092635000000030e+00,-2.758564841399999690e+00,9.986336558930000162e-01,-1.015615434250000071e+01,3.001710772510000069e-01,-6.711975336069999631e-01,1.065499559039999877e-01,0.000000000000000000e+00
2.530092161999999867e+00,-2.673643455440000150e+00,1.220799027989999841e+00,-1.028906409889999907e+01,3.275098502639999798e-01,-7.475640177729999669e-01,1.188409253950000050e-01,0.000000000000000000e+00
2.535315874000000136e+00,-2.597179224440000045e+00,1.386962599939999929e+00,-1.032079077799999922e+01,3.494282960890000567e-01,-7.950311899190000142e-01,1.046329513189999949e-01,0.000000000000000000e+00
2.540059906999999839e+00,-2.538557816379999998e+00,1.242496261340000130e+00,-1.049011390999999982e+01,3.451647460459999484e-01,-8.483395576479999534e-01,9.850585460660001014e-02,0.000000000000000000e+00
2.545274733999999928e+00,-2.471271748089999942e+00,1.229076953919999937e+00,-1.053046228700000064e+01,3.420469164850000188e-01,-9.091743230819999688e-01,5.648284405469999880e-02,0.000000000000000000e+00
2.550118498999999872e+00,-2.341987634920000172e+00,1.145641422610000015e+00,-1.062607603960000091e+01,3.395114243029999646e-01,-9.591665863989999874e-01,2.500347048040000089e-02,0.000000000000000000e+00
2.555205582000000142e+00,-2.478288933380000003e+00,1.052998721680000083e+00,-1.066008118499999924e+01,2.869512140749999607e-01,-1.059017062189999914e+00,2.922356594349999857e-03,0.000000000000000000e+00
2.560116921000000101e+00,-2.439537470179999890e+00,8.393585282819999716e-01,-1.087157757130000135e+01,2.870985865590000019e-01,-1.155751585960000050e+00,-2.601217664779999911e-02,0.000000000000000000e+00
2.565288316000000179e+00,-2.467912793059999998e+00,6.971615959169999988e-01,-1.095023317489999926e+01,2.559599280359999840e-01,-1.256803274150000149e+00,-4.353921115399999459e-02,0.000000000000000000e+00
2.570305707999999800e+00,-2.538138129660000075e+00,9.839874370340000453e-01,-1.123645717770000019e+01,2.343426793809999797e-01,-1.349041700360000151e+00,-6.172303110360000122e-02,0.000000000000000000e+00
2.575137658000000052e+00,-2.817166083450000080e+00,1.568549293400000044e+00,-1.089045412119999945e+01,2.509371042249999850e-01,-1.501040577890000005e+00,-9.334219992160000534e-02,0.000000000000000000e+00
2.580285539000000128e+00,-2.947395514639999714e+00,2.226780416290000009e+00,-1.064485438980000076e+01,2.580963671209999810e-01,-1.579796314239999999e+00,-1.584211140869999923e-01,0.000000000000000000e+00
2.585118202999999948e+00,-2.658922271649999836e+00,2.077694016679999756e+00,-1.071057920009999975e+01,3.046785891059999862e-01,-1.681110501290000059e+00,-2.236303091050000080e-01,0.000000000000000000e+00
2.590098611999999800e+00,-2.882961620920000190e+00,1.677236170360000056e+00,-1.073387473549999882e+01,3.552217781539999675e-01,-1.765219450000000023e+00,-2.581201195719999841e-01,0.000000000000000000e+00
2.595062360000000012e+00,-2.910536148799999889e+00,1.747520543680000094e+00,-1.072462643019999895e+01,4.156039357190000061e-01,-1.846638083459999802e+00,-2.814011573790000109e-01,0.000000000000000000e+00
2.600099272000000017e+00,-2.807849681310000012e+00,1.778103897990000348e+00,-1.059135310119999929e+01,4.346716701980000153e-01,-1.931651234630000102e+00,-3.119524717330000030e-01,0.000000000000000000e+00
2.605063406999999831e+00,-2.804348687450000099e+00,1.629061045250000062e+00,-1.090649690900000124e+01,4.586345851420000064e-01,-2.038061618800000030e+00,-3.411819338800000656e-01,0.000000000000000000e+00
2.610298450000000159e+00,-2.849742072879999810e+00,1.321192489170000206e+00,-1.129666176329999949e+01,4.548815488819999975e-01,-2.157454729079999911e+00,-3.468453288080000085e-01,0.000000000000000000e+00
2.615288540999999967e+00,-2.766007266359999939e+00,1.297898999610000104e+00,-1.145904662039999877e+01,4.445725977419999753e-01,-2.269983053209999824e+00,-3.250221908089999667e-01,0.000000000000000000e+00
2.620074799999999815e+00,-2.565161745670000215e+00,1.668519633810000125e+00,-1.147085863869999933e+01,4.312976300720000045e-01,-2.426159381870000242e+00,-3.465577960010000069e-01,0.000000000000000000e+00
2.625292307000000047e+00,-2.447725891200000170e+00,1.662274601940000096e+00,-1.173523087519999919e+01,4.468846619129999698e-01,-2.567546844479999812e+00,-3.697765171530000283e-01,0.000000000000000000e+00
2.630076458000000006e+00,-2.390884644559999828e+00,1.434209504280000047e+00,-1.180054885829999911e+01,4.559604823589999967e-01,-2.725086450579999653e+00,-3.738786280160000253e-01,0.000000000000000000e+00
2.635098331000000016e+00,-2.093391205890000162e+00,1.307308194589999806e+00,-1.232910745319999890e+01,4.124251306060000011e-01,-2.889846801760000083e+00,-3.825754225249999863e-01,0.000000000000000000e+00
2.640096003000000024e+00,-1.698625725999999947e+00,1.092318047889999866e+00,-1.283196228249999926e+01,3.620107769969999612e-01,-3.055711984629999822e+00,-4.035285115240000442e-01,0.000000000000000000e+00
2.645282520999999942e+00,-1.322079062750000089e+00,5.877583873899999700e-01,-1.323870067040000009e+01,2.985971868039999921e-01,-3.272818565370000155e+00,-4.007930755620000007e-01,0.000000000000000000e+00
2.650316611000000044e+00,-7.550893226199999475e-01,3.869096152979999981e-01,-1.352856624460000035e+01,2.327342778439999982e-01,-3.520537137990000343e+00,-3.823803961280000108e-01,0.000000000000000000e+00
2.655152538999999923e+00,-7.282320030940000466e-01,1.041034124850000048e-01,-1.378328919369999817e+01,1.294124126429999910e-01,-3.809614658359999684e+00,-3.815567791460000024e-01,0.000000000000000000e+00
2.660074926000000062e+00,5.743639952220000802e-03,-1.794176240659999810e-01,-1.422996094799999867e+01,-5.458388477560000007e-03,-4.125039577479999942e+00,-3.829110860819999740e-01,0.000000000000000000e+00
2.665286303999999884e+00,1.502920216810000043e-01,-8.652320974680000054e-01,-1.452612649910000009e+01,-1.524713188409999864e-01,-4.448158741000000305e+00,-3.700926303859999877e-01,0.000000000000000000e+00
2.670119299000000002e+00,-8.079736483280001427e-04,-1.891688629979999980e+00,-1.459349030880000164e+01,-3.171961903570000296e-01,-4.820032119750000454e+00,-3.491255640979999963e-01,0.000000000000000000e+00
2.675306522000000076e+00,-2.745652752849999656e-01,-2.668744869740000247e+00,-1.418910169890000184e+01,-5.562357306480000263e-01,-5.227219581599999998e+00,-2.923118770120000098e-01,0.000000000000000000e+00
2.680242776000000049e+00,-1.147203666950000062e-01,-4.167507510210000099e+00,-1.431427939960000018e+01,-8.726630806919999372e-01,-5.631217956540000458e+00,-2.646916508669999724e-01,0.000000000000000000e+00
2.685269783999999937e+00,-1.531085970320000156e+00,-5.026613526020000222e+00,-1.401794667529999927e+01,-1.294203758240000113e+00,-5.984393596649999481e+00,-2.556062936780000294e-01,0.000000000000000000e+00
2.690293241000000002e+00,-1.854553515940000175e+00,-5.429318128350000272e+00,-1.385495742260000007e+01,-1.807413339610000058e+00,-6.343867301940000480e+00,-2.531889080999999986e-01,0.000000000000000000e+00
2.695333658000000021e+00,-4.296612905819999995e+00,-6.129808576430000322e+00,-1.426997147140000166e+01,-2.335704326629999716e+00,-6.597155094149999677e+00,-3.421643376349999821e-01,0.000000000000000000e+00
2.700292665000000092e+00,-7.515518838220000220e+00,-6.130258073759999426e+00,-1.579124814150000056e+01,-2.908177852630000171e+00,-6.829371452330000203e+00,-3.938802778719999731e-01,0.000000000000000000e+00
2.705167899000000098e+00,-1.066292079239999957e+01,-6.151347039019999130e+00,-1.573948288289999908e+01,-3.476842880249999546e+00,-6.831025123599999915e+00,-3.272414207459999891e-01,0.000000000000000000e+00
2.710298260000000070e+00,-1.271091598249999954e+01,-6.117938690419999048e+00,-1.477208863410000106e+01,-3.940901756290000169e+00,-6.577919483180000526e+00,-2.459820806980000107e-01,0.000000000000000000e+00
2.715295867000000030e+00,-1.498669116970000026e+01,-4.384973618570000120e+00,-1.493189574970000066e+01,-4.264684677119999101e+00,-6.210998535159999889e+00,-5.688929930330000051e-02,0.000000000000000000e+00
2.720107581000000163e+00,-1.403566002670000046e+01,-2.662750305499999914e+00,-1.311772685109999870e+01,-4.509525775909999368e+00,-5.832965373990000479e+00,1.840794086460000034e-01,0.000000000000000000e+00
2.725297219999999854e+00,-1.362482881650000088e+01,-7.403240804909999584e-01,-1.238046354640000146e+01,-4.657906532290000179e+00,-5.416214466089999569e+00,3.829475939270000073e-01,0.000000000000000000e+00
2.730111980000000216e+00,-1.220630758749999956e+01,1.137077154009999980e+00,-1.146007537890000094e+01,-4.821023941039999983e+00,-5.115123271939999938e+00,4.057633876799999761e-01,0.000000000000000000e+00
2.735144168999999792e+00,-1.030859765139999951e+01,5.179022494189999826e-01,-1.145935524799999961e+01,-4.945892810819999319e+00,-4.928367614749999959e+00,3.906298875810000348e-01,0.000000000000000000e+00
2.740290916000000188e+00,-1.072874730950000099e+01,-2.013325187539999894e-01,-1.228687457760000079e+01,-5.088100910189999659e+00,-4.801208496090000111e+00,3.545195162300000535e-01,0.000000000000000000e+00
2.745276408000000057e+00,-1.317197632769999949e+01,-1.830592210119999841e+00,-1.375160460010000030e+01,-5.339139938349999781e+00,-4.684746742250000651e+00,2.200125604870000195e-01,0.000000000000000000e+00
2.750108480999999827e+00,-1.622069052859999871e+01,-3.008490911600000484e+00,-1.561422218000000051e+01,-5.502558708190000480e+00,-4.345526218409999863e+00,-1.222575157879999957e-01,0.000000000000000000e+00
2.755155167999999932e+00,-1.500021233010000010e+01,-4.095428362430000746e+00,-1.534814664680000007e+01,-5.658877849580000508e+00,-3.939225673680000206e+00,-3.085332810879999887e-01,0.000000000000000000e+00
2.760036346999999779e+00,-1.194665711890000104e+01,-2.382563683199999893e+00,-1.653976933770000102e+01,-5.847314834589999677e+00,-3.520327091219999982e+00,-5.015481114390000217e-01,0.000000000000000000e+00
2.765096471000000111e+00,-9.044594199369999643e+00,-2.563757724090000245e+00,-1.546971784750000012e+01,-5.983686447140000197e+00,-3.223951578139999885e+00,-6.451874375339999856e-01,0.000000000000000000e+00
2.770311065000000017e+00,-6.836057734159999733e+00,-3.429287343199999949e+00,-1.100892852499999996e+01,-6.098308086399999439e+00,-2.788022994999999948e+00,-7.299280166630000011e-01,0.000000000000000000e+00
2.775298910000000063e+00,-6.212234346180000699e+00,-2.556165369259999931e+00,-5.648147341759999662e+00,-5.983499526980001093e+00,-2.374263286590000188e+00,-8.210284113879999790e-01,0.000000000000000000e+00
2.780256328000000110e+00,-7.732078937649999872e-01,-1.703833231509999990e+00,-1.207140578060000191e+00,-5.681938648220000054e+00,-1.530428886409999967e+00,-8.902689218520000169e-01,0.000000000000000000e+00
2.785344740999999846e+00,1.024149336940000055e+01,-9.063340693150000460e-01,-5.081592485919999902e+00,-5.253947258000000176e+00,-1.658859848979999940e-01,-8.155835270880000820e-01,0.000000000000000000e+00
2.790122267000000100e+00,6.294856515290000232e+00,2.891798715109999751e+00,-8.076919964560000054e+00,-4.983001232149999460e+00,6.729159355159999301e-01,-7.719243168830000057e-01,0.000000000000000000e+00
2.795064775000000168e+00,-7.635235935489999015e+00,8.777745343679999479e+00,-1.199199497470000075e+01,-4.720767498019999842e+00,6.461641192439999681e-01,-1.055750131609999976e+00,0.000000000000000000e+00
2.800267782000000150e+00,-1.201960311260000047e+01,4.087190110919999064e+00,-1.679807540599999882e+01,-4.476516246800000154e+00,9.784698486329999056e-01,-1.067079424859999959e+00,0.000000000000000000e+00
2.805106698999999981e+00,-8.381534779540000812e+00,1.494171805550000176e+00,-1.525486630560000023e+01,-3.772322177890000461e+00,1.079188346860000092e+00,-1.198175430300000066e+00,0.000000000000000000e+00
2.810102647999999981e+00,-1.960412622120000226e+00,1.679093927050000046e+00,-1.152505784640000108e+01,-2.948711872099999631e+00,1.901505947109999983e+00,-9.463629126549999437e-01,0.000000000000000000e+00
2.815095599000000171e+00,9.676491734340000317e-01,1.729045852570000097e+00,-9.436337262700000394e+00,-2.473474979400000162e+00,2.657752990720000152e+00,-6.179873347280000484e-01,0.000000000000000000e+00
2.820319442999999815e+00,1.410030171789999898e+00,1.654052570909999798e+00,-7.921181705839999587e+00,-2.321580648419999893e+00,3.139384269709999398e+00,-3.234291374680000053e-01,0.000000000000000000e+00
2.825110755999999945e+00,2.518503162609999624e+00,-1.123732373139999963e+00,-6.545937892999999619e+00,-2.292730093000000302e+00,3.404859304430000400e+00,-1.925200819970000199e-01,0.000000000000000000e+00
2.830256571000000054e+00,4.489240633259999669e+00,-3.057795625249999816e+00,-7.616862658929999697e+00,-2.316764831540000014e+00,3.118610143659999778e+00,-2.348865754900000130e-02,0.000000000000000000e+00
2.835290489000000136e+00,4.698479303760000114e+00,-4.473129748669999906e+00,-7.424726806659999845e+00,-2.261598587040000385e+00,2.741811752319999851e+00,2.518619000910000127e-01,0.000000000000000000e+00
2.840275142999999947e+00,3.123502315390000561e+00,-4.743463523870000031e+00,-7.705889434380000402e+00,-2.311125278470000044e+00,2.617413997649999935e+00,5.226552486420000809e-01,0.000000000000000000e+00
2.845276087999999870e+00,2.933366404770000102e+00,-4.293362964109999957e+00,-7.840061757980000046e+00,-2.488376855849999902e+00,2.437728405000000098e+00,6.521182656289999935e-01,0.000000000000000000e+00
2.850271913999999907e+00,1.849460284459999881e+00,-4.604495782679999927e+00,-7.468918415080000095e+00,-2.700209379200000370e+00,2.362237930300000066e+00,7.007898092270000712e-01,0.000000000000000000e+00
2.855203197999999887e+00,1.007615857640000057e+00,-5.506697136109999668e+00,-7.888561292739999509e+00,-2.992284774779999879e+00,2.501842260359999681e+00,7.436333298680000148e-01,0.000000000000000000e+00
2.860152451999999901e+00,5.308008574260000140e-02,-6.445837934870000119e+00,-8.450117317380000159e+00,-3.206986188890000200e+00,2.773368358609999973e+00,8.446363806720000866e-01,0.000000000000000000e+00
2.865116421999999829e+00,-8.796726376869999919e-01,-6.247079449590000166e+00,-8.689995164029999941e+00,-3.378912448879999975e+00,3.019412755969999917e+00,9.408060908319999527e-01,0.000000000000000000e+00
2.870302274999999792e+00,-1.666593341920000082e+00,-5.817010454990001023e+00,-9.139210757649999906e+00,-3.493966341020000144e+00,3.211012363430000072e+00,9.590067863460000064e-01,0.000000000000000000e+00
2.875301502000000120e+00,-2.197965679090000179e+00,-5.472597298110000175e+00,-9.468721528959999745e+00,-3.509677886959999604e+00,3.395181179049999720e+00,9.196516275409999386e-01,0.000000000000000000e+00
2.880201191999999910e+00,-2.838666552120000297e+00,-5.030302443660000122e+00,-9.765058929460000314e+00,-3.406789064409999845e+00,3.617225885390000339e+00,8.732914328579999275e-01,0.000000000000000000e+00
2.885286913999999925e+00,-3.589055295830000158e+00,-4.539613852930000526e+00,-9.914965413290000029e+00,-3.224565982820000176e+00,3.836951971050000409e+00,7.726995944979999642e-01,0.000000000000000000e+00
2.890117186999999976e+00,-4.401273303730000030e+00,-4.453403011680000745e+00,-9.789327109280000272e+00,-3.010071277620000263e+00,4.171991825100000106e+00,6.638302803040000422e-01,0.000000000000000000e+00
2.895091916999999793e+00,-4.328867408209999823e+00,-4.701453351130000513e+00,-9.591685645329999232e+00,-2.742475032809999380e+00,4.506444931030000767e+00,5.291686058039999363e-01,0.000000000000000000e+00
2.900264550999999802e+00,-3.801434602450000089e+00,-5.566069947050000799e+00,-9.559455692849999409e+00,-2.452534198760000006e+00,4.815603256230000184e+00,3.337142169480000198e-01,0.000000000000000000e+00
2.905303584999999966e+00,-3.853620132230000550e+00,-6.442242540730000577e+00,-9.363829660380000419e+00,-2.244416236879999804e+00,5.055871963500000454e+00,1.851495802400000001e-01,0.000000000000000000e+00
2.910306869999999879e+00,-2.997976531850000015e+00,-7.112689148200000311e+00,-9.029704673270000370e+00,-2.063649892809999997e+00,5.193709373469999058e+00,-3.596462681890000290e-02,0.000000000000000000e+00
2.915325659000000069e+00,-2.871850736579999896e+00,-7.618989149560000840e+00,-8.921771537299999721e+00,-1.949093341830000048e+00,5.219280242920000035e+00,-2.423624843360000225e-01,0.000000000000000000e+00
2.920129360999999868e+00,-2.864608802620000283e+00,-8.000859638180001454e+00,-8.521365275029999964e+00,-1.830378055570000218e+00,5.229079723359999932e+00,-4.550416767600000689e-01,0.000000000000000000e+00
2.925310431000000211e+00,-3.166739107310000190e+00,-8.378524491810001251e+00,-8.176326095209999423e+00,-1.737437963490000126e+00,5.195105552669999405e+00,-6.769745349879999763e-01,0.000000000000000000e+00
