t,ax,ay,az,wx,wy,wz,zv
5.007735000000000138e-03,-2.672462721220000059e+00,3.827582677720000048e-01,-9.413225851710000924e+00,9.531203657389998585e-03,-4.061702638859999992e-03,-4.721051082019999930e-04,1.000000000000000000e+00
9.964617000000000266e-03,-2.636407949759999703e+00,4.053247582370000379e-01,-9.415853862120000528e+00,-8.248732425269999710e-03,1.154390396550000015e-03,-1.394221559170000062e-02,1.000000000000000000e+00
1.483882899999999956e-02,-2.729626623939999774e+00,3.780779644690000496e-01,-9.418176752110001715e+00,2.284924034030000415e-03,-3.354581771420000070e-03,1.586660277100000000e-03,1.000000000000000000e+00
1.998447999999999891e-02,-2.687202901970000113e+00,3.862607594680000367e-01,-9.428236958360001196e+00,-4.061836283650000282e-03,5.982744507489999586e-03,3.469486255199999945e-03,1.000000000000000000e+00
2.500334499999999974e-02,-2.702363938490000450e+00,3.733150974490000440e-01,-9.414840301169999037e+00,-2.832542546090000349e-02,7.676878944040000513e-03,9.944139048459999311e-03,1.000000000000000000e+00
2.999929600000000168e-02,-2.676573663670000158e+00,3.863582284929999444e-01,-9.426380516839998336e+00,5.246114451439999604e-03,4.629361443220000004e-03,-5.179820116609999345e-03,1.000000000000000000e+00
3.501729700000000278e-02,-2.746813613330000070e+00,3.791078920390000273e-01,-9.440570954750000965e+00,-3.934240434320000410e-03,2.442031400280000441e-03,1.420988328750000078e-02,1.000000000000000000e+00
3.994604100000000158e-02,-2.668891292470000121e+00,3.741903093810000080e-01,-9.450669739439998551e+00,2.339201048019999823e-03,-1.265762466939999997e-02,4.185387864710000266e-03,1.000000000000000000e+00
4.483698199999999745e-02,-2.680971898630000183e+00,3.814910243159999603e-01,-9.427181311820000076e+00,-3.702654037619999665e-03,3.879847237840000369e-03,5.903836805369999836e-03,1.000000000000000000e+00
4.998085499999999765e-02,-2.637882698489999900e+00,3.851505697359999814e-01,-9.408681778540000096e+00,-6.949016824360000101e-03,8.874262683090000312e-03,-4.530217498539999658e-03,1.000000000000000000e+00
5.501309499999999797e-02,-2.718417247659999703e+00,3.877974309830000132e-01,-9.395515422969999975e+00,1.013408601279999939e-02,2.182138338690000137e-02,4.179947078229999564e-03,1.000000000000000000e+00
5.997866200000000203e-02,-2.692702960690000147e+00,3.969665701389999413e-01,-9.434987601659999612e+00,2.270909957590000125e-03,1.093321107329999972e-02,4.057369660590000684e-04,1.000000000000000000e+00
6.482865000000000155e-02,-2.650183961659999810e+00,3.815769490330000457e-01,-9.405354679940000295e+00,1.258217380380000127e-03,1.954906620090000186e-02,1.101757399739999865e-03,1.000000000000000000e+00
6.991187100000000043e-02,-2.692690101209999742e+00,3.611174042530000405e-01,-9.450499643569999719e+00,1.988399308170000004e-03,-6.530235055830000031e-03,1.883304212239999805e-03,1.000000000000000000e+00
7.478324599999999767e-02,-2.678666836559999709e+00,3.840976996830000045e-01,-9.399833870689999316e+00,-1.078065391629999883e-02,-1.138471532610000128e-02,3.707156982270000227e-03,1.000000000000000000e+00
7.980938999999999395e-02,-2.746464361499999729e+00,3.292131400680000097e-01,-9.430853862859999381e+00,-9.757830761370000355e-03,-2.052369527519999973e-02,2.618714794519999903e-02,1.000000000000000000e+00
8.481103199999999454e-02,-2.635062088109999756e+00,3.827467965300000441e-01,-9.415541727439999065e+00,3.550565335899999973e-03,1.075131632389999918e-02,9.406710043549999095e-03,1.000000000000000000e+00
8.987055700000000369e-02,-2.666930806059999881e+00,4.075577414529999998e-01,-9.438153372220000392e+00,-3.294684924190000117e-03,-3.279741620639999543e-03,4.774909932169999968e-03,1.000000000000000000e+00
9.482837900000000431e-02,-2.674077170679999949e+00,3.874856250879999964e-01,-9.438003734610001416e+00,-2.823572605849999830e-03,-1.653260085730000068e-03,-1.711885072290000170e-02,1.000000000000000000e+00
9.996907400000000499e-02,-2.725053324680000166e+00,3.851024562780000493e-01,-9.429106142410001112e+00,6.966193672270000817e-03,-8.755239658059998584e-03,-1.439375453630000216e-03,1.000000000000000000e+00
1.050187850000000034e-01,-2.698649009619999983e+00,4.125739621800000312e-01,-9.411702587660000674e+00,-1.031377818440000222e-03,-5.926189012830000193e-03,5.909204948689999320e-03,1.000000000000000000e+00
1.099904520000000024e-01,-2.690501066740000446e+00,4.089626032829999924e-01,-9.423149864350000016e+00,5.999304819850000831e-03,-2.216711407530000313e-03,1.126580638809999979e-03,1.000000000000000000e+00
1.149684029999999968e-01,-2.677919817579999862e+00,3.983324516639999979e-01,-9.413594685019999631e+00,9.762749075890000267e-03,5.508356262000000097e-04,-8.924162015319999849e-03,1.000000000000000000e+00
1.199783680000000019e-01,-2.676711026310000019e+00,3.933757791049999897e-01,-9.421762209389999754e+00,8.325826376680001140e-03,3.892678068949999900e-03,-1.342034898699999814e-03,1.000000000000000000e+00
1.250011829999999879e-01,-2.648529764709999679e+00,3.693586149079999825e-01,-9.443400040700000275e+00,-3.470169845970000159e-03,4.592215642330000139e-03,-2.256351988760000281e-03,1.000000000000000000e+00
1.299866670000000002e-01,-2.700902633759999727e+00,3.612950989069999563e-01,-9.427975092549999658e+00,-2.384013961999999990e-03,1.160633051770000070e-03,5.186203401539999508e-03,1.000000000000000000e+00
1.349895919999999916e-01,-2.697705591290000093e+00,3.828282277359999486e-01,-9.411579253550000246e+00,-2.020199317490000302e-03,-5.325083620850000303e-03,1.364041678610000002e-02,1.000000000000000000e+00
1.399692989999999915e-01,-2.661412042629999863e+00,3.635646878069999643e-01,-9.436622509389998470e+00,-1.057005487379999824e-02,-4.698212724180000043e-03,5.835138726979999767e-03,1.000000000000000000e+00
1.449748429999999921e-01,-2.676614872460000072e+00,3.624442324099999557e-01,-9.436089425419998733e+00,1.006973627950000054e-02,1.201019529249999947e-02,-3.376370994370000034e-03,1.000000000000000000e+00
1.499548009999999987e-01,-2.624898421490000189e+00,3.611884236619999911e-01,-9.425443528249999758e+00,-8.014101535080000310e-03,2.531505422669999995e-03,-1.638053730129999941e-02,1.000000000000000000e+00
1.549832479999999901e-01,-2.711987799140000543e+00,3.863971722640000550e-01,-9.410483859520001104e+00,-1.622899994249999908e-02,-1.324809528889999907e-02,6.063471082600000589e-04,1.000000000000000000e+00
1.597925189999999940e-01,-2.684998669929999693e+00,4.091987135939999520e-01,-9.387923068150000105e+00,2.348867245020000091e-02,5.212102085350000212e-03,2.832341473550000367e-03,1.000000000000000000e+00
1.649743949999999959e-01,-2.653489725200000038e+00,3.682232542019999721e-01,-9.448552016629999883e+00,-1.528637297449999925e-02,3.504823660479999912e-03,-9.601132012900000581e-03,1.000000000000000000e+00
1.699808899999999956e-01,-2.716117738550000382e+00,3.779793263999999819e-01,-9.416697911729999149e+00,9.925714693959999686e-04,-5.250211805109999789e-03,1.490405760710000055e-02,1.000000000000000000e+00
1.749783319999999864e-01,-2.667275673970000316e+00,3.660923065879999605e-01,-9.424363331789999521e+00,-9.219193598260001527e-04,2.916714875030000220e-03,4.026154987510000526e-03,1.000000000000000000e+00
1.798195529999999931e-01,-2.708904153909999835e+00,3.732864558760000118e-01,-9.420630575009999674e+00,-6.251145619899999874e-03,8.048512041569999900e-03,1.077787578110000165e-02,1.000000000000000000e+00
1.848118659999999913e-01,-2.655728444040000191e+00,3.755927600569999858e-01,-9.420084047039999575e+00,4.964265506710000171e-03,-1.644697971640000098e-03,1.416928600520000071e-03,1.000000000000000000e+00
1.900036180000000130e-01,-2.654809867890000064e+00,3.874236657680000251e-01,-9.427331533949999454e+00,3.824942745269999805e-03,6.763013079759999831e-03,-8.324533700940000766e-03,1.000000000000000000e+00
1.949758030000000031e-01,-2.655616800359999807e+00,3.445396693409999989e-01,-9.437564758669999776e+00,1.136621087790000081e-02,-9.689190424979999411e-03,-2.107137441640000164e-02,1.000000000000000000e+00
1.999899340000000081e-01,-2.704191738440000492e+00,3.693012586980000123e-01,-9.454980003850000259e+00,1.850745640700000166e-02,1.138127129520000169e-02,2.789001446219999797e-04,1.000000000000000000e+00
2.049954609999999899e-01,-2.678059226049999797e+00,3.658503875909999703e-01,-9.442918979179999894e+00,-1.307472819460000135e-03,2.113128313790000202e-03,6.461913231760000632e-03,1.000000000000000000e+00
2.098292370000000018e-01,-2.659137667959999618e+00,3.840277762520000193e-01,-9.405937448270000445e+00,-6.362722255290000420e-03,9.117566980420000952e-03,7.590358145529999467e-04,1.000000000000000000e+00
2.147654410000000014e-01,-2.684668122799999779e+00,3.812113305910000416e-01,-9.460511919019999993e+00,1.185531355440000087e-02,-5.212572403250000617e-03,3.092074301089999932e-03,1.000000000000000000e+00
2.199705379999999932e-01,-2.671497091059999551e+00,4.005183808690000458e-01,-9.423993329439998234e+00,-7.492672652010000378e-03,-1.704895868899999889e-02,4.412294365470000382e-03,1.000000000000000000e+00
2.250068040000000047e-01,-2.668146027059999703e+00,3.922049086949999652e-01,-9.430528868689998845e+00,-2.026509679849999856e-02,-7.235647179189999209e-03,-5.815400741989999907e-03,1.000000000000000000e+00
2.299755589999999961e-01,-2.680328047770000222e+00,3.995055870970000145e-01,-9.402582292620000004e+00,8.239317685369999811e-03,-1.520659890959999948e-03,1.247779931869999860e-03,1.000000000000000000e+00
2.349543420000000105e-01,-2.661733821929999966e+00,3.555274752909999836e-01,-9.399824518339999102e+00,-3.789225593209999854e-05,3.987774252890000093e-03,-2.137309638780000246e-03,1.000000000000000000e+00
2.399932569999999876e-01,-2.656932266870000170e+00,3.828316618020000117e-01,-9.403752505439999965e+00,5.087862722579999594e-03,-8.353085722769998693e-04,-5.311416462059999864e-03,1.000000000000000000e+00
2.449846840000000081e-01,-2.708828458330000188e+00,4.170972482909999779e-01,-9.435805932310000088e+00,2.375471405679999669e-03,-6.128366105260000044e-03,1.089118793609999969e-02,1.000000000000000000e+00
2.498695770000000094e-01,-2.661684722099999956e+00,3.936154330799999657e-01,-9.405452295099999915e+00,-5.748244002460000529e-03,-1.262206584220000073e-02,-3.193722106519999819e-03,1.000000000000000000e+00
2.548103369999999979e-01,-2.687060570889999944e+00,4.042203771919999911e-01,-9.412971584690000171e+00,-3.248438704760000118e-03,4.638358950609999874e-04,6.156729068609999734e-04,1.000000000000000000e+00
2.597800120000000046e-01,-2.641879659169999783e+00,4.103352433429999779e-01,-9.386104620550000277e+00,1.020482741300000017e-02,4.734911024569999315e-03,-9.370948188010000401e-03,1.000000000000000000e+00
2.648187419999999959e-01,-2.726681218139999974e+00,3.722267542230000559e-01,-9.405148343720000526e+00,-3.382413182410000212e-03,-3.932537976650000294e-03,7.066976744680000810e-03,1.000000000000000000e+00
2.699691909999999972e-01,-2.637349614520000163e+00,3.934388709359999958e-01,-9.417938851709999781e+00,1.495873276139999923e-02,1.685477560389999924e-03,-9.683886542919999812e-03,1.000000000000000000e+00
2.748244329999999791e-01,-2.707866043029999670e+00,3.757257753199999550e-01,-9.419072239650001066e+00,-3.941106842830000880e-04,6.862666457890000994e-03,-1.015014015139999864e-02,1.000000000000000000e+00
2.799608339999999918e-01,-2.732134807370000029e+00,3.864763384470000229e-01,-9.408767703260000559e+00,1.780654676259999999e-02,1.912399427969999890e-03,7.961120456460000355e-03,1.000000000000000000e+00
2.848199009999999864e-01,-2.669691210679999926e+00,4.054509053670000140e-01,-9.408208900329999125e+00,-4.957526107319999318e-04,8.132338523859999890e-03,2.932092640550000486e-03,1.000000000000000000e+00
2.899697339999999790e-01,-2.683187528850000003e+00,3.972061875810000142e-01,-9.405305580100000284e+00,9.731644531710000696e-04,7.090494036670000073e-04,-3.210535971449999908e-03,1.000000000000000000e+00
2.948835080000000164e-01,-2.684586289729999908e+00,3.862940041499999810e-01,-9.422412197730000827e+00,1.350061385890000132e-03,2.038838109000000280e-03,-2.133811358359999821e-04,1.000000000000000000e+00
2.998219839999999858e-01,-2.656191093119999902e+00,3.899570201699999461e-01,-9.413914418490000102e+00,7.671220693739999770e-03,-1.678243512289999970e-03,-1.470112055539999837e-02,1.000000000000000000e+00
3.050109899999999818e-01,-2.729631300120000326e+00,3.708218923939999856e-01,-9.429066394919999539e+00,1.710379496220000226e-02,-7.888941094279998748e-03,4.415228962899999526e-03,1.000000000000000000e+00
3.100036740000000068e-01,-2.711909765469999734e+00,3.922094752720000077e-01,-9.426036233439999634e+00,6.368021015079999500e-03,-1.271421555429999919e-02,2.138986252250000067e-02,1.000000000000000000e+00
3.150256459999999925e-01,-2.652408067450000129e+00,3.637149099329999857e-01,-9.432136888410001418e+00,1.249142829329999947e-02,-4.291936289519999656e-03,-6.860080175100000642e-03,1.000000000000000000e+00
3.199933680000000003e-01,-2.706015154470000184e+00,3.971270579300000270e-01,-9.407022320890000344e+00,4.090477246789999376e-03,-7.080228533600000599e-04,7.784246001389999968e-03,1.000000000000000000e+00
3.250004519999999952e-01,-2.683714183070000203e+00,3.458435915470000621e-01,-9.432244440429998988e+00,-2.764687524179999583e-04,1.616133935749999861e-02,-3.788855392489999746e-04,1.000000000000000000e+00
3.300026839999999906e-01,-2.725769071729999826e+00,3.898916633160000034e-01,-9.424441073210001463e+00,5.074674263600000707e-03,-4.592582117769999483e-04,1.693389005959999860e-02,1.000000000000000000e+00
3.350325840000000222e-01,-2.627032803170000097e+00,3.632391456469999946e-01,-9.474758471039999463e+00,2.463316917420000154e-02,-1.669062487779999701e-02,-9.067446924750000373e-03,1.000000000000000000e+00
3.400166259999999885e-01,-2.701144625820000034e+00,3.861117429190000228e-01,-9.444971820060001022e+00,3.740025218579999707e-03,-7.215954363350001247e-03,5.085605662320000046e-04,1.000000000000000000e+00
3.450175500000000062e-01,-2.689979380950000110e+00,3.529907598879999941e-01,-9.429982925239999147e+00,9.575758595019999604e-04,-1.080542057749999882e-02,-3.180012572560000136e-03,1.000000000000000000e+00
3.498649770000000214e-01,-2.667976223459999741e+00,3.624074805960000312e-01,-9.418539155689998665e+00,5.188660696149999946e-03,-3.389640012759999842e-03,1.006934046750000006e-02,1.000000000000000000e+00
3.550380670000000127e-01,-2.683425721519999918e+00,3.495948703719999884e-01,-9.413045818969999701e+00,4.152817651630000446e-03,-1.235801540320000114e-02,-6.248373538260000148e-04,1.000000000000000000e+00
3.599995910000000077e-01,-2.682403392740000392e+00,4.091712410650000242e-01,-9.397047454850000037e+00,1.756139914510000156e-03,-7.940964773300000432e-03,-7.057054433970000665e-03,1.000000000000000000e+00
3.649683389999999750e-01,-2.651902163749999985e+00,3.814107621540000492e-01,-9.434478483099999480e+00,1.071976963430000020e-02,-1.310364343230000037e-03,-1.773007214069999976e-02,1.000000000000000000e+00
3.698911400000000071e-01,-2.704006445000000092e+00,3.849969135450000413e-01,-9.425451711550000056e+00,6.751340348270000284e-03,5.349220708009999603e-03,6.745642516760000720e-03,1.000000000000000000e+00
3.748343419999999870e-01,-2.648572142539999952e+00,3.986362569160000202e-01,-9.370052480410000939e+00,9.485852904619999915e-03,-7.543710060420000078e-03,-7.834026589990000441e-03,1.000000000000000000e+00
3.802045780000000152e-01,-2.685954363220000474e+00,3.817340392909999713e-01,-9.394130690619999058e+00,1.422704476860000081e-02,-7.514500059189998735e-03,2.573384903370000074e-03,1.000000000000000000e+00
3.848325730000000111e-01,-2.688435950899999760e+00,3.100848804230000311e-01,-9.434809907010000884e+00,-1.163401268420000134e-02,7.878964766859999566e-03,4.448665305970000289e-03,1.000000000000000000e+00
3.900027070000000040e-01,-2.689644449909999846e+00,3.707852136450000002e-01,-9.429345211860001186e+00,4.547677934170000005e-03,3.019872820000000027e-03,8.058112114670000145e-03,1.000000000000000000e+00
3.949751459999999992e-01,-2.671481308970000246e+00,3.352294412149999792e-01,-9.420338314060000329e+00,-6.068992428479999361e-03,-4.830111283809999912e-04,-4.584436770529999941e-03,1.000000000000000000e+00
4.000021240000000144e-01,-2.680982712280000069e+00,3.874695872680000153e-01,-9.431440722839999680e+00,-5.099073518069999200e-03,-1.028537563980000055e-02,-1.257777027790000016e-02,1.000000000000000000e+00
4.050219299999999745e-01,-2.672572611329999681e+00,4.172199248229999657e-01,-9.418156878370000484e+00,9.863183833659999733e-03,-3.567951964209999799e-03,-1.056502293800000089e-02,1.000000000000000000e+00
4.099943659999999990e-01,-2.701049641020000003e+00,3.835818591149999790e-01,-9.463934294680001358e+00,1.715040183630000018e-03,-4.778266418729999222e-03,-2.915293211119999745e-03,1.000000000000000000e+00
4.150056500000000037e-01,-2.702874518359999811e+00,3.971546035239999495e-01,-9.415727020869999464e+00,2.139524556699999754e-03,8.229248225689999446e-03,-4.525367170569999722e-03,1.000000000000000000e+00
4.199934060000000136e-01,-2.715407836719999857e+00,3.874604175810000273e-01,-9.435967260349999108e+00,5.251174792649999402e-03,3.846093779429999790e-03,7.561892271039999868e-04,1.000000000000000000e+00
4.248361489999999963e-01,-2.672217806549999963e+00,4.016744190359999855e-01,-9.434285006350000558e+00,-9.851185604930000339e-03,-2.690143696959999831e-02,-5.489343311640000958e-03,1.000000000000000000e+00
4.299229549999999955e-01,-2.653498200770000093e+00,3.779426111190000159e-01,-9.412519164739999056e+00,4.125043749809999792e-03,5.693894810970000914e-03,-2.535602077840000152e-03,1.000000000000000000e+00
4.349903130000000173e-01,-2.661540637449999913e+00,3.528886877530000299e-01,-9.431873853560000853e+00,2.920533996080000062e-03,3.179193241520000043e-03,-8.526379242539999098e-03,1.000000000000000000e+00
4.400029799999999880e-01,-2.695064429129999883e+00,3.840655875110000617e-01,-9.400078200839999454e+00,-2.652389230210000157e-04,1.032782811670000106e-02,5.927840713410000538e-03,1.000000000000000000e+00
4.450076290000000157e-01,-2.713818521700000375e+00,3.628007542300000221e-01,-9.407747128039998685e+00,1.207502931360000115e-02,-3.082328941670000287e-03,-1.350629609079999815e-04,1.000000000000000000e+00
4.500052789999999803e-01,-2.696192264110000014e+00,3.960226768850000356e-01,-9.404137705369999267e+00,-5.588999483729999943e-04,-1.151126460170000124e-03,9.547010995449999211e-04,1.000000000000000000e+00
4.548149340000000040e-01,-2.655358441679999792e+00,3.664293199900000020e-01,-9.383911494419999499e+00,8.123942650850000946e-03,-1.091167796400000119e-02,-1.410906575620000068e-02,1.000000000000000000e+00
4.597989949999999881e-01,-2.725341201710000050e+00,3.850898525249999982e-01,-9.428087905279999958e+00,4.164391662929999884e-03,3.569898894059999814e-03,4.769517108800000287e-03,1.000000000000000000e+00
4.647906470000000012e-01,-2.642672270849999894e+00,3.399120826060000322e-01,-9.417598075439999050e+00,-3.777314443139999454e-03,7.548332214359999848e-03,-8.487604558470000435e-03,1.000000000000000000e+00
4.698280710000000138e-01,-2.725328926750000047e+00,3.829383370470000325e-01,-9.410741633680000717e+00,-7.887623272840000449e-03,9.466922841969999808e-03,-5.895912181590000746e-04,1.000000000000000000e+00
4.748285609999999823e-01,-2.697591609520000322e+00,3.446944215119999710e-01,-9.424128938519999110e+00,-7.526583038270000768e-03,-5.759177263830000254e-03,2.593307290229999746e-03,1.000000000000000000e+00
4.797969309999999821e-01,-2.642161690980000088e+00,3.540079741059999896e-01,-9.433529219549999567e+00,-2.508425386619999795e-03,3.829542314630000020e-03,-5.340618081390000743e-03,1.000000000000000000e+00
4.848266439999999733e-01,-2.682617035490000301e+00,3.553177415309999865e-01,-9.431507942849998827e+00,-1.372470054779999921e-02,1.118334941570000088e-02,-7.275337819010001088e-03,1.000000000000000000e+00
4.900254769999999871e-01,-2.685822261270000233e+00,3.590116276120000061e-01,-9.410517761789998659e+00,1.031546015290000021e-02,8.709213696420000164e-03,4.157770890740000074e-04,1.000000000000000000e+00
4.949004579999999875e-01,-2.657006208890000387e+00,3.672368735140000284e-01,-9.423598192640000093e+00,3.363025840369999672e-03,-4.312681034209999917e-03,-8.367355912919999944e-03,1.000000000000000000e+00
4.999977879999999986e-01,-2.714250191110000099e+00,3.411368751609999417e-01,-9.413993913469999697e+00,-8.147244807330001346e-04,-7.372528314590000471e-03,1.427612826230000020e-02,1.000000000000000000e+00
5.049984480000000442e-01,-2.649050865970000057e+00,3.576332153989999485e-01,-9.435349420710000601e+00,5.515175871550000278e-07,1.914644846690000081e-03,-4.887899849560000060e-04,1.000000000000000000e+00
5.100276489999999718e-01,-2.700321911259999652e+00,3.949239583950000521e-01,-9.391182946729999870e+00,3.303667530420000172e-03,7.284780964260000220e-03,5.767086986450000070e-03,1.000000000000000000e+00
5.149697399999999536e-01,-2.699010828669999640e+00,3.769815840669999973e-01,-9.407432070739998764e+00,-2.521749585869999862e-03,-1.732529839499999912e-03,5.692712496969999821e-03,1.000000000000000000e+00
5.199952300000000305e-01,-2.681490661809999843e+00,3.659844988319999604e-01,-9.431869761899999816e+00,-3.512168768789999951e-03,-9.727761149409999697e-03,8.151795715090000977e-03,1.000000000000000000e+00
5.250418369999999557e-01,-2.674117502690000148e+00,3.683803079280000281e-01,-9.437328027310000422e+00,-6.161733996119999821e-03,-3.009416395799999980e-03,-2.287827199320000265e-03,1.000000000000000000e+00
5.298808959999999901e-01,-2.703846870520000056e+00,3.493919682109999925e-01,-9.433533895720000118e+00,3.617141395809999726e-03,1.689268974589999911e-03,1.059556379909999853e-03,1.000000000000000000e+00
5.349879640000000380e-01,-2.665767607499999858e+00,3.697266079700000097e-01,-9.412741283060000796e+00,6.854828912760000705e-03,-9.902668185530000972e-03,-5.660963244740000594e-03,1.000000000000000000e+00
5.400077049999999490e-01,-2.720488500979999724e+00,4.007499246019999850e-01,-9.406631275749999688e+00,-1.405617874119999972e-02,-2.622820436950000153e-03,9.072432294490000160e-03,1.000000000000000000e+00
5.449571709999999625e-01,-2.673575650900000156e+00,3.445545381169999866e-01,-9.431879698770000431e+00,1.478495891209999922e-03,2.818671287969999866e-03,1.037006452679999947e-02,1.000000000000000000e+00
5.500111170000000493e-01,-2.705039002909999990e+00,3.364841539840000006e-01,-9.427650682899999524e+00,-4.393764771520000320e-03,5.079065449539999638e-03,-3.464029636230000087e-03,1.000000000000000000e+00
5.550224630000000214e-01,-2.680543444080000004e+00,3.586769157649999928e-01,-9.457637824889999933e+00,-3.052300307899999746e-03,2.088843612000000106e-03,-8.905494585629999266e-03,1.000000000000000000e+00
5.601042809999999816e-01,-2.674464124170000012e+00,3.623237843680000569e-01,-9.438120054469999687e+00,1.047355309129999884e-02,2.980813151230000003e-03,-4.577686078850000395e-03,1.000000000000000000e+00
5.648847449999999659e-01,-2.683135506399999759e+00,3.672116660070000038e-01,-9.434933825650000827e+00,-6.382714025680000063e-03,-9.199411608280000374e-03,-1.042497530579999943e-02,1.000000000000000000e+00
5.699725930000000274e-01,-2.692481426900000141e+00,3.565826103670000080e-01,-9.419798215840000211e+00,9.616207098589998675e-04,1.729911891739999976e-03,-3.643310628830000088e-03,1.000000000000000000e+00
5.748193809999999626e-01,-2.715195070749999662e+00,3.507876238200000052e-01,-9.414143551080000449e+00,-1.027389988299999904e-02,-5.071138963100000133e-03,3.825570456680000246e-05,1.000000000000000000e+00
5.798572069999999856e-01,-2.676158360870000141e+00,3.587778188569999971e-01,-9.452413368239998448e+00,-7.415318861600000283e-03,-1.145824603739999982e-02,-1.556038111449999962e-02,1.000000000000000000e+00
5.848249220000000248e-01,-2.744010830870000195e+00,3.696659272909999516e-01,-9.436604973730000623e+00,-6.620395462960000470e-03,5.804817192259999897e-03,-3.163608256730000151e-03,1.000000000000000000e+00
5.900109890000000412e-01,-2.693376622170000179e+00,3.458446875249999719e-01,-9.422206446020000570e+00,4.592230543489999955e-04,-2.338140970100000167e-03,5.813175346699999725e-03,1.000000000000000000e+00
5.949112399999999523e-01,-2.655537305379999768e+00,3.482966837870000165e-01,-9.421666347800000452e+00,3.066302277149999915e-03,6.450084038080000333e-04,-1.424212753770000110e-02,1.000000000000000000e+00
5.999748790000000165e-01,-2.735523865290000245e+00,3.530962295560000075e-01,-9.420265833350001117e+00,-2.907176036389999985e-03,1.268412219359999794e-03,2.254821360110000148e-03,1.000000000000000000e+00
6.050378870000000520e-01,-2.667500714900000069e+00,3.710832832760000422e-01,-9.395876072980000160e+00,-7.303415331989999461e-03,6.360949948430000625e-03,-6.597077473999999643e-03,1.000000000000000000e+00
6.100143740000000259e-01,-2.719529008299999884e+00,3.519940770009999942e-01,-9.410679089840000344e+00,-6.661131046710000274e-03,1.049707876520000012e-03,1.139198895539999916e-03,1.000000000000000000e+00
6.150149630000000256e-01,-2.644540402809999691e+00,3.399659682180000142e-01,-9.413844860389998459e+00,3.050846513360000196e-03,-1.259660907089999934e-02,-1.420951262120000169e-02,1.000000000000000000e+00
6.198070589999999935e-01,-2.702833601819999654e+00,3.768588710029999733e-01,-9.411707848360000739e+00,-4.618107341229999753e-03,-6.406814325599999478e-03,-1.412101555620000066e-04,1.000000000000000000e+00
6.249733790000000511e-01,-2.680403743349999868e+00,3.972130191800000709e-01,-9.394109647829999687e+00,-9.514031000440001384e-03,1.820071414109999952e-02,5.124935414640000020e-03,1.000000000000000000e+00
6.300003950000000463e-01,-2.682218683819999949e+00,3.924101124109999894e-01,-9.403337494900000593e+00,-1.598660717719999980e-03,6.869495846329999773e-03,6.382773164659999617e-03,1.000000000000000000e+00
6.349988810000000150e-01,-2.740792745599999858e+00,4.106769329199999596e-01,-9.363447383060000462e+00,-1.569654233749999753e-02,-6.224921904499999652e-03,2.612450346349999911e-02,1.000000000000000000e+00
6.400008849999999638e-01,-2.684857800149999640e+00,3.651300374279999872e-01,-9.407025828020000091e+00,-1.737101376060000077e-02,-2.947987522930000086e-04,1.324740424750000048e-02,1.000000000000000000e+00
6.450118200000000135e-01,-2.671708103459999872e+00,3.627594723709999802e-01,-9.403603452360000503e+00,-9.593027643860000536e-03,1.302861236039999822e-02,-3.299192292620000116e-03,1.000000000000000000e+00
6.498244060000000211e-01,-2.703361717349999971e+00,3.757360775180000334e-01,-9.417879230469999641e+00,-1.862087473270000043e-02,1.396047184239999862e-03,-6.061264313760000855e-03,1.000000000000000000e+00
6.547891030000000390e-01,-2.713025617749999618e+00,4.331391592930000090e-01,-9.379127767270000859e+00,-1.996275968850000013e-02,-2.965998835860000210e-03,-3.184378147129999993e-04,1.000000000000000000e+00
6.599726439999999972e-01,-2.685116743349999613e+00,4.269309157699999746e-01,-9.404933824180000457e+00,-4.918071441350000371e-03,-2.563900779930000282e-04,5.138473119590000401e-03,1.000000000000000000e+00
6.649737749999999892e-01,-2.708168825370000032e+00,3.769411059260000529e-01,-9.417113506799999811e+00,-3.404374700039999868e-03,-8.571689017120000254e-03,1.216048374770000058e-02,1.000000000000000000e+00
6.700086610000000054e-01,-2.698456701909999644e+00,3.231469353640000208e-01,-9.445203290730001200e+00,-7.258943282069999642e-03,5.211784504350000687e-03,1.801966875790000228e-02,1.000000000000000000e+00
6.750314389999999554e-01,-2.627373287170000182e+00,3.562839562139999972e-01,-9.453383674570000395e+00,-1.053437870000000116e-02,4.943618550899999114e-04,1.316126436000000137e-03,1.000000000000000000e+00
6.799858479999999483e-01,-2.665034324779999686e+00,3.131752476540000107e-01,-9.487613276430000298e+00,3.050975035880000401e-03,-4.847134463490000190e-03,2.801493275910000094e-03,1.000000000000000000e+00
6.848076039999999587e-01,-2.641986626670000060e+00,3.227707589950000178e-01,-9.452522089310001263e+00,1.526796538379999839e-02,1.660521700979999959e-02,2.439374662940000174e-02,1.000000000000000000e+00
6.898356909999999731e-01,-2.611205119440000111e+00,2.311324858699999873e-01,-9.465679677049999796e+00,1.843506656590000389e-02,-1.195923704649999933e-02,2.158378250899999767e-02,1.000000000000000000e+00
6.949877140000000342e-01,-2.550618256529999961e+00,1.238497674950000127e-01,-9.592802666660000810e+00,2.635618112979999650e-02,-2.529298188159999870e-03,3.379850089550000269e-02,1.000000000000000000e+00
6.999528289999999986e-01,-2.457474108890000064e+00,1.181475281330000016e-01,-9.513989242180000971e+00,4.161577299239999778e-02,-4.677132144569999539e-02,6.082544848319999808e-02,1.000000000000000000e+00
7.050243000000000482e-01,-2.398792056690000507e+00,1.423095898260000047e-01,-9.579425298689999480e+00,6.197841465469999117e-02,-5.268304422500000306e-02,9.344442188740000044e-02,0.000000000000000000e+00
7.099752400000000074e-01,-2.456285191359999676e+00,1.851441302200000083e-01,-9.504797050949999715e+00,7.099828869099999995e-02,-1.035053804520000009e-01,7.592115551229999815e-02,0.000000000000000000e+00
7.150232370000000337e-01,-2.665896786829999865e+00,4.937944843289999719e-01,-9.504626955080000883e+00,3.848422691230000275e-02,-1.374048441650000119e-01,8.184838294980001372e-02,0.000000000000000000e+00
7.198202019999999646e-01,-2.540017075279999759e+00,7.508330534149999513e-01,-9.463084399860001383e+00,5.137190595269999771e-02,-1.674553006889999973e-01,5.750167742369999974e-02,0.000000000000000000e+00
7.250112570000000201e-01,-2.720591376829999852e+00,6.242582722689999919e-01,-9.326426104660001215e+00,4.382229968910000134e-02,-1.805106550460000014e-01,2.555802278220000237e-02,0.000000000000000000e+00
7.299904780000000537e-01,-2.844358041760000066e+00,3.069859280270000323e-01,-9.326422597520000579e+00,4.041931033130000128e-02,-1.381701380010000035e-01,1.317661814389999887e-02,1.000000000000000000e+00
7.348323429999999989e-01,-2.763523048330000176e+00,1.898846392780000059e-01,-9.330838660399999540e+00,3.910801187159999859e-02,-1.197810322049999987e-01,3.058197908100000056e-02,1.000000000000000000e+00
7.397921060000000049e-01,-2.697737155470000037e+00,1.604033279239999998e-01,-9.547399344349999595e+00,5.333510413769999847e-02,-9.740992635490000606e-02,4.987239837650000313e-02,1.000000000000000000e+00
7.450006860000000231e-01,-2.752262234119999817e+00,2.424381986630000096e-01,-9.433303594099999856e+00,6.275217980149999653e-02,-9.729163348670000211e-02,7.340782880780000186e-02,1.000000000000000000e+00
7.498262430000000034e-01,-2.711371420809999488e+00,4.398108921410000538e-01,-9.428499408689999584e+00,4.998919367790000817e-02,-9.842966496940000476e-02,9.238997846839999695e-02,1.000000000000000000e+00
7.548584579999999544e-01,-2.552216339380000143e+00,6.101854328510000203e-01,-9.351691478819999404e+00,5.810764059419999683e-02,-1.115950420499999957e-01,8.419814705849999747e-02,0.000000000000000000e+00
7.598726479999999839e-01,-2.589233818390000330e+00,6.604292905210000786e-01,-9.471445400969999540e+00,4.726360738279999918e-02,-1.381220370529999963e-01,7.562768459319998970e-02,0.000000000000000000e+00
7.649986079999999689e-01,-2.746838455509999832e+00,6.115966148229999844e-01,-9.532909631229999903e+00,7.806546241039999390e-02,-1.634456515310000191e-01,8.105068653819999525e-02,0.000000000000000000e+00
7.699918350000000133e-01,-2.638822609690000043e+00,4.110612925949999608e-01,-9.312704453300000296e+00,7.857041805980000126e-02,-1.562821269040000072e-01,6.542372703549999280e-02,0.000000000000000000e+00
7.750324360000000468e-01,-2.759330857329999720e+00,2.357320338209999977e-01,-9.273829655980000197e+00,7.554572820660000743e-02,-1.699725985530000094e-01,5.862182006239999993e-02,0.000000000000000000e+00
7.799450829999999835e-01,-2.867690986549999543e+00,3.527977215339999639e-01,-9.255199189789999892e+00,9.136120975019998425e-02,-1.554119437929999958e-01,5.861455574630000664e-02,0.000000000000000000e+00
7.848570590000000236e-01,-2.860615056809999945e+00,6.170751558320000107e-01,-9.215154764170000234e+00,4.837500676509999542e-02,-1.521023213859999945e-01,7.252009958030000703e-02,0.000000000000000000e+00
7.898222529999999741e-01,-2.798219098650000181e+00,6.169770292199999728e-01,-9.348651380469998884e+00,3.274918347599999752e-02,-1.465453505519999922e-01,7.333955913780000613e-02,0.000000000000000000e+00
7.947179039999999750e-01,-2.763404098120000540e+00,6.885453048710000745e-01,-9.451368243099999233e+00,2.178240753710000005e-02,-1.490907967089999953e-01,7.028210908170000326e-02,0.000000000000000000e+00
7.998187390000000008e-01,-2.926751078280000140e+00,6.395170700689999377e-01,-9.277794467959999736e+00,4.826945811509999323e-02,-1.557971537110000027e-01,6.309796124699999786e-02,0.000000000000000000e+00
8.047499070000000421e-01,-3.016642069350000011e+00,5.573128706459999915e-01,-9.188968768029999623e+00,4.883373528719999607e-02,-1.398876160380000122e-01,6.091069057580000834e-02,0.000000000000000000e+00
8.098165529999999945e-01,-3.000373948380000044e+00,5.975355754409999998e-01,-9.337019979380000834e+00,6.495361030099999766e-02,-1.447395533320000038e-01,6.824102252719999040e-02,0.000000000000000000e+00
8.149876169999999975e-01,-2.915480911729999569e+00,6.622719957780000000e-01,-9.387224564489999423e+00,6.122623383999999808e-02,-1.285725682970000061e-01,6.750793010000000205e-02,0.000000000000000000e+00
8.200237470000000251e-01,-2.834150243739999908e+00,4.966777846800000118e-01,-9.527551903590000038e+00,9.021602571010001181e-02,-1.148472949860000064e-01,5.909540131690000503e-02,0.000000000000000000e+00
8.248468780000000056e-01,-2.879866869769999838e+00,2.474883764579999812e-01,-9.598407647060000158e+00,1.070853322739999947e-01,-1.126948446040000051e-01,7.183922827239999642e-02,0.000000000000000000e+00
8.298142880000000110e-01,-3.066307433009999972e+00,2.864755846409999807e-01,-9.294921543850000134e+00,1.309569925070000196e-01,-1.090914756059999935e-01,8.338852971789999236e-02,0.000000000000000000e+00
8.348273419999999723e-01,-3.035346769819999846e+00,4.703152264010000416e-01,-9.213072697199999439e+00,1.391983479259999990e-01,-1.125219091770000013e-01,8.504938334230000008e-02,0.000000000000000000e+00
8.400070920000000108e-01,-2.984804331059999871e+00,5.987427227409999331e-01,-9.201914758850000098e+00,1.531947553159999920e-01,-1.157359257340000031e-01,7.908311486239999466e-02,0.000000000000000000e+00
8.450295519999999616e-01,-2.925319584169999931e+00,3.640252910560000110e-01,-9.227893834230000536e+00,1.423426121470000028e-01,-9.079147130249999587e-02,6.765186786650000117e-02,0.000000000000000000e+00
8.499846420000000125e-01,-2.917539305560000074e+00,1.079970497900000076e-01,-9.252976253039998156e+00,1.480748355389999993e-01,-7.675858587030000291e-02,6.413672864440000954e-02,0.000000000000000000e+00
8.550404640000000001e-01,-2.909884114630000074e+00,2.098247815610000122e-01,-9.293962343420000494e+00,1.246054917569999893e-01,-6.563033163549999993e-02,7.215321063999999285e-02,1.000000000000000000e+00
8.599419430000000419e-01,-2.886623650559999810e+00,4.245415729479999900e-01,-9.373295992380000996e+00,1.209708303209999919e-01,-3.783097118140000409e-02,5.165513604880000303e-02,1.000000000000000000e+00
8.650176529999999975e-01,-2.933233426040000147e+00,4.649256423170000097e-01,-9.392942357609999959e+00,8.710554242130000291e-02,-3.840567544100000064e-02,3.875431790949999955e-02,1.000000000000000000e+00
8.698404549999999569e-01,-2.935034630240000109e+00,3.424914681069999856e-01,-9.380387996469998768e+00,1.128336787219999943e-01,-3.964415192600000137e-02,3.126488998529999841e-02,1.000000000000000000e+00
8.747821700000000256e-01,-2.868936018170000324e+00,3.261834535159999771e-01,-9.443547340209999419e+00,1.104829013350000083e-01,-3.608041629199999767e-02,3.255591168999999452e-02,1.000000000000000000e+00
8.799737180000000158e-01,-2.802899657689999824e+00,4.994850606530000237e-01,-9.477505139399999834e+00,1.411492228510000113e-01,-3.794464841490000073e-02,8.865162730220000134e-03,1.000000000000000000e+00
8.850152430000000070e-01,-2.836433678500000166e+00,4.550700918000000206e-01,-9.528215335940000585e+00,1.424843817950000036e-01,-4.101580381389999946e-02,-2.437490038570000114e-03,1.000000000000000000e+00
8.898720770000000391e-01,-2.833666259609999738e+00,4.592015381819999909e-02,-9.511981994010000108e+00,1.458852291109999921e-01,-5.130445212129999821e-02,2.852867357429999910e-03,1.000000000000000000e+00
8.948745609999999573e-01,-2.813754229179999733e+00,-2.924705690059999919e-01,-9.438298333639998816e+00,1.436850726599999961e-01,-4.556527733799999730e-02,3.852977883069999988e-03,1.000000000000000000e+00
8.999694879999999841e-01,-2.765156787009999562e+00,-3.351495443790000195e-01,-9.394595970039999244e+00,1.467963755130000103e-01,-3.472064435480000377e-02,1.395277306439999913e-02,1.000000000000000000e+00
9.049848019999999771e-01,-2.831835829310000108e+00,-2.614128021150000092e-01,-9.420782550700000257e+00,1.019789502019999988e-01,-4.172154515979999839e-02,2.690599113700000225e-02,1.000000000000000000e+00
9.099448799999999560e-01,-2.862135105990000206e+00,-1.623492012949999952e-01,-9.401023372739999218e+00,6.887470185760000141e-02,-3.411965817209999807e-02,3.114662878220000181e-02,1.000000000000000000e+00
9.149886550000000396e-01,-2.872860498140000107e+00,-1.217254962170000038e-01,-9.395446449389998733e+00,3.985082358119999835e-02,-4.953005164859999865e-02,2.168098464609999679e-02,1.000000000000000000e+00
9.199666469999999707e-01,-2.911395980500000036e+00,-1.206061459320000029e-01,-9.406016943239999151e+00,3.767485544089999722e-02,-3.206079453229999932e-02,2.880626730619999937e-02,1.000000000000000000e+00
9.247396020000000494e-01,-2.878248913180000201e+00,-8.234280417650000072e-02,-9.369080420510000451e+00,3.263651952149999869e-02,-4.090273752810000274e-02,3.587426245210000031e-02,1.000000000000000000e+00
9.298116709999999507e-01,-2.897787434130000062e+00,5.261134485280000855e-02,-9.320123205119999810e+00,9.981692768629998533e-03,-3.522567823530000503e-02,3.517486527560000076e-02,1.000000000000000000e+00
9.348003390000000357e-01,-2.880150947409999773e+00,3.348190931490000605e-02,-9.320745136410000242e+00,7.552496623250000776e-03,-2.669835276900000068e-02,3.874579444530000527e-02,1.000000000000000000e+00
9.397912659999999585e-01,-2.861782931549999631e+00,3.421949602459999767e-02,-9.366535412200001076e+00,-5.942316725850000335e-03,-1.630501449110000056e-02,4.082392528650000130e-02,1.000000000000000000e+00
9.448225730000000544e-01,-2.891983424020000193e+00,3.868430711339999883e-02,-9.403341002030000340e+00,-2.573541924360000024e-02,-4.670798778530000500e-02,5.464530363680000086e-02,1.000000000000000000e+00
9.499727999999999506e-01,-2.793816187520000494e+00,1.343404101779999971e-01,-9.319930897419999027e+00,-3.493165597319999871e-02,-3.567411005499999954e-02,4.981578513980000622e-02,1.000000000000000000e+00
9.550058200000000053e-01,-2.789993414360000035e+00,2.845900266230000364e-01,-9.263433934169999162e+00,-2.965543791650000066e-02,-5.141304060819999050e-02,5.839716643099999993e-02,1.000000000000000000e+00
9.599850509999999781e-01,-2.794820103870000239e+00,5.077624751329999908e-01,-9.312864612289999400e+00,-3.842220455409999652e-02,-6.172185018659999411e-02,7.122441381220000201e-02,1.000000000000000000e+00
9.649650370000000255e-01,-2.780762060159999827e+00,5.225920877349999882e-01,-9.247436739089998525e+00,-5.015561729669999053e-02,-6.489679962399999558e-02,7.833018898960000809e-02,1.000000000000000000e+00
9.698440480000000141e-01,-2.796511710209999890e+00,3.666162208649999532e-01,-9.284383783220000907e+00,-5.111267417669999175e-02,-7.340313494210000400e-02,7.078095525499999985e-02,1.000000000000000000e+00
9.748379929999999582e-01,-2.825751833220000453e+00,2.467635145160000099e-01,-9.255817613950000577e+00,-5.580980703229999895e-02,-7.518801838160001083e-02,7.353928685189999037e-02,1.000000000000000000e+00
9.798275499999999916e-01,-2.918558127219999854e+00,6.394069607579999648e-01,-9.278632087820000152e+00,-4.990865662690000676e-02,-7.375851273539998920e-02,7.678981870410001020e-02,1.000000000000000000e+00
9.847400729999999935e-01,-2.938213552540000162e+00,1.062587511020000042e+00,-9.339152315239999780e+00,-5.341377854349999704e-02,-9.315122663969999106e-02,5.198115110399999933e-02,1.000000000000000000e+00
9.899810479999999746e-01,-3.022998160379999799e+00,8.237664799400000737e-01,-9.331149626049999313e+00,-4.363577440380000255e-02,-8.949495851989999751e-02,4.403233528139999936e-02,1.000000000000000000e+00
9.948205119999999901e-01,-3.047843263299999883e+00,4.854733037719999866e-01,-9.260068257130001257e+00,-1.948944292959999686e-02,-6.643060594800000163e-02,3.749417141080000487e-02,1.000000000000000000e+00
9.999681519999999990e-01,-2.966980212820000240e+00,2.480672905909999948e-01,-9.310019159730000382e+00,-2.316324505949999592e-03,-3.549882397060000194e-02,3.770637139680000499e-02,1.000000000000000000e+00
1.004988597999999955e+00,-2.970645457329999850e+00,1.992848837759999825e-01,-9.304238822769999473e+00,-2.109637297690000399e-02,-4.193910211319999692e-02,4.916596040130000872e-02,1.000000000000000000e+00
1.009850015999999906e+00,-2.987993482490000297e+00,2.411308971899999987e-01,-9.309219533789999446e+00,-2.183226309720000258e-02,-4.509162530299999638e-02,3.258991241459999882e-02,1.000000000000000000e+00
1.014964157999999950e+00,-3.059576078930000165e+00,3.708991588810000017e-01,-9.310290377889998581e+00,-2.670724317429999661e-02,-4.337440431120000162e-02,3.405620530249999639e-02,1.000000000000000000e+00
1.019981333000000046e+00,-3.037198827429999692e+00,4.411493742040000221e-01,-9.292371274839998918e+00,-5.156908184290000252e-02,-5.949727445840000128e-02,3.571505844590000534e-02,1.000000000000000000e+00
1.025010623000000010e+00,-3.031838177180000038e+00,3.722970429799999925e-01,-9.275281608350001150e+00,-3.645711019640000133e-02,-2.640229091050000018e-02,3.651549294590000078e-02,1.000000000000000000e+00
1.029960047999999961e+00,-2.984471445849999682e+00,2.672577652840000262e-01,-9.306365313400000616e+00,-3.877549245950000223e-02,-2.060411684220000289e-02,2.750318124889999938e-02,1.000000000000000000e+00
1.034969891000000031e+00,-2.976944849729999731e+00,2.575152832199999464e-01,-9.320285702199999633e+00,-4.302820935849999834e-02,-1.316987443720000171e-02,2.980319969359999932e-02,1.000000000000000000e+00
1.039977804999999922e+00,-2.985530599509999661e+00,2.222795182580000195e-01,-9.278737301760001444e+00,-5.584845319389999951e-02,-1.862086169420000201e-02,2.404973283409999815e-02,1.000000000000000000e+00
1.044987016999999963e+00,-2.975587589899999941e+00,2.486603793789999850e-01,-9.249431127779999429e+00,-8.548001199960000851e-02,-1.720099151129999768e-02,1.897580549120000265e-02,1.000000000000000000e+00
1.049983410999999922e+00,-2.979468230730000222e+00,1.866742989299999822e-01,-9.260075855910001152e+00,-8.462687581779999857e-02,5.852493457499999968e-03,2.205628529190000256e-02,1.000000000000000000e+00
1.054882147000000048e+00,-2.964875641749999957e+00,1.189378291269999888e-01,-9.256925282930000165e+00,-8.381269872189998915e-02,1.580899767580000101e-02,1.286866143349999977e-02,1.000000000000000000e+00
1.059760205999999982e+00,-2.951210689020000277e+00,9.362238701390000750e-02,-9.296098186410000963e+00,-1.040743738409999897e-01,6.899566389620000531e-03,-3.549483139069999852e-03,1.000000000000000000e+00
1.064791019999999921e+00,-2.995336246469999963e+00,3.146045498050000222e-01,-9.312877471769999360e+00,-1.213913112879999867e-01,1.017756480720000134e-02,1.774557307359999822e-02,1.000000000000000000e+00
1.069686869999999956e+00,-2.963969925090000235e+00,4.889497477109999712e-01,-9.247522079289998587e+00,-1.410299092529999909e-01,4.429131373760000073e-02,5.647154990580000554e-03,1.000000000000000000e+00
1.074760901999999962e+00,-2.881754290950000463e+00,3.622338775949999756e-01,-9.147735424889999578e+00,-1.353252828119999862e-01,4.141850769519999503e-02,-4.126376472409999316e-03,1.000000000000000000e+00
1.079721727999999992e+00,-2.818214131199999972e+00,1.610774643260000083e-01,-9.275757993690000092e+00,-1.362208873029999989e-01,2.868407405909999611e-02,-1.453294046220000163e-02,0.000000000000000000e+00
1.084959787999999925e+00,-2.770555138920000271e+00,1.275091759190000174e-01,-9.288687033369999568e+00,-1.387808471920000120e-01,4.354707524180000816e-02,-2.757413871590000051e-02,0.000000000000000000e+00
1.089947377000000106e+00,-2.866499730940000212e+00,2.399077486030000150e-01,-9.379798213880000901e+00,-1.497004479169999902e-01,7.096457481380000210e-02,-1.897193118930000019e-02,0.000000000000000000e+00
1.094784414999999900e+00,-2.994009381779999757e+00,3.239007494059999992e-01,-9.356955098430001172e+00,-1.694427579639999903e-01,6.186630204319999715e-02,-2.150560170409999625e-02,0.000000000000000000e+00
1.099896514000000103e+00,-3.201612852300000256e+00,4.741929446170000118e-01,-9.262108238519999759e+00,-1.923267841340000062e-01,6.262323260310000139e-02,-3.090396709740000220e-02,0.000000000000000000e+00
1.104976568000000103e+00,-3.152309599940000151e+00,7.246585285209999894e-01,-9.308867651610000848e+00,-1.820935904980000020e-01,9.404576569800000840e-02,-5.123589932919999507e-02,0.000000000000000000e+00
1.109972576999999960e+00,-3.125756231800000062e+00,8.247330599490000358e-01,-9.403166814510001359e+00,-1.514767557379999852e-01,1.179610639809999945e-01,-5.510893091559999901e-02,0.000000000000000000e+00
1.114979015000000073e+00,-2.967070813709999921e+00,6.653989686919999924e-01,-9.489889404670000417e+00,-1.173417121169999938e-01,1.564091444019999888e-01,-8.451665192839999396e-02,0.000000000000000000e+00
1.119989487000000006e+00,-3.025990035670000466e+00,5.516954691550000067e-01,-9.436423771939999483e+00,-7.889860123399999869e-02,1.963238418099999827e-01,-8.648613095280001384e-02,0.000000000000000000e+00
1.125035207000000037e+00,-2.935519198889999792e+00,5.394184271130000319e-01,-9.442597492139999105e+00,-5.943927541380000096e-02,1.756285727019999965e-01,-8.773172646759999638e-02,0.000000000000000000e+00
1.130048372000000079e+00,-2.960975419449999979e+00,6.560600624610000153e-01,-9.447251455429999112e+00,-3.808214515450000087e-02,1.990904361010000234e-01,-9.267267584799999958e-02,0.000000000000000000e+00
1.134803304000000068e+00,-2.919184442419999748e+00,8.663092982449999147e-01,-9.596921792410000762e+00,-2.238500677049999957e-02,1.614553928380000059e-01,-9.426812827590000388e-02,0.000000000000000000e+00
1.139841297999999892e+00,-2.796804555680000082e+00,6.758500739489999853e-01,-9.442859942469999268e+00,-2.489663846790000218e-02,1.576378941540000078e-01,-1.162816658620000054e-01,0.000000000000000000e+00
1.144815278999999908e+00,-2.752099737039999994e+00,4.654727913380000137e-01,-9.402396999180000492e+00,-5.083918571470000432e-03,1.439535617830000058e-01,-1.328547894950000141e-01,0.000000000000000000e+00
1.149823521999999931e+00,-2.730840675909999682e+00,3.589317307769999688e-01,-9.467045120179999884e+00,3.844599053259999816e-02,1.376222968099999888e-01,-1.428984552620000126e-01,0.000000000000000000e+00
1.154976082999999987e+00,-2.680836289550000195e+00,3.348167687610000276e-01,-9.454879466090000406e+00,2.432465739550000033e-02,1.007063165310000119e-01,-1.170966252679999930e-01,1.000000000000000000e+00
1.159739974999999923e+00,-2.594378195540000043e+00,2.938101653130000268e-01,-9.501258355430000080e+00,4.844171181319999187e-02,9.860501438380001038e-02,-1.119832098480000038e-01,1.000000000000000000e+00
1.165964068999999936e+00,-2.575597507229999916e+00,1.079240484859999988e-01,-9.520385080700000557e+00,3.384679183359999566e-02,5.500714480880000701e-02,-9.244935214520000333e-02,1.000000000000000000e+00
1.169836644000000092e+00,-2.537160224540000453e+00,2.170332516350000074e-01,-9.556974397430000323e+00,2.754238620399999948e-02,1.590919308360000048e-02,-9.229939430950000190e-02,1.000000000000000000e+00
1.174716360999999987e+00,-2.602761993010000108e+00,3.649116454360000206e-01,-9.542752395329999970e+00,1.322511024769999939e-02,-2.785918302830000040e-02,-9.650684893130000164e-02,1.000000000000000000e+00
1.179832752999999901e+00,-2.656031518640000311e+00,2.489499003779999942e-01,-9.491694992789998508e+00,2.230351045729999857e-02,-4.088229686020000003e-02,-9.639674425130000113e-02,1.000000000000000000e+00
1.184847667000000104e+00,-2.624855751390000158e+00,3.117113856470000166e-01,-9.507609770280000205e+00,1.940017379820000235e-02,-6.777616590259999407e-02,-9.215880185369999811e-02,1.000000000000000000e+00
1.189819563999999996e+00,-2.610661221820000044e+00,3.201223268460000049e-01,-9.494761979139999752e+00,5.473193898799999513e-02,-6.937725842000000420e-02,-9.142190963030001616e-02,1.000000000000000000e+00
1.194824553999999983e+00,-2.665951731889999898e+00,3.209035768840000080e-01,-9.560279284189999061e+00,6.218311190609999983e-02,-7.771302759650000613e-02,-8.515699207780000335e-02,1.000000000000000000e+00
1.199756948999999961e+00,-2.731663098209999863e+00,4.209995894919999482e-01,-9.560669160289998914e+00,7.249022275210000033e-02,-9.523015469310000536e-02,-7.202336937189998678e-02,1.000000000000000000e+00
1.204854571000000041e+00,-2.682609144440000204e+00,3.507468899510000071e-01,-9.558547345830000097e+00,9.264197945589998373e-02,-9.846870601180000848e-02,-7.045323401689999876e-02,0.000000000000000000e+00
1.209793697000000057e+00,-2.709393398729999625e+00,3.603082067620000384e-01,-9.557148000430000678e+00,9.500585496430000165e-02,-9.496498107909999431e-02,-6.003563851119999434e-02,0.000000000000000000e+00
1.215009613000000099e+00,-2.576644678190000093e+00,4.087224743840000007e-01,-9.549013209289999082e+00,1.069925278429999932e-01,-1.030839905139999957e-01,-5.711044371130000186e-02,0.000000000000000000e+00
1.219828547000000096e+00,-2.706498554069999951e+00,3.958388812830000436e-01,-9.577491115760000895e+00,1.237843409180000021e-01,-1.360700726510000180e-01,-5.156243219969999791e-02,0.000000000000000000e+00
1.224841386999999893e+00,-2.778155384790000237e+00,2.793464451469999665e-01,-9.605133155920000831e+00,1.162718832489999937e-01,-1.376556605099999997e-01,-5.378326401110000016e-02,0.000000000000000000e+00
1.230012236999999953e+00,-2.788102778309999863e+00,1.874551653750000102e-01,-9.642496964150000238e+00,1.320454478260000009e-01,-1.562093496320000052e-01,-5.356766656039999713e-02,0.000000000000000000e+00
1.235006948999999965e+00,-2.699806070699999783e+00,9.004955176210001355e-02,-1.026784244709999960e+01,1.159624680880000092e-01,-1.423066258429999953e-01,-4.088722914459999580e-02,0.000000000000000000e+00
1.240005143999999948e+00,-2.857581680470000052e+00,3.046498314960000009e-01,-9.717747143189999548e+00,1.648374497890000012e-01,-1.658981591460000071e-01,-1.844992674890000295e-02,0.000000000000000000e+00
1.245008263999999976e+00,-2.820293567819999847e+00,5.429763387899999572e-01,-9.543134088130001302e+00,1.844553053379999752e-01,-1.772373765709999993e-01,-3.173219040040000521e-02,0.000000000000000000e+00
1.249959226999999951e+00,-2.684468216309999988e+00,2.658290659209999740e-01,-9.761152569669999224e+00,1.856212168930000128e-01,-1.850723177189999846e-01,-4.302971810100000155e-02,0.000000000000000000e+00
1.255038663000000110e+00,-2.634453600820000130e+00,-6.052181658329999769e-02,-9.889532865870000578e+00,2.047582864760000010e-01,-2.009490132329999901e-01,-5.230464972560000189e-03,0.000000000000000000e+00
1.259973452999999965e+00,-2.256879055830000258e+00,-6.343638885569999331e-02,-1.010114381850000065e+01,2.230357676739999906e-01,-2.130401879549999877e-01,-5.929043516520001410e-03,0.000000000000000000e+00
1.265025682999999956e+00,-2.079925575119999870e+00,-3.738390117250000450e-02,-1.028522963530000034e+01,2.335029095410000033e-01,-2.367477864029999823e-01,3.123452328150000054e-02,0.000000000000000000e+00
1.269976771999999920e+00,-2.096167684870000159e+00,2.301232722949999865e-01,-1.017855789749999929e+01,2.465956360100000078e-01,-2.884825766090000077e-01,5.530569702390000092e-02,0.000000000000000000e+00
1.274890105999999967e+00,-2.705088102749999557e+00,-1.984332901810000049e-01,-9.788808638360000813e+00,2.689615488050000058e-01,-3.585228323940000128e-01,7.524248212579999484e-02,0.000000000000000000e+00
1.279803977000000037e+00,-2.719244638399999747e+00,-5.217640759460000499e-01,-1.003504842129999908e+01,2.833781242369999842e-01,-3.828794658179999755e-01,1.098216623069999953e-01,0.000000000000000000e+00
1.284758343000000025e+00,-2.442803632369999978e+00,-1.708672195969999918e-01,-1.022033601509999912e+01,2.654734551910000184e-01,-4.350619614119999867e-01,1.117973923680000009e-01,0.000000000000000000e+00
1.290004584999999926e+00,-2.623749835980000000e+00,1.566308967129999841e-01,-1.052173654419999949e+01,2.544931471349999863e-01,-4.684945344919999588e-01,1.157079786060000032e-01,0.000000000000000000e+00
1.295033397000000086e+00,-2.537089497390000226e+00,-7.388470393410001558e-02,-1.060546229060000023e+01,2.589912414550000208e-01,-5.241168141369999534e-01,1.083747670049999973e-01,0.000000000000000000e+00
1.299913179000000030e+00,-2.208237628390000040e+00,-4.618700176059999801e-02,-1.097024252820000001e+01,2.721371352670000077e-01,-5.639759898189999898e-01,1.125713884830000094e-01,0.000000000000000000e+00
1.304860571999999941e+00,-1.754135724029999954e+00,7.861383764810001007e-02,-1.145721355969999955e+01,3.136866092680000162e-01,-6.264815926550000302e-01,1.444358676670000063e-01,0.000000000000000000e+00
1.310010222999999918e+00,-1.705251866140000017e+00,-2.925550506849999843e-01,-1.185458206170000039e+01,3.418465256689999787e-01,-7.424925565719999732e-01,1.794348359109999846e-01,0.000000000000000000e+00
1.315037376999999896e+00,-2.014365746100000187e+00,1.431638685679999801e-01,-1.197046469540000047e+01,3.458613753320000095e-01,-8.970473408700001539e-01,1.751170009370000002e-01,0.000000000000000000e+00
1.319958997000000078e+00,-1.864204264600000105e+00,9.561137800719999857e-01,-1.199181260390000148e+01,3.444009125230000357e-01,-1.119502305980000001e+00,1.582423448560000001e-01,0.000000000000000000e+00
1.325019504999999986e+00,-1.831560762890000138e+00,4.080341633259999545e-01,-1.211563655189999977e+01,3.434076607229999967e-01,-1.329863309860000120e+00,1.081534922120000047e-01,0.000000000000000000e+00
1.329852086000000044e+00,-1.098779279800000008e+00,-3.290835954040000066e-01,-1.277887600450000072e+01,2.549630403520000144e-01,-1.516545891760000098e+00,7.980084046719999533e-03,0.000000000000000000e+00
1.334858955999999930e+00,-8.599697199600000452e-01,-5.345451585210000411e-01,-1.317352297260000071e+01,1.201761960979999960e-01,-1.749330759050000017e+00,-6.265857815740000225e-02,0.000000000000000000e+00
1.340011521999999955e+00,-3.366752561090000095e-01,-2.065338831359999627e+00,-1.326408645609999937e+01,-4.522363468999999331e-02,-2.008602619169999937e+00,-1.544049754739999954e-02,0.000000000000000000e+00
1.344870390000000082e+00,-9.096629945419999475e-01,-4.103917081569999681e+00,-1.316902683019999998e+01,-1.888791322710000053e-01,-2.317099094390000058e+00,9.549388289449999012e-02,0.000000000000000000e+00
1.349833191999999960e+00,-1.414388659259999903e+00,-4.802244214139999912e+00,-1.288923023019999903e+01,-2.893373370169999848e-01,-2.576782226559999778e+00,3.277066349980000126e-01,0.000000000000000000e+00
1.355056741000000065e+00,-2.245460420709999738e+00,-4.309568833500000196e+00,-1.287795947910000116e+01,-3.504709899430000219e-01,-2.829877853389999753e+00,4.625291526320000068e-01,0.000000000000000000e+00
1.359843506999999896e+00,-2.542327105790000097e+00,-3.976526965460000174e+00,-1.280079440630000143e+01,-3.928790688509999907e-01,-2.961822748180000353e+00,5.100103020669999321e-01,0.000000000000000000e+00
1.364974901999999934e+00,-2.904930291619999938e+00,-5.904165591349999964e+00,-1.391772455210000103e+01,-4.617378711699999805e-01,-3.002092361449999913e+00,4.916685521600000497e-01,0.000000000000000000e+00
1.369831634999999936e+00,-4.038141417850000359e+00,-8.057582811399999656e+00,-1.327348790619999974e+01,-6.488933563229999368e-01,-2.996966600419999960e+00,5.749617218970000110e-01,0.000000000000000000e+00
1.374889951999999971e+00,-4.129466241110000269e+00,-7.765811111379999687e+00,-1.307643505579999932e+01,-9.470547437669999402e-01,-2.981226921079999759e+00,7.319679856300000953e-01,0.000000000000000000e+00
1.379827869000000096e+00,-4.335486534090000177e+00,-6.082490944939999977e+00,-1.349842712690000113e+01,-1.397093892100000012e+00,-2.944373369220000036e+00,9.491820335389999919e-01,0.000000000000000000e+00
1.385020358000000007e+00,-5.922697273339999846e+00,-5.387857406189999310e+00,-1.357269530920000022e+01,-1.868502140049999927e+00,-2.982125520709999922e+00,1.217206478120000046e+00,0.000000000000000000e+00
1.390007192999999974e+00,-7.236428340589998953e+00,-5.279114122880000259e+00,-1.304916243339999937e+01,-2.230499029159999758e+00,-2.997991323469999969e+00,1.382185935969999946e+00,0.000000000000000000e+00
1.394813075999999930e+00,-7.493113529660000438e+00,-4.292826373009999585e+00,-1.307269060849999853e+01,-2.452076196669999764e+00,-2.953830957410000124e+00,1.446306347850000007e+00,0.000000000000000000e+00
1.399797390999999891e+00,-8.963297141389999112e+00,-3.180135472240000372e+00,-1.355483816539999964e+01,-2.539442539220000405e+00,-2.869669914250000176e+00,1.411701202389999965e+00,0.000000000000000000e+00
1.404814942000000011e+00,-1.139977960789999933e+01,-2.176312065689999908e+00,-1.500442556380000170e+01,-2.542356014250000129e+00,-2.702568292620000090e+00,1.340419769289999952e+00,0.000000000000000000e+00
1.409963448000000064e+00,-1.320612760359999882e+01,-1.516465762689999996e+00,-1.618490492950000004e+01,-2.452701091770000286e+00,-2.413257122040000091e+00,1.270632267000000093e+00,0.000000000000000000e+00
1.414833226000000055e+00,-1.435663619390000179e+01,-1.806255495109999831e+00,-1.688869617270000134e+01,-2.355458974840000330e+00,-1.901332378390000244e+00,1.177833318710000077e+00,0.000000000000000000e+00
1.419794986000000092e+00,-1.358351247119999883e+01,-3.156910371740000443e+00,-1.614533396659999909e+01,-2.454739093779999770e+00,-1.385296583179999930e+00,1.178442239760000065e+00,0.000000000000000000e+00
1.425012342000000043e+00,-1.317603290959999995e+01,-4.288221801830000679e+00,-1.365279935799999933e+01,-2.640630722050000045e+00,-6.771445274349999766e-01,1.345138430600000046e+00,0.000000000000000000e+00
1.430004574000000028e+00,-1.825010610589999871e+01,1.190326002179999954e+00,-1.457946295250000013e+01,-2.925935745239999886e+00,9.356359392400000197e-02,1.243916511539999936e+00,0.000000000000000000e+00
1.435044841000000071e+00,-1.474559342589999922e+01,-8.701383732799999882e-02,-1.539497970969999940e+01,-2.959871530529999628e+00,9.986823201180000664e-01,1.376296639440000025e+00,0.000000000000000000e+00
1.439981450999999968e+00,-8.019685919209999625e+00,-4.877157416300000214e+00,-1.243963469730000071e+01,-2.490308523179999955e+00,1.962663888930000100e+00,1.434172511100000103e+00,0.000000000000000000e+00
1.444841440999999893e+00,-3.370261738259999973e+00,-5.072535319240000007e+00,-1.125917637450000086e+01,-2.138552188869999870e+00,2.713747024539999941e+00,1.653176307680000123e+00,0.000000000000000000e+00
1.449740209000000002e+00,3.195912521759999847e-01,-5.667552883969999122e+00,-9.168579475479999630e+00,-2.171265840529999824e+00,2.851608276370000361e+00,1.940835595129999813e+00,0.000000000000000000e+00
1.454824662999999907e+00,3.228121212250000038e+00,-6.289925488630000672e+00,-7.378531457190000253e+00,-2.404025077820000078e+00,2.432418346409999543e+00,2.143275260929999870e+00,0.000000000000000000e+00
1.459686910999999920e+00,4.141896975880000831e+00,-7.589007268280000496e+00,-5.664983325750000631e+00,-2.552863597870000056e+00,1.860612273219999890e+00,2.155384778979999805e+00,0.000000000000000000e+00
1.464711483999999952e+00,3.049872723300000033e+00,-7.013643667560000239e+00,-5.261473836769999579e+00,-2.529848337170000239e+00,1.634927868839999965e+00,2.252562999729999849e+00,0.000000000000000000e+00
1.469804660000000096e+00,3.868077696650000341e+00,-7.086503152060000588e+00,-4.927731711499999889e+00,-2.328200101849999815e+00,1.451748728749999939e+00,2.218125581740000296e+00,0.000000000000000000e+00
1.474696725999999902e+00,4.204028437880000801e+00,-7.088516245449999253e+00,-4.051542458950000203e+00,-1.998630642890000031e+00,1.568921327590000026e+00,2.023468732830000061e+00,0.000000000000000000e+00
1.479601879000000064e+00,3.589022270340000542e+00,-7.719743772210001076e+00,-3.433049910599999865e+00,-1.633188366890000021e+00,1.903447151179999963e+00,1.840331196780000012e+00,0.000000000000000000e+00
1.484495990000000099e+00,5.092257087790000192e+00,-8.895843315319998723e+00,-2.156633990140000456e+00,-1.212426900860000156e+00,2.187375068659999755e+00,1.586351394650000080e+00,0.000000000000000000e+00
1.489469970000000032e+00,5.738702057430000281e+00,-9.981576358799999937e+00,-1.236684067929999964e+00,-8.600089550020000306e-01,2.399662494659999812e+00,1.434406518939999930e+00,0.000000000000000000e+00
1.494474789000000081e+00,5.904366082359999268e+00,-1.131480999890000128e+01,-9.290165873749999248e-01,-5.701408982280000703e-01,2.452769994740000126e+00,1.224051713940000008e+00,0.000000000000000000e+00
1.499451250999999985e+00,6.156551037399999871e+00,-1.194382101859999956e+01,-1.791652019409999963e-01,-2.913475930689999882e-01,2.346708059310000039e+00,7.621313929559999645e-01,0.000000000000000000e+00
1.504614402000000073e+00,5.577189891479999773e+00,-1.204409691789999926e+01,-3.225103910259999873e-01,-2.494990080599999993e-02,2.162720918659999825e+00,1.283200979230000038e-01,0.000000000000000000e+00
1.509735453000000005e+00,5.203063148860000098e+00,-1.207366904930000118e+01,-7.023154715489999811e-01,2.247477173809999951e-01,1.983118653300000034e+00,-6.363192200659999465e-01,0.000000000000000000e+00
1.514705651999999958e+00,4.608574284170000368e+00,-1.151412845609999813e+01,-8.715899420620000226e-01,4.686743319030000077e-01,1.820709228519999945e+00,-1.372665643689999770e+00,0.000000000000000000e+00
1.519552240999999970e+00,3.690138127519999589e+00,-1.072682540149999930e+01,-6.631196255830000830e-01,7.087582349779999458e-01,1.683597087860000174e+00,-2.036375999450000140e+00,0.000000000000000000e+00
1.524723904000000019e+00,3.328092867830000134e+00,-1.051093808679999952e+01,-6.789443867030000579e-01,9.549544453620000262e-01,1.627732753749999928e+00,-2.606399059300000154e+00,0.000000000000000000e+00
1.529728414000000036e+00,2.584056415749999669e+00,-1.024578376010000014e+01,-9.053906509849999340e-01,1.186503648760000029e+00,1.536973476410000039e+00,-3.051147937770000151e+00,0.000000000000000000e+00
1.534715091999999892e+00,1.666462847410000059e+00,-9.089595955130000959e+00,-2.221938675350000114e+00,1.385026812550000042e+00,1.427595019339999771e+00,-3.462356328959999896e+00,0.000000000000000000e+00
1.539760330000000010e+00,6.385273283789999477e-01,-7.465275090149999571e+00,-3.083552290059999645e+00,1.526278376579999874e+00,1.284932374950000122e+00,-3.829840421680000606e+00,0.000000000000000000e+00
1.544859766999999939e+00,-1.097832938859999857e-01,-5.600350402320000143e+00,-3.830538531849999817e+00,1.729288935659999860e+00,1.149244546889999885e+00,-4.201124668119999406e+00,0.000000000000000000e+00
1.549809266000000019e+00,-1.404067025600000074e+00,-4.317972504709999271e+00,-4.574719068580000325e+00,2.010785102839999894e+00,1.070831179620000073e+00,-4.503011226649999976e+00,0.000000000000000000e+00
1.554767513999999906e+00,-2.951955954430000251e+00,-2.721413799130000033e+00,-5.568361272859999822e+00,2.370199441909999649e+00,1.046220183370000223e+00,-4.768108844760000409e+00,0.000000000000000000e+00
1.559891147000000089e+00,-4.161801115269999407e+00,-1.210204714870000142e+00,-6.389837230709999538e+00,2.777128934859999898e+00,1.076664566989999905e+00,-4.997395515440000047e+00,0.000000000000000000e+00
1.564986315000000072e+00,-5.342118568330000095e+00,-4.496436463039999998e-01,-7.208281858039999435e+00,3.176323413850000055e+00,1.112672328950000011e+00,-5.186577796939999985e+00,0.000000000000000000e+00
1.569893552999999997e+00,-6.304439751669999481e+00,-4.453903362420000289e-01,-8.078438552430000641e+00,3.482207775119999571e+00,1.159695982929999980e+00,-5.365507602690000155e+00,0.000000000000000000e+00
1.574824621999999952e+00,-7.503171982339999602e+00,-7.187067074439998926e-01,-8.808217638829999530e+00,3.679727315899999684e+00,1.230721950529999775e+00,-5.518480777740000676e+00,0.000000000000000000e+00
1.579764702999999937e+00,-8.306258297019999404e+00,-6.469795879699999919e-01,-9.748293672619999128e+00,3.737219333650000141e+00,1.301375985149999970e+00,-5.617619037629999923e+00,0.000000000000000000e+00
1.584803455000000083e+00,-8.976350684229998933e+00,-2.183999551449999910e-01,-1.021321887649999915e+01,3.652704954150000294e+00,1.368608832360000083e+00,-5.660456180569998885e+00,0.000000000000000000e+00
1.589841384000000080e+00,-9.867242708130000040e+00,2.371284292159999557e-02,-1.007568905920000013e+01,3.528264045719999853e+00,1.473726630210000055e+00,-5.677751541139999247e+00,0.000000000000000000e+00
1.594889602000000073e+00,-1.051130633559999872e+01,1.307526221260000066e+00,-1.056630049309999997e+01,3.351716518399999956e+00,1.466772198679999972e+00,-5.532970428469999646e+00,0.000000000000000000e+00
1.599808955000000088e+00,-1.128125961150000123e+01,1.932581489129999941e+00,-1.067719832409999903e+01,3.150924921040000104e+00,1.510812044140000143e+00,-5.395411968230000355e+00,0.000000000000000000e+00
1.604788898000000019e+00,-1.138190960470000057e+01,2.720672625379999765e+00,-1.080234446059999875e+01,2.944574117659999768e+00,1.628299713129999882e+00,-5.132146358490000004e+00,0.000000000000000000e+00
1.609969348999999994e+00,-1.187509176579999881e+01,3.536600301449999595e+00,-1.078555816099999909e+01,2.704574584960000028e+00,1.693647861480000127e+00,-4.780601501459999625e+00,0.000000000000000000e+00
1.615004689999999909e+00,-1.161548221369999823e+01,3.819389069069999643e+00,-1.027890627750000085e+01,2.488737106319999892e+00,1.704674482350000186e+00,-4.420862197880000899e+00,0.000000000000000000e+00
1.619813871999999932e+00,-1.203117781509999951e+01,4.245780544200000506e+00,-1.003752094889999924e+01,2.309602022169999991e+00,1.647019863129999928e+00,-3.993354558940000132e+00,0.000000000000000000e+00
1.625052522000000055e+00,-1.195976093059999990e+01,4.722712996780000339e+00,-9.839101486269999697e+00,2.138308286670000058e+00,1.560154080390000031e+00,-3.543689727780000354e+00,0.000000000000000000e+00
1.629934698000000015e+00,-1.165728488119999895e+01,5.355511133859999440e+00,-9.700554600850001208e+00,2.005977392200000153e+00,1.416474103930000172e+00,-3.099917173389999725e+00,0.000000000000000000e+00
1.634968210000000033e+00,-1.151366200769999892e+01,5.880770687240000072e+00,-9.805852712140000094e+00,1.870922327040000166e+00,1.281335949899999882e+00,-2.640543460850000024e+00,0.000000000000000000e+00
1.639999304999999907e+00,-1.130827855130000081e+01,6.029157998680000574e+00,-9.838042332609999718e+00,1.760946154590000257e+00,1.188562154770000046e+00,-2.295283317570000037e+00,0.000000000000000000e+00
1.644810362000000081e+00,-1.131345858430000106e+01,5.996832184609999672e+00,-9.861722483399999462e+00,1.611187219620000111e+00,1.108116745950000093e+00,-1.956128120420000061e+00,0.000000000000000000e+00
1.649805758999999927e+00,-1.102709429630000137e+01,5.630303057509999043e+00,-9.925436538419999621e+00,1.491250991820000094e+00,1.080320954320000082e+00,-1.652552843089999834e+00,0.000000000000000000e+00
1.654753238999999931e+00,-1.073863975799999970e+01,4.919430916150000499e+00,-1.045984853549999904e+01,1.311713457110000203e+00,1.074049830439999909e+00,-1.371328830720000003e+00,0.000000000000000000e+00
1.659795646999999930e+00,-1.060525069370000040e+01,4.362023827880000759e+00,-1.078417401319999946e+01,1.125584006309999996e+00,1.088175296779999801e+00,-1.115855574610000067e+00,0.000000000000000000e+00
1.664814111999999957e+00,-1.014116486320000021e+01,4.090052514609999967e+00,-1.072923480080000047e+01,9.277027249339999670e-01,1.155269861220000083e+00,-9.199790358539999824e-01,0.000000000000000000e+00
1.669749691000000036e+00,-9.162247349850000333e+00,4.055962613480000201e+00,-1.043187799409999883e+01,7.199153304100001094e-01,1.253395199779999913e+00,-7.459070086480000805e-01,0.000000000000000000e+00
1.674778169000000094e+00,-8.042147341860001575e+00,4.044175437319999844e+00,-1.015475733519999935e+01,5.263311862949999753e-01,1.320826053620000051e+00,-6.481232047080000003e-01,0.000000000000000000e+00
1.679785340000000016e+00,-7.252814827249999929e+00,3.874460675689999967e+00,-9.963232892849999800e+00,4.003043770790000178e-01,1.368362545969999955e+00,-6.095773577690000167e-01,0.000000000000000000e+00
1.684978204000000090e+00,-5.020481891390000229e+00,1.778304681259999853e+00,-1.455219851339999870e+01,1.559979617599999979e-01,1.334807753560000032e+00,-5.416236519810000427e-01,0.000000000000000000e+00
1.689739176000000009e+00,-1.469676480529999907e+01,-2.593426593909999855e+00,-1.847968759950000006e+01,-1.121415853499999837e+00,1.050178885460000044e+00,-9.826818108560000375e-01,0.000000000000000000e+00
1.694990835999999890e+00,-7.967014651729999564e+00,-1.941658383420000078e+00,-9.342433821130001093e+00,-2.430446863169999805e+00,2.745448946950000413e-01,-1.205290079120000080e+00,0.000000000000000000e+00
1.699803511999999905e+00,-7.492570508830000087e+00,2.208468952929999674e+00,-3.142022891470000356e+00,-4.083076953890000027e+00,3.459923341869999835e-02,-1.666847348210000135e+00,0.000000000000000000e+00
1.705001347999999917e+00,-9.766683900309999444e+00,-1.618722752720000102e+00,-5.863312187439999157e+00,-5.322261333469999300e+00,-3.592384457590000468e-01,-1.991596460340000041e+00,0.000000000000000000e+00
1.710030398000000007e+00,-2.093807911549999901e+01,1.360987762329999740e+00,-6.109625620100000098e+00,-6.483672142030000529e+00,-8.324165940279999454e-01,-1.844253301620000007e+00,0.000000000000000000e+00
1.715010947999999980e+00,-2.318535769150000192e+01,1.000133787480000080e+01,-8.954208995040000119e+00,-6.612536430360000494e+00,-1.412410616870000135e+00,-1.547515869139999944e+00,0.000000000000000000e+00
1.719833412000000061e+00,-7.261452307210000789e+00,2.509583709280000363e+01,-1.441961871970000031e+00,-5.982223033910000431e+00,-1.787801146509999883e+00,-1.213762402530000006e+00,0.000000000000000000e+00
1.725015704999999899e+00,-6.912618995800000832e+00,2.909553567500000071e+01,-4.451778917609999553e+00,-4.182231903079999924e+00,-1.436314105989999979e+00,-1.526775598529999778e+00,0.000000000000000000e+00
1.729991918000000073e+00,-1.166899753079999869e+01,2.144610111829999965e+01,-1.774690640869999925e+01,-2.721638202670000339e+00,-1.251666069029999884e+00,-7.263403534890000568e-01,0.000000000000000000e+00
1.734958841999999946e+00,-4.890216512099999413e+00,1.754713670050000118e+01,-1.635642235659999955e+01,-1.425869822499999939e+00,-7.254595756530000106e-01,5.176780223849999363e-01,0.000000000000000000e+00
1.739782068000000015e+00,7.111527849339999152e-01,2.728325361310000119e+01,-1.611768958829999931e+01,-4.732229709629999781e-01,-5.728462934489999547e-01,1.137627601619999984e+00,0.000000000000000000e+00
1.744820279000000030e+00,-4.740566341120000082e+00,3.208644767530000053e+01,-1.468838159240000074e+01,-1.891733258959999997e-01,-7.528983950609999809e-01,1.351138710979999935e+00,0.000000000000000000e+00
1.749821716000000027e+00,-3.933002588769999530e+00,1.830780309260000038e+01,-1.154601763239999990e+01,7.233159989119999911e-02,-8.462707996369999153e-01,1.176912307739999886e+00,0.000000000000000000e+00
1.754978083999999994e+00,-2.132151290790000431e+00,3.755670630140000021e+00,-9.839849674289999015e+00,4.746886193750000094e-01,-7.789036631579999703e-01,1.097644090650000015e+00,0.000000000000000000e+00
1.759967798999999999e+00,-2.558299458680000082e+00,-4.197595774489999876e+00,-8.975137216780000315e+00,9.399199485780000973e-01,-6.270872354509999802e-01,8.818708062170000916e-01,0.000000000000000000e+00
1.764987824999999955e+00,-3.654784490059999946e+00,-7.924356828739999692e+00,-9.962434435949999667e+00,1.318258762359999947e+00,-3.487113118169999915e-01,7.244386672970000163e-01,0.000000000000000000e+00
1.770001189000000030e+00,-4.413219469850000465e+00,-9.483389521260001231e+00,-1.049022964529999946e+01,1.292176246639999970e+00,-2.895991802219999856e-01,4.274311661719999988e-01,0.000000000000000000e+00
1.774952308999999895e+00,-1.652978511929999783e+00,-9.298945392529999410e+00,-9.696565238949998999e+00,1.115055084229999993e+00,-5.761295557020000846e-01,2.714270167049999752e-02,0.000000000000000000e+00
1.779795207999999906e+00,-6.351471844220000218e-01,-7.228893268910000280e+00,-1.059230821000000056e+01,5.122027397160000550e-01,-7.270773053169999889e-01,-1.954553127289999914e-01,0.000000000000000000e+00
1.785003040999999957e+00,-2.236840476409999834e+00,-4.494964856120000185e+00,-9.657460724530000817e+00,-2.648071944709999848e-01,-7.752270698549998951e-01,-5.890655517580000583e-02,0.000000000000000000e+00
1.789952315000000072e+00,-3.259518513299999753e+00,-2.159228828940000344e+00,-8.555073483370000176e+00,-7.895413637160000331e-01,-8.467542529109999272e-01,1.408798545599999896e-01,0.000000000000000000e+00
1.794983836999999971e+00,-4.857486208890000157e+00,-1.249916328329999882e+00,-8.644174493099999523e+00,-8.693878054620001183e-01,-7.469483017919998913e-01,2.837142646310000238e-01,0.000000000000000000e+00
1.799947353999999944e+00,-4.993101717040000054e+00,-1.832690205309999820e+00,-9.035792468749999529e+00,-6.540997028349999631e-01,-6.849858164790000314e-01,3.438991010189999531e-01,0.000000000000000000e+00
1.804789497000000020e+00,-4.256944620030000515e+00,-2.450584057109999936e+00,-9.054170421489999399e+00,-4.068477153780000188e-01,-5.540096759800000603e-01,4.258881509300000423e-01,0.000000000000000000e+00
1.809827971000000035e+00,-4.601835915819999734e+00,2.526448093729999900e-01,-1.025269280879999911e+01,-3.031842708590000157e-01,-4.578475952150000139e-01,4.386564791199999980e-01,0.000000000000000000e+00
1.814958928000000027e+00,-3.187424167950000164e+00,2.040391290980000105e-01,-9.589061142040000263e+00,-4.398613274100000581e-01,-3.183436691759999881e-01,3.552425503729999545e-01,0.000000000000000000e+00
1.819981754000000063e+00,-3.277346430929999777e+00,5.651836040209999856e-01,-1.007445104179999973e+01,-6.003758311269999925e-01,-2.700418531889999807e-01,2.898250818249999972e-01,0.000000000000000000e+00
1.824804974000000080e+00,-3.109769265859999798e+00,6.662502517589999895e-01,-1.002524598920000010e+01,-7.869679927830000032e-01,-1.795133948329999951e-01,2.040110528469999962e-01,0.000000000000000000e+00
1.829835810999999923e+00,-3.477096265340000603e+00,2.883927251080000143e-01,-9.488809208220001068e+00,-8.342862725259999612e-01,-9.140235930680001841e-02,2.350421547890000074e-01,0.000000000000000000e+00
1.834792533999999975e+00,-4.023776792409999636e+00,1.295075466619999949e+00,-9.826779764839999487e+00,-7.975699305529999616e-01,-6.523197889329999943e-02,2.364695072170000245e-01,0.000000000000000000e+00
1.839786522000000035e+00,-3.550463699369999837e+00,2.215831444520000026e+00,-1.007972226020000051e+01,-6.760126948360000165e-01,-4.513854905959999858e-02,1.725275069480000090e-01,0.000000000000000000e+00
1.844774729999999918e+00,-3.011305384499999960e+00,2.268265396109999887e+00,-1.015314756190000089e+01,-5.101362466809999940e-01,-6.728732585909999453e-02,6.757035106420000714e-02,0.000000000000000000e+00
1.849762740999999933e+00,-2.776524276459999552e+00,1.132745992939999891e+00,-1.012267059060000030e+01,-3.649983108039999702e-01,-7.946401089430001063e-02,-4.771857522430000310e-03,0.000000000000000000e+00
1.854806321000000091e+00,-2.724756095299999625e+00,2.946124764060000234e-01,-9.617577042429999779e+00,-2.218605130909999945e-01,-7.694216817620000426e-02,-4.751729965209999795e-02,0.000000000000000000e+00
1.860003016999999925e+00,-3.011049071650000020e+00,3.917277561699999966e-01,-9.743991006989999093e+00,-1.379410773520000077e-01,-7.035357505080000462e-02,-4.071339219809999577e-02,0.000000000000000000e+00
1.865049729000000100e+00,-3.280083454679999733e+00,9.426670001299999324e-01,-9.848433962759999716e+00,-1.278816014530000100e-01,-1.069107949730000034e-01,-5.883626267309999963e-02,0.000000000000000000e+00
1.869991862000000005e+00,-3.333466962080000151e+00,9.275663885670000219e-01,-9.825519535639998026e+00,-1.272031366829999843e-01,-1.025320589540000132e-01,-7.301332056520000446e-02,0.000000000000000000e+00
1.874990098999999910e+00,-3.382201766900000184e+00,5.881514052949999849e-01,-9.742778708590000392e+00,-1.113058552150000130e-01,-1.128813102840000027e-01,-6.867349892849999859e-02,0.000000000000000000e+00
1.879802618999999897e+00,-3.491117776429999875e+00,2.346735012110000018e-01,-9.538964108960000132e+00,-9.417638927700000551e-02,-8.060314506289999181e-02,-6.516367197040000281e-02,1.000000000000000000e+00
1.885004322999999982e+00,-3.317592516600000430e+00,1.680907954199999943e-01,-9.454746779620000652e+00,-4.616567492490000063e-02,-1.834712736309999925e-02,-4.996879771349999749e-02,1.000000000000000000e+00
1.889969312999999929e+00,-3.154301942809999648e+00,-7.140801618889999758e-02,-9.564597147389999776e+00,-3.711846098299999980e-02,3.676370019090000399e-03,-2.378267049790000129e-02,1.000000000000000000e+00
1.894983789000000085e+00,-3.035332156770000012e+00,-2.624057952080000033e-01,-9.610908232189999012e+00,-2.427271381020000215e-02,1.427408121529999928e-02,-1.718903146679999841e-02,1.000000000000000000e+00
1.899785896999999890e+00,-2.995174333909999653e+00,-2.453857050899999892e-01,-9.542471824819999782e+00,-6.493548303840000757e-02,1.155852107329999887e-03,8.870919700710000987e-04,1.000000000000000000e+00
1.904872584999999896e+00,-3.013444734609999731e+00,6.430596106470000406e-02,-9.485481525099999089e+00,-9.444911032919998950e-02,-3.062401898209999793e-02,3.581337630749999862e-02,1.000000000000000000e+00
1.909886077999999987e+00,-2.913687598570000148e+00,2.482997476400000125e-01,-9.376824166509999614e+00,-1.321064978840000015e-01,-2.618395537140000284e-02,3.679812327029999969e-02,1.000000000000000000e+00
1.914966173999999910e+00,-2.812690691600000292e+00,2.609769679810000076e-01,-9.381118064310001614e+00,-1.427666395899999940e-01,-1.380103826520000070e-02,3.884187340740000161e-02,1.000000000000000000e+00
1.919940707999999940e+00,-2.848549940490000321e+00,3.565966754249999537e-01,-9.473078555119998967e+00,-1.417618542909999946e-01,-1.200099848209999938e-02,4.884801059959999886e-02,1.000000000000000000e+00
1.924809919000000091e+00,-2.830583198899999875e+00,5.145208633519999797e-01,-9.505167637830000515e+00,-1.176228225229999924e-01,-3.545915707950000016e-03,4.850124195219999990e-02,1.000000000000000000e+00
1.929829081999999918e+00,-2.716608736940000046e+00,5.474090240079999559e-01,-9.525269930129999452e+00,-1.091929301620000042e-01,-2.508455701170000246e-02,2.445316687229999800e-02,1.000000000000000000e+00
1.934749032999999896e+00,-2.813542339990000141e+00,5.160413874499999443e-01,-9.452510398870000330e+00,-8.901269733909999982e-02,-4.137628152970000001e-02,3.321333974599999933e-02,1.000000000000000000e+00
1.939854257999999998e+00,-2.729648251249999991e+00,4.397806431340000044e-01,-9.435213227110001100e+00,-6.813526153559999743e-02,-5.229223892089999992e-02,4.008674249050000332e-02,1.000000000000000000e+00
1.944781709999999997e+00,-2.660029940629999867e+00,3.591852306139999840e-01,-9.527358426850000228e+00,-5.463309958580000320e-02,-4.603071883320000030e-02,2.651948481800000049e-02,1.000000000000000000e+00
1.950045357000000035e+00,-2.787963954359999885e+00,3.008689795169999792e-01,-9.432365436459999586e+00,-6.240241229530000405e-02,-4.006739705799999829e-02,3.086001612249999679e-02,1.000000000000000000e+00
1.954987097000000063e+00,-2.840971906449999640e+00,2.883143809079999897e-01,-9.392593982570000222e+00,-5.169701203700000081e-02,-4.824065417050000387e-02,3.595352917909999668e-02,1.000000000000000000e+00
1.959891601000000039e+00,-2.953722671840000036e+00,3.699363782630000208e-01,-9.352956384180000526e+00,-6.301555037499999290e-02,-5.338746681809999894e-02,4.192636162040000447e-02,1.000000000000000000e+00
1.965029139999999952e+00,-2.959090044090000315e+00,3.902905629730000214e-01,-9.348730290920000741e+00,-8.385256677869999675e-02,-4.656439274550000507e-02,3.677531704309999760e-02,1.000000000000000000e+00
1.969899395000000109e+00,-3.017071692940000105e+00,3.826615293999999778e-01,-9.277625541129999931e+00,-6.309602409600000017e-02,-4.544712230560000316e-02,4.963428527120000017e-02,1.000000000000000000e+00
1.974993312000000056e+00,-2.999251666349999734e+00,3.792691104819999603e-01,-9.275149506400000021e+00,-6.086727604270000119e-02,-2.597306855020000207e-02,3.140088915820000298e-02,1.000000000000000000e+00
1.979859264999999979e+00,-3.040446138780000140e+00,4.109244779399999770e-01,-9.315631738919998739e+00,-7.022243738170000360e-02,-2.322846837340000054e-02,4.963270202279999876e-02,1.000000000000000000e+00
1.984989938000000009e+00,-2.978564559890000130e+00,4.273026716910000022e-01,-9.332313409130000181e+00,-6.679680943490000355e-02,-1.091579906639999868e-02,5.472281202669999900e-02,1.000000000000000000e+00
1.989974496000000093e+00,-2.956879382300000358e+00,5.030026037870000133e-01,-9.377277755489998867e+00,-6.534921377899999273e-02,-1.923639886079999903e-02,5.358922854069999436e-02,1.000000000000000000e+00
1.995028773999999894e+00,-2.991970861690000483e+00,5.469475074430000250e-01,-9.399232397669999628e+00,-6.029640883209999580e-02,-3.689720062540000154e-03,5.236948281530000304e-02,1.000000000000000000e+00
1.999956381999999921e+00,-3.003346534449999883e+00,6.643819006040000419e-01,-9.304245252510000341e+00,-6.467216461900000823e-02,-6.162319332360000068e-03,5.011921003460000079e-02,1.000000000000000000e+00
2.004808101000000065e+00,-2.931487166890000218e+00,7.237046618619998872e-01,-9.291288155780000224e+00,-3.923476114869999670e-02,-2.852013101800000318e-03,4.833818599580000375e-02,1.000000000000000000e+00
2.009977487000000007e+00,-2.765805021779999873e+00,6.639085109390000516e-01,-9.390449371760000830e+00,-1.371469814329999946e-02,7.764891721310000772e-03,5.540131405000000425e-02,1.000000000000000000e+00
2.014988316000000168e+00,-2.795871074219999919e+00,5.453777739089999965e-01,-9.492520922220000656e+00,1.135389413679999994e-02,9.901431389150000886e-03,6.264948844909999648e-02,1.000000000000000000e+00
2.019957102999999865e+00,-2.871552630410000084e+00,7.470452054389999930e-01,-9.477558915410000395e+00,3.306770697240000306e-02,-1.921289786699999919e-02,5.098074674610000162e-02,1.000000000000000000e+00
2.024997817000000033e+00,-2.771750193919999994e+00,7.437454332420000425e-01,-9.415315517459999839e+00,3.512771800159999319e-02,-1.450619101520000086e-02,2.691055275500000080e-02,1.000000000000000000e+00
2.030029918999999961e+00,-2.749232949430000073e+00,7.253439535019999829e-01,-9.445508411149999617e+00,2.768698148430000228e-02,-3.153430297970000185e-02,3.387231379749999771e-02,1.000000000000000000e+00
2.034829588000000022e+00,-2.731461438159999755e+00,9.251118350220001174e-01,-9.455078788049998906e+00,4.524584487080000189e-02,-4.542391002180001108e-02,2.791061438620000279e-02,1.000000000000000000e+00
2.039832699999999832e+00,-2.904856057340000408e+00,1.110584210819999917e+00,-9.411092931329999800e+00,7.655588537449999065e-02,-5.483582988380000106e-02,6.396066863090000242e-03,1.000000000000000000e+00
2.044788502999999924e+00,-2.791286376779999578e+00,9.451011684749999198e-01,-9.387740112799999537e+00,9.412389248610000814e-02,-5.526797845959999927e-02,-2.250097133220000170e-02,1.000000000000000000e+00
2.049827706999999943e+00,-2.851063676870000396e+00,7.086091648649999186e-01,-9.377928912879999857e+00,1.333485990759999962e-01,-6.757443398239999788e-02,-3.750051558019999731e-02,1.000000000000000000e+00
2.054781221999999907e+00,-2.847524689090000560e+00,4.490153583380000479e-01,-9.391822998200000328e+00,1.681271493430000208e-01,-7.448305934669999240e-02,-2.902334555979999703e-02,0.000000000000000000e+00
2.059959643000000007e+00,-2.704117504160000074e+00,1.657730017310000137e-01,-9.500430672430001167e+00,1.429245918990000030e-01,-6.096483021969999888e-02,-3.574153408409999622e-02,0.000000000000000000e+00
2.064964835000000054e+00,-2.736264162259999910e+00,3.611026450749999644e-02,-9.507471238589999984e+00,1.333058029410000012e-01,-7.179030776019999782e-02,-3.263528645040000148e-02,0.000000000000000000e+00
2.069973629999999787e+00,-2.848085245590000092e+00,9.100536378280001115e-02,-9.515375728110001319e+00,1.241035535930000017e-01,-8.235642313960001015e-02,-8.068049326540000649e-03,0.000000000000000000e+00
2.074751508999999938e+00,-2.830832497490000321e+00,1.356553926340000049e-01,-9.443933709179999525e+00,1.263722777369999939e-01,-8.496914803980000486e-02,4.510378930719999985e-03,0.000000000000000000e+00
2.079812024999999842e+00,-2.798900651179999866e+00,9.076002898589997925e-02,-9.537299975139999830e+00,1.159712746739999939e-01,-9.220116585489999961e-02,1.190458610649999978e-02,0.000000000000000000e+00
2.084893391000000040e+00,-2.816488622580000101e+00,4.877651045040000133e-01,-9.297659444380000693e+00,9.120605140920000353e-02,-1.214430853720000064e-01,2.275134436790000186e-02,0.000000000000000000e+00
2.089855288999999949e+00,-2.560576463709999917e+00,2.546252243340000332e-01,-9.205914057619999369e+00,1.123950853940000050e-01,-1.142561361189999986e-01,1.783082820479999983e-02,0.000000000000000000e+00
2.094971984999999925e+00,-2.728971959430000371e+00,1.522988223260000051e-01,-9.545658053649999530e+00,1.277090162039999921e-01,-1.260953843590000012e-01,2.362982928750000100e-02,0.000000000000000000e+00
2.099822506999999838e+00,-2.843046959160000053e+00,1.286627755340000179e-01,-9.823210674180000268e+00,1.607100963589999931e-01,-1.523246318099999996e-01,6.237138435240000695e-02,0.000000000000000000e+00
2.104878684000000000e+00,-2.473675302100000195e+00,1.867278192150000071e-01,-9.852138662499999811e+00,1.707595735790000124e-01,-1.715129762890000020e-01,7.734227925539999271e-02,0.000000000000000000e+00
2.109997581000000011e+00,-2.301460101959999616e+00,4.171745969770000034e-02,-1.005015363590000099e+01,1.950540691609999877e-01,-1.902595311399999933e-01,8.478079736230001440e-02,0.000000000000000000e+00
2.114963155999999955e+00,-2.476957392520000134e+00,-2.143531046070000154e-02,-1.026803066320000113e+01,1.792824268340000027e-01,-2.123434245589999880e-01,9.856618940830000342e-02,0.000000000000000000e+00
2.119814809000000189e+00,-2.397598316859999912e+00,-7.289791681989998828e-02,-1.025895420730000041e+01,1.755356341599999814e-01,-2.570509910580000001e-01,1.283159404989999974e-01,0.000000000000000000e+00
2.124800565000000141e+00,-2.380593990559999984e+00,1.111060212560000121e-01,-1.027183005549999883e+01,1.827344894409999865e-01,-3.293081521990000038e-01,1.846683770420000092e-01,0.000000000000000000e+00
2.129880028000000092e+00,-2.419078619520000029e+00,1.867621187770000107e-02,-1.040912723309999954e+01,2.122711241250000158e-01,-3.840028941629999859e-01,2.116356492040000203e-01,0.000000000000000000e+00
2.134811873999999943e+00,-2.481289868759999795e+00,-1.716696950869999738e-01,-1.042261332210000013e+01,2.432520091529999928e-01,-4.352675974369999978e-01,2.591757178310000187e-01,0.000000000000000000e+00
2.140017493000000215e+00,-2.481713647129999867e+00,-4.757311870350000027e-01,-1.052105031550000014e+01,2.480611056089999933e-01,-5.237210392950000237e-01,2.937073409560000403e-01,0.000000000000000000e+00
2.144985310000000034e+00,-2.422560324160000000e+00,-8.269405068659999580e-01,-1.102209195789999896e+01,2.476245164869999849e-01,-5.507956743240000064e-01,4.047925174239999646e-01,0.000000000000000000e+00
2.149809493999999876e+00,-1.626493825110000069e+00,-1.202386734589999895e+00,-1.138485676410000025e+01,2.184113860130000029e-01,-6.732706427569999930e-01,4.513523876669999768e-01,0.000000000000000000e+00
2.154823871000000057e+00,-1.699222961239999830e+00,-1.263116440039999899e+00,-1.222270225739999994e+01,1.674925833939999997e-01,-7.998023033140000404e-01,5.291962623600000581e-01,0.000000000000000000e+00
2.159879335999999928e+00,-1.389110864009999835e+00,-1.342835142789999825e+00,-1.216442425599999844e+01,5.906111001969999857e-02,-9.431838393210000282e-01,5.262276530270000308e-01,0.000000000000000000e+00
2.164989818000000010e+00,-1.486679696229999958e+00,-1.435801888039999863e+00,-1.224214579359999888e+01,-4.716462269430000270e-02,-1.113473653789999851e+00,5.065985918049999981e-01,0.000000000000000000e+00
2.170016958000000162e+00,-2.274017676029999713e+00,-1.674898082799999965e+00,-1.255829147190000050e+01,-1.614305526019999826e-01,-1.278375267980000007e+00,5.043808221819999771e-01,0.000000000000000000e+00
2.175013284999999907e+00,-1.286773063829999897e+00,-2.115953020180000088e+00,-1.267118836769999923e+01,-2.737683057790000207e-01,-1.460312008860000121e+00,5.084885954860000057e-01,0.000000000000000000e+00
2.179821009999999948e+00,-1.325013947159999983e+00,-2.720036373299999699e+00,-1.293373105069999873e+01,-3.904199302199999888e-01,-1.653140664099999935e+00,5.304784774780000323e-01,0.000000000000000000e+00
2.184741740000000210e+00,-2.030688373740000330e+00,-3.341095265009999871e+00,-1.295624332670000101e+01,-5.779512524600001200e-01,-1.873132705690000011e+00,5.773000121119999939e-01,0.000000000000000000e+00
2.189748172999999909e+00,-2.692388195659999983e+00,-4.185026215769999780e+00,-1.300184304839999960e+01,-8.164451718330000274e-01,-2.085606336590000165e+00,6.633960008620000126e-01,0.000000000000000000e+00
2.195028251000000097e+00,-2.468049278920000145e+00,-5.410670711030000746e+00,-1.295306586569999929e+01,-1.026709794999999925e+00,-2.247987747190000274e+00,7.782620191569999957e-01,0.000000000000000000e+00
2.199838044999999909e+00,-2.285881132299999674e+00,-7.843986822469999787e+00,-1.308321667869999949e+01,-1.106071829800000073e+00,-2.432810783390000342e+00,9.494178891179999580e-01,0.000000000000000000e+00
2.204764379000000218e+00,-3.232501327030000038e+00,-1.123267765910000016e+01,-1.381180100239999931e+01,-1.228779315950000006e+00,-2.510976076129999957e+00,1.049070715900000117e+00,0.000000000000000000e+00
2.210001920999999925e+00,-3.453642324519999640e+00,-9.393135834360000658e+00,-1.336613579469999991e+01,-1.439828515049999869e+00,-2.595007419590000364e+00,1.213120341300000016e+00,0.000000000000000000e+00
2.214817861999999860e+00,-3.156198131819999642e+00,-7.348914902089999757e+00,-1.398198338150000097e+01,-1.840244889260000072e+00,-2.758612155909999419e+00,1.212881088260000073e+00,0.000000000000000000e+00
2.219818066999999839e+00,-2.775724358249999746e+00,-7.216577392699999649e+00,-1.378452721099999856e+01,-2.173723697659999843e+00,-2.970855712890000166e+00,1.402732133869999842e+00,0.000000000000000000e+00
2.225005171999999920e+00,-3.728334294919999792e+00,-6.875932063910000558e+00,-1.266413786470000069e+01,-2.310218572619999744e+00,-3.167212724690000591e+00,1.714742302889999959e+00,0.000000000000000000e+00
2.230016228000000211e+00,-4.420003430899999586e+00,-5.806680784160000108e+00,-1.131605152339999876e+01,-2.247713088990000330e+00,-3.232072591779999726e+00,2.023749113080000051e+00,0.000000000000000000e+00
2.234825884000000151e+00,-6.152208624290000039e+00,-5.154922510540000502e+00,-1.003399043659999990e+01,-2.056735992430000159e+00,-3.209781408309999584e+00,2.438332557679999901e+00,0.000000000000000000e+00
2.239778264999999990e+00,-7.538755336900000437e+00,-3.842554256080000563e+00,-9.414407170449999640e+00,-1.871393203740000066e+00,-3.099234104160000225e+00,2.913656950000000023e+00,0.000000000000000000e+00
2.244840937999999841e+00,-8.871215654540000273e+00,-5.874409335510000219e+00,-9.506156064339998935e+00,-1.632142424580000029e+00,-2.824430704120000080e+00,3.320499896999999923e+00,0.000000000000000000e+00
2.249790359999999989e+00,-8.719061099520001079e+00,-1.038107368950000087e+01,-1.053924998899999999e+01,-1.319152235979999865e+00,-2.553977727889999993e+00,3.543179988859999963e+00,0.000000000000000000e+00
2.255005278000000057e+00,-9.921143809660000201e+00,-1.375215171259999991e+01,-1.110449551589999828e+01,-1.017387986179999926e+00,-2.221014261250000121e+00,3.707641124730000293e+00,0.000000000000000000e+00
2.259822376999999882e+00,-9.763077400260000260e+00,-1.566227689359999964e+01,-1.183724163539999985e+01,-9.136536717409999842e-01,-1.827191233630000022e+00,3.885921955109999715e+00,0.000000000000000000e+00
2.264998685000000123e+00,-1.050254318340000026e+01,-1.624882005999999990e+01,-1.231934827569999946e+01,-1.046794533729999976e+00,-1.484161615369999909e+00,4.037738323210000146e+00,0.000000000000000000e+00
2.269826656999999859e+00,-9.264716959719999423e+00,-1.648386800229999949e+01,-1.135995496249999981e+01,-1.326959371570000101e+00,-1.069612979889999815e+00,4.167267322539999874e+00,0.000000000000000000e+00
2.274822445999999943e+00,-8.061326674110000923e+00,-1.664932043030000131e+01,-1.041533485559999939e+01,-1.494885683059999915e+00,-4.243301153180000229e-01,4.179502487180000614e+00,0.000000000000000000e+00
2.279791197999999852e+00,-1.042500986190000134e+01,-1.629433210339999860e+01,-1.054735146239999999e+01,-1.611904382709999917e+00,3.588771522049999940e-01,3.780958414080000551e+00,0.000000000000000000e+00
2.285028136000000210e+00,-7.963390031489999465e+00,-1.868946899859999888e+01,-9.883010770619998553e+00,-1.416351914410000079e+00,1.261526584629999892e+00,2.689453601840000374e+00,0.000000000000000000e+00
2.289951734000000183e+00,-1.258753977820000003e+01,-1.178165711079999944e+01,-1.048456679719999940e+01,-1.128635406489999937e+00,1.729285955429999744e+00,1.045410394670000187e+00,0.000000000000000000e+00
2.294808982000000164e+00,-6.309199513420000294e+00,-1.038019223049999873e+01,-7.403386496989998733e+00,-6.130805015559999127e-01,2.003049373630000130e+00,-3.812826871869999801e-01,0.000000000000000000e+00
2.299797723000000182e+00,-2.486456750009999883e+00,-1.453905846140000158e+01,-5.076126037199999885e+00,5.740226432680000518e-02,2.524334430690000186e+00,-1.449290633199999956e+00,0.000000000000000000e+00
2.305021149999999963e+00,1.884906422500000067e+00,-1.402333246000000067e+01,-1.699923364589999819e+00,7.795619368549999706e-01,2.728464126590000483e+00,-2.013783454899999992e+00,0.000000000000000000e+00
2.310017891000000212e+00,1.688151532120000020e+00,-1.086340478630000028e+01,-1.031699036279999815e+00,1.313591718670000130e+00,2.385770559310000039e+00,-2.108724355699999720e+00,0.000000000000000000e+00
2.315018101999999800e+00,7.690419331919999824e-01,-9.957488211719999427e+00,-2.656906547909999805e+00,1.657546877860000212e+00,1.787024021150000141e+00,-2.331286191939999863e+00,0.000000000000000000e+00
2.319968230999999825e+00,2.137240722879999999e-01,-9.587055647439999717e+00,-2.792377971409999660e+00,1.949153780940000136e+00,1.189227700229999796e+00,-2.684151172640000471e+00,0.000000000000000000e+00
2.325040286000000123e+00,-1.083425862519999949e+00,-8.222374145149998981e+00,-3.095876349580000131e+00,2.215976953509999792e+00,8.005923628809999970e-01,-2.975097894670000187e+00,0.000000000000000000e+00
2.329834737000000100e+00,-2.089183525070000158e+00,-7.780871902389999484e+00,-4.133092907180000886e+00,2.408533811569999905e+00,6.054869890209999550e-01,-3.212764739990000340e+00,0.000000000000000000e+00
2.334816915999999853e+00,-3.243179957440000205e+00,-7.376026780900000190e+00,-5.485190822219999873e+00,2.613952875140000298e+00,6.728017926220000167e-01,-3.397962570189999809e+00,0.000000000000000000e+00
2.339803391999999871e+00,-3.937620311700000375e+00,-6.795348707159999613e+00,-7.187147300069999467e+00,2.748608112340000353e+00,8.600063323970000839e-01,-3.490535497669999820e+00,0.000000000000000000e+00
2.344797697999999819e+00,-3.435362863719999993e+00,-5.696771964199999871e+00,-7.419074479989999915e+00,2.876729011540000602e+00,8.782690167429999528e-01,-3.549255132679999925e+00,0.000000000000000000e+00
2.349835208000000009e+00,-3.580824935360000350e+00,-4.309442576769999533e+00,-8.155714684330000352e+00,2.891993284229999794e+00,1.012309670450000088e+00,-3.489322185519999842e+00,0.000000000000000000e+00
2.354816491999999872e+00,-3.248824393069999594e+00,-1.085558636760000084e+00,-7.628186016980000872e+00,2.951923847200000228e+00,1.174178361889999911e+00,-3.362030744549999728e+00,0.000000000000000000e+00
2.360019273999999889e+00,-2.200345559959999697e+00,7.744964722710000693e+00,-6.212942202189999819e+00,3.092037439349999861e+00,1.293196320529999888e+00,-3.401245117190000222e+00,0.000000000000000000e+00
2.365029722000000056e+00,-1.359588855319999956e+00,9.584130699899999328e+00,-6.106254682359999464e+00,3.481749534609999586e+00,1.265213966370000165e+00,-3.439677476880000029e+00,0.000000000000000000e+00
2.369835195999999922e+00,-3.014236761769999884e+00,9.008864129819999178e+00,-8.028464853470000051e+00,3.958899021150000141e+00,1.284317374230000031e+00,-3.369071245189999786e+00,0.000000000000000000e+00
2.374990404000000055e+00,-4.910459674190000179e+00,9.204972977369999754e+00,-7.170183305790000183e+00,4.525948047640000027e+00,1.187603116040000018e+00,-3.122903585430000017e+00,0.000000000000000000e+00
2.380007647999999865e+00,-6.517822390110000086e+00,1.054905592829999961e+01,-8.479228845569998896e+00,4.923513889309999669e+00,1.139935255049999929e+00,-2.671092271800000084e+00,0.000000000000000000e+00
2.384999173000000194e+00,-7.370078101629999878e+00,1.029983683730000088e+01,-8.359191430310000115e+00,4.967513561249999654e+00,1.169143199920000153e+00,-2.234037160870000260e+00,0.000000000000000000e+00
2.389826193000000210e+00,-7.459992765830000927e+00,1.013450248270000031e+01,-8.907904339989999087e+00,4.820001602169999622e+00,1.189486026760000037e+00,-1.925743103030000070e+00,0.000000000000000000e+00
2.394816257000000004e+00,-7.908081401239999586e+00,9.820119722430000309e+00,-9.592163784229999379e+00,4.425150394440000134e+00,1.343966722489999821e+00,-1.672848939900000165e+00,0.000000000000000000e+00
2.399992538999999869e+00,-7.991940418669999602e+00,8.933430995429999300e+00,-1.011688850009999996e+01,3.899245738979999931e+00,1.547802805899999967e+00,-1.436156868930000163e+00,0.000000000000000000e+00
2.405017545000000201e+00,-7.537845236319999920e+00,8.440568567789998866e+00,-1.009475733230000039e+01,3.265892744059999409e+00,1.692783474920000142e+00,-1.175668120379999904e+00,0.000000000000000000e+00
2.410049239000000121e+00,-6.871524184340000119e+00,9.043907970669998519e+00,-9.952932448110001218e+00,2.603132009509999900e+00,1.747881889340000106e+00,-9.595151543619999668e-01,0.000000000000000000e+00
2.415034431000000037e+00,-6.164155082669999786e+00,1.005427568430000029e+01,-9.894604177779999787e+00,1.928550839419999940e+00,1.680869698520000011e+00,-7.797301411629999901e-01,0.000000000000000000e+00
2.419998484999999810e+00,-5.654992093089999727e+00,1.062884316619999936e+01,-9.729640410080000024e+00,1.344212174419999961e+00,1.571023821829999889e+00,-6.748979091640000538e-01,0.000000000000000000e+00
2.425023792999999817e+00,-6.200879423950000024e+00,1.106387942779999989e+01,-9.717827222689999545e+00,9.074920415880000091e-01,1.487725496290000171e+00,-5.793331861500000679e-01,0.000000000000000000e+00
2.429824148999999878e+00,-6.992512032200000505e+00,1.129333232660000164e+01,-9.929548065389999678e+00,6.343314647669999751e-01,1.440780878070000215e+00,-4.985264539720000165e-01,0.000000000000000000e+00
2.434803857999999988e+00,-7.691501428069999591e+00,1.129834869339999948e+01,-9.922875163500000539e+00,5.088952183720000244e-01,1.443305492400000167e+00,-4.297108948230000114e-01,0.000000000000000000e+00
2.439817310000000017e+00,-7.931570997899999753e+00,1.080751631030000048e+01,-9.859536371539999067e+00,4.380928277970000395e-01,1.480243206019999924e+00,-3.870438635350000323e-01,0.000000000000000000e+00
2.444838690000000092e+00,-7.757934678919999882e+00,9.830223767810000624e+00,-9.769533444530001276e+00,4.121354818339999504e-01,1.560078859329999901e+00,-3.804843127729999885e-01,0.000000000000000000e+00
2.450021959999999943e+00,-7.340310739869999601e+00,8.678747793830000390e+00,-9.463805699869999088e+00,4.080677926540000056e-01,1.629124879839999984e+00,-3.629347980020000142e-01,0.000000000000000000e+00
2.455000854000000121e+00,-6.573772825390000740e+00,7.660873650089999209e+00,-9.448433943210000407e+00,3.492166399960000001e-01,1.620986223220000078e+00,-4.186017215250000256e-01,0.000000000000000000e+00
2.459993982999999940e+00,-6.149954123359999691e+00,6.942458253739999918e+00,-9.441503267170000768e+00,2.717309892179999853e-01,1.499969482420000055e+00,-5.148740410800000111e-01,0.000000000000000000e+00
2.465019659000000196e+00,-5.937516072289999336e+00,6.690867757459999510e+00,-9.459026648900000112e+00,1.845623701809999961e-01,1.340480208400000040e+00,-6.548778414729999886e-01,0.000000000000000000e+00
2.469837049000000118e+00,-5.663745892909999746e+00,6.545320053370000224e+00,-9.431288747139999984e+00,1.105434745549999931e-01,1.184271454809999957e+00,-8.392052054409999684e-01,0.000000000000000000e+00
2.474801729999999811e+00,-5.694149214480000332e+00,6.499022997089999976e+00,-9.699133043610000726e+00,6.303630024190000347e-02,1.044349908829999896e+00,-1.012738466260000081e+00,0.000000000000000000e+00
2.479984577000000190e+00,-5.678204041849999051e+00,6.432604359289999962e+00,-9.812159703329999871e+00,2.829462476069999691e-02,9.492367506029999458e-01,-1.190639376639999858e+00,0.000000000000000000e+00
2.484977736999999909e+00,-5.366626402119999639e+00,6.403770478990000292e+00,-9.939242945460000200e+00,5.251311883330000291e-02,8.896381258959999982e-01,-1.303586125370000071e+00,0.000000000000000000e+00
2.489825301000000213e+00,-1.910568248629999910e-02,-8.870476234349998990e+00,-1.546840384230000076e+01,-1.196728706360000061e+00,9.346734881399999528e-01,-1.871801972390000124e+00,0.000000000000000000e+00
2.494983953999999837e+00,-9.950258844989999574e+00,-4.601856081830000278e-01,-9.157494602359999902e+00,-2.168654203410000036e+00,2.681220173839999887e-01,-1.932524323459999804e+00,0.000000000000000000e+00
2.499956762000000055e+00,-5.400771832819999396e+00,3.559967148510000179e+00,-1.237760991059999860e+01,-4.540429115299999374e+00,1.254720687869999851e-01,-2.165385007859999877e+00,0.000000000000000000e+00
2.504811133000000023e+00,-3.476324696449999863e+00,1.348748604619999902e+01,-8.783541462739998806e+00,-6.270365715030000509e+00,-3.566757440569999771e-01,-2.391461372380000228e+00,0.000000000000000000e+00
2.509999061999999892e+00,-7.007296928879999776e+00,1.479888545559999891e+01,-7.290548637839998847e+00,-7.261218070980000938e+00,-4.790886640550000020e-01,-2.116044759749999837e+00,0.000000000000000000e+00
2.515024326999999893e+00,-4.806512977499999728e+00,1.480338744320000011e+01,-3.375076737320000131e+00,-6.639374732969999471e+00,-2.051925361159999961e-01,-1.341604232789999962e+00,0.000000000000000000e+00
2.519810091000000085e+00,-2.951240791890000215e-01,1.672282639599999854e+01,-7.871058369269999133e+00,-4.923178195950000280e+00,1.808640658859999861e-01,-4.284959733489999700e-01,0.000000000000000000e+00
2.525008112000000082e+00,-7.893129331309999275e-01,2.057505127450000160e+01,-1.117332647549999969e+01,-3.256611108780000041e+00,2.778885364529999902e-01,4.393177628519999711e-01,0.000000000000000000e+00
2.530040168000000200e+00,-1.591251246819999909e-01,1.874012015839999989e+01,-1.007743561060000026e+01,-1.970491647720000072e+00,2.527231872080000219e-01,1.107555747029999926e+00,0.000000000000000000e+00
2.535000027000000156e+00,1.242921793270000075e+00,1.913011199419999997e+01,-1.119021798910000065e+01,-1.255100846289999961e+00,-9.783720225099999668e-02,1.409013867380000118e+00,0.000000000000000000e+00
2.540017182000000151e+00,-3.639542351139999909e-01,1.387802967060000014e+01,-1.358001703030000051e+01,-9.252460002900000369e-01,-7.019544839860000218e-01,1.216765403749999974e+00,0.000000000000000000e+00
2.544874402000000035e+00,-3.906900471519999307e+00,5.371351677069999830e+00,-1.392964996769999964e+01,-7.508610486979999665e-01,-1.075363159179999917e+00,1.029269576070000136e+00,0.000000000000000000e+00
2.549820441000000049e+00,-6.002154256419999889e+00,-9.303526582840000447e-01,-1.313526016970000043e+01,-4.505497813220000203e-01,-1.133065819739999869e+00,8.699049353600000201e-01,0.000000000000000000e+00
2.554805288999999924e+00,-5.805953054400000646e+00,-3.453405885410000042e+00,-1.303663262220000085e+01,-1.276603937150000145e-01,-9.654700756070000445e-01,5.957720875740000199e-01,0.000000000000000000e+00
2.560009519999999927e+00,-6.410816305850000063e+00,-3.464467377649999680e+00,-1.240101182890000153e+01,1.190868020059999977e-02,-5.977436900139999620e-01,4.441322088240000077e-01,0.000000000000000000e+00
2.564983132000000055e+00,-3.821101425950000241e+00,-2.660240368509999787e+00,-1.072951537129999977e+01,8.195871114730000906e-02,-1.590316891670000010e-01,1.589804142710000145e-01,0.000000000000000000e+00
2.569979796000000150e+00,-1.882721479670000031e+00,-6.853869139059999283e-01,-1.087237602819999971e+01,1.564850471910000235e-02,5.892374366519999990e-02,6.817962508649999184e-03,0.000000000000000000e+00
2.575000492000000030e+00,-2.489054073020000146e+00,2.303699551450000271e+00,-1.018031847750000018e+01,-1.906094104050000126e-01,1.140172258019999940e-01,-5.907532759009999877e-03,0.000000000000000000e+00
2.580010393999999874e+00,-2.820698933750000137e+00,3.761094408750000007e+00,-9.387674061819998528e+00,-2.761769294740000213e-01,1.333132013679999908e-02,6.295730918649999897e-02,0.000000000000000000e+00
2.584827349000000218e+00,-2.713243644420000322e+00,2.562508016290000246e+00,-9.161659905349999633e+00,-1.282116621730000072e-01,-1.954436898229999775e-01,1.356092244390000034e-01,0.000000000000000000e+00
2.589801041999999942e+00,-2.916093782929999989e+00,4.276896251820000439e-01,-8.847744762579999644e+00,8.679148554799999415e-02,-2.571552395819999837e-01,1.609041392799999970e-01,0.000000000000000000e+00
2.594802506000000175e+00,-2.660559225200000100e+00,-1.724795940040000142e+00,-8.184560255070000068e+00,2.909977436069999812e-01,-2.838490009310000173e-01,1.413668394089999947e-01,0.000000000000000000e+00
2.599989936000000057e+00,-2.484261870309999676e+00,-2.949225944940000232e+00,-8.863982196149999382e+00,3.285649716849999846e-01,-2.221764028069999897e-01,1.128814965489999961e-01,0.000000000000000000e+00
2.604997727999999846e+00,-2.603245684870000076e+00,-3.362972750290000423e+00,-9.713200147410001151e+00,1.755388826130000191e-01,-1.569894999269999813e-01,8.929196745160000726e-02,0.000000000000000000e+00
2.609994872000000132e+00,-2.662768133420000183e+00,-2.799802276190000327e+00,-9.688135264260001378e+00,-5.591369792820000129e-02,-1.290228366850000030e-01,4.591689631339999911e-02,0.000000000000000000e+00
2.615014810999999995e+00,-2.947820754319999903e+00,-1.652285268970000054e+00,-9.497146828450000910e+00,-2.894238829610000230e-01,-1.600393503900000014e-01,8.525864034890000276e-02,0.000000000000000000e+00
2.619895835999999978e+00,-2.961685613540000261e+00,-6.719930331950000335e-01,-9.166503838249999703e+00,-4.559601247310000049e-01,-1.853454709050000038e-01,1.722716540099999971e-01,0.000000000000000000e+00
2.624829039000000197e+00,-3.224573164379999746e+00,8.617389946549999236e-01,-9.245023832730000279e+00,-5.148430466650000259e-01,-2.157909870149999909e-01,2.176080793140000025e-01,0.000000000000000000e+00
2.630007081000000024e+00,-3.135203566840000011e+00,1.377677031329999968e+00,-9.430140161629999795e+00,-4.958176910880000010e-01,-1.799802929160000120e-01,1.973501294849999976e-01,0.000000000000000000e+00
2.634974661999999856e+00,-3.302091872870000167e+00,1.050658149899999838e+00,-9.515410214899999275e+00,-4.148016572000000068e-01,-2.117904573680000069e-01,1.464781463150000018e-01,0.000000000000000000e+00
2.640034205000000078e+00,-3.642010933209999912e+00,1.103259859279999811e+00,-9.614026656469999210e+00,-3.713605701919999724e-01,-1.964274644850000084e-01,1.092248708010000041e-01,0.000000000000000000e+00
2.644829980999999997e+00,-3.634508302490000009e+00,6.994940574519998844e-01,-9.807301157390000412e+00,-3.637860715389999999e-01,-1.244310811160000002e-01,7.707942277189999691e-02,0.000000000000000000e+00
2.649802890000000133e+00,-3.330823461840000110e+00,2.526429644759999871e-01,-1.057690605820000052e+01,-3.454487621779999684e-01,-1.072224602099999952e-01,7.316394150259999951e-02,0.000000000000000000e+00
2.654806012999999965e+00,-3.592381809900000000e+00,4.811936171589999423e-01,-1.080900216500000077e+01,-2.907289862629999777e-01,-3.149300813670000143e-02,5.999064818020000134e-02,0.000000000000000000e+00
2.660017607999999978e+00,-3.800153622719999458e+00,9.985054994689999130e-01,-9.926267728550000058e+00,-2.098044753069999713e-01,-9.654430672530000743e-03,6.854636967180000040e-02,0.000000000000000000e+00
2.664998911000000081e+00,-3.552923951999999996e+00,1.043807918679999780e+00,-9.805428933769999134e+00,-1.299287080760000157e-01,3.076761262489999694e-03,8.519566804169999286e-02,0.000000000000000000e+00
2.670037481000000046e+00,-3.128311176980000052e+00,7.114058829120000205e-01,-9.704863111699999934e+00,-2.523410320279999980e-02,2.630958519880000068e-02,8.774131536479999605e-02,0.000000000000000000e+00
2.674998299999999940e+00,-2.989087999729999723e+00,4.078264023269999594e-01,-9.552102992000000015e+00,-3.299688687549999955e-04,1.654007099570000208e-02,7.740727066989999683e-02,0.000000000000000000e+00
2.679831998000000048e+00,-2.841493592240000421e+00,1.361275401900000070e-01,-9.564177460680001630e+00,2.632898278529999941e-02,3.053459106009999945e-03,4.933308437469999252e-02,1.000000000000000000e+00
2.684814584000000171e+00,-2.989786503389999961e+00,1.759071317269999823e-01,-9.550393265469999449e+00,2.870936878029999723e-02,-1.586720347400000231e-02,3.864276781680000411e-02,1.000000000000000000e+00
2.689791242000000082e+00,-3.001188187369999927e+00,2.477053619429999964e-01,-9.484065228560000449e+00,1.551685761660000044e-02,-4.810055345300000285e-02,5.398679897190000049e-02,1.000000000000000000e+00
2.694802054000000169e+00,-2.815218164250000044e+00,1.499684796819999999e-01,-9.449297866560000259e+00,-1.687024906280000167e-02,-5.017587169999999930e-02,4.635711386800000361e-02,1.000000000000000000e+00
2.699895013999999982e+00,-2.836526032960000165e+00,2.522924340050000051e-03,-9.412966323990000106e+00,-2.936802245679999770e-02,-1.698986627160000221e-02,7.955157756809999592e-02,1.000000000000000000e+00
2.704817382999999964e+00,-2.941048775959999695e+00,1.306018355709999967e-01,-9.389833285679999975e+00,-4.695878550409999380e-02,-2.157741971309999965e-02,7.928069680930001362e-02,1.000000000000000000e+00
2.709844089000000178e+00,-3.060739277490000187e+00,3.156139460429999710e-01,-9.366416754260001198e+00,-5.580161511900000315e-02,-4.125653766099999370e-03,7.630783319469999770e-02,1.000000000000000000e+00
2.714844096999999845e+00,-2.961950694220000013e+00,3.571734158670000214e-01,-9.337145651589999318e+00,-7.043319940569998938e-02,3.288710722699999915e-03,6.909557431939999939e-02,1.000000000000000000e+00
2.719817015999999921e+00,-2.933758618959999787e+00,2.951254308960000183e-01,-9.350490286330000345e+00,-9.782730042929999037e-02,-1.082812249659999976e-02,5.918050557369999853e-02,1.000000000000000000e+00
2.724999658999999852e+00,-2.903898610479999753e+00,2.294900889579999936e-01,-9.351697908560000272e+00,-8.921971917149999765e-02,-6.586431525650000320e-03,6.339164078239999112e-02,1.000000000000000000e+00
2.730006722999999802e+00,-2.760633756629999880e+00,9.607331469679999958e-02,-9.317779272339999252e+00,-8.439442515370000619e-02,8.280953392389999584e-03,6.487850099799999382e-02,0.000000000000000000e+00
2.735015387999999881e+00,-2.694604994919999719e+00,-5.125547326439999773e-02,-9.262077843389999288e+00,-9.729024767879999869e-02,1.265036221589999933e-02,7.854767143730000123e-02,0.000000000000000000e+00
2.740006696000000019e+00,-2.677101194680000074e+00,-1.181912668100000008e-01,-9.296457667369999456e+00,-1.170296519989999923e-01,6.877400912340000082e-03,8.758231252429998781e-02,0.000000000000000000e+00
2.745001015999999794e+00,-2.727392289019999971e+00,-4.328029313419999580e-02,-9.310508989080000575e+00,-1.591111719609999975e-01,-2.716120798140000416e-04,1.082377955320000112e-01,0.000000000000000000e+00
2.750007107000000062e+00,-2.803462844530000275e+00,-1.398419073710000134e-02,-9.277139803439999000e+00,-1.710634678599999847e-01,-1.937959343190000239e-02,1.020923852920000013e-01,0.000000000000000000e+00
2.754833328000000137e+00,-2.897754408640000445e+00,1.018553412979999878e-01,-9.254320068869999361e+00,-1.903345286850000040e-01,-2.424894273279999679e-02,1.059763804079999899e-01,0.000000000000000000e+00
2.760008743000000209e+00,-2.959776565049999864e+00,1.805439977479999791e-01,-9.263460822180000775e+00,-1.900878846649999843e-01,-1.769017241900000190e-02,1.036746352910000030e-01,0.000000000000000000e+00
2.764955581000000162e+00,-2.912108220419999949e+00,2.567680085169999904e-01,-9.245377468480000971e+00,-2.044197022910000106e-01,-7.427647709850000723e-03,8.501366525890000081e-02,0.000000000000000000e+00
2.770013877999999874e+00,-3.101983726549999876e+00,2.728948578550000059e-01,-9.212570592899998800e+00,-2.109115570780000226e-01,1.380983926359999857e-02,1.090505793689999919e-01,0.000000000000000000e+00
2.775007390999999934e+00,-2.986249561430000199e+00,3.591856324719999716e-01,-9.116808956230000760e+00,-2.407525181769999967e-01,6.173197552559999551e-02,9.927548468110000690e-02,0.000000000000000000e+00
2.779971306000000197e+00,-2.909128035569999771e+00,5.098526158130000097e-01,-9.252430309600001124e+00,-2.451522648330000109e-01,6.332594156270000829e-02,1.078830584879999915e-01,0.000000000000000000e+00
2.784860657999999933e+00,-2.827731608859999746e+00,6.099096481169999917e-01,-9.350205039649999605e+00,-2.664036154749999663e-01,9.373062103990000005e-02,1.030992716550000049e-01,0.000000000000000000e+00
2.789868754000000006e+00,-2.970069995529999840e+00,5.692609364620000445e-01,-9.416149045680000995e+00,-2.656684815879999939e-01,1.079876795409999979e-01,1.192324981090000097e-01,0.000000000000000000e+00
2.794839726999999829e+00,-2.968495585820000393e+00,5.635382114339999582e-01,-9.411059613589999984e+00,-2.555279731749999783e-01,9.258600324389999747e-02,1.088985726239999896e-01,0.000000000000000000e+00
2.799984676999999866e+00,-2.934526388459999691e+00,7.120848781520000559e-01,-9.420864383759999683e+00,-2.274665981529999936e-01,9.450552612539998842e-02,8.793582022189999625e-02,0.000000000000000000e+00
2.804797221999999923e+00,-2.965252366110000093e+00,8.794694432649999838e-01,-9.434491927099999842e+00,-2.098339647049999868e-01,1.048872768879999945e-01,1.120925173159999927e-01,0.000000000000000000e+00
2.809837705000000074e+00,-2.810617392459999753e+00,8.480195352519999119e-01,-9.475049562939998893e+00,-1.888960748910000209e-01,8.418346196410000926e-02,8.208367973569999365e-02,0.000000000000000000e+00
2.814789876999999940e+00,-2.958546438729999561e+00,8.212841616050000626e-01,-9.448965858130000228e+00,-1.660854965449999887e-01,8.309539407489999197e-02,7.119163125749999876e-02,0.000000000000000000e+00
2.820002700999999945e+00,-2.984895224219999754e+00,7.677150685019999976e-01,-9.458976380010000184e+00,-1.474172472949999979e-01,7.054597884419999687e-02,6.779308617120000102e-02,0.000000000000000000e+00
2.824813680000000105e+00,-2.878318763550000270e+00,8.051882553939999632e-01,-9.469279747359999888e+00,-1.330670118329999874e-01,6.736710667610000536e-02,8.113009482619999713e-02,0.000000000000000000e+00
2.829985444000000072e+00,-2.810831911989999821e+00,8.729119113809999941e-01,-9.471411498700000209e+00,-1.068999767299999987e-01,5.984837934369999918e-02,6.793114542960000668e-02,1.000000000000000000e+00
2.834845817999999795e+00,-2.784436949279999851e+00,8.416749154649999509e-01,-9.355312591919998866e+00,-7.957950234410000878e-02,3.575120493769999575e-02,5.948314815759999513e-02,1.000000000000000000e+00
2.839961263000000180e+00,-2.675549289059999669e+00,7.188783376840000017e-01,-9.327685164810000984e+00,-6.394125521179999661e-02,4.431030899289999797e-02,7.020313292739999156e-02,1.000000000000000000e+00
2.844986597000000117e+00,-2.542169577140000136e+00,5.797167544269999917e-01,-9.419369176769999186e+00,-3.300399705769999775e-02,3.229588642720000041e-02,6.899131834510000005e-02,1.000000000000000000e+00
2.850024497999999795e+00,-2.494947514979999781e+00,5.586815651829999396e-01,-9.493408810969999223e+00,-1.633840240540000016e-02,3.016253374520000072e-02,6.843907386059999709e-02,1.000000000000000000e+00
2.854977354999999939e+00,-2.535004507810000085e+00,6.621135903459999250e-01,-9.524559736040000502e+00,-1.741516776379999770e-02,9.858587756749999723e-03,5.677409842609999757e-02,1.000000000000000000e+00
2.860013646000000076e+00,-2.569339031349999747e+00,7.881184626489999845e-01,-9.407712056719999438e+00,-1.142611261459999979e-02,-2.757915668190000225e-02,4.795544594530000426e-02,1.000000000000000000e+00
2.864997273000000177e+00,-2.566715112589999848e+00,8.701683848260000076e-01,-9.409535180499998930e+00,-1.929533667859999885e-02,-4.531828314069999419e-02,3.847568482159999942e-02,1.000000000000000000e+00
2.870001731999999972e+00,-2.546495623640000261e+00,6.604851854259999877e-01,-9.580266425689998755e+00,5.820869933810000028e-03,-7.374469935889998995e-02,2.648646943270000290e-02,1.000000000000000000e+00
2.874974501000000071e+00,-2.669941678309999844e+00,4.858961322940000271e-01,-9.589393734999999808e+00,2.899160981180000027e-02,-7.806235551830000008e-02,2.961967699230000015e-02,1.000000000000000000e+00
2.879838567999999821e+00,-2.710167013450000439e+00,3.888934095269999669e-01,-9.566873275630001672e+00,4.309485107660000064e-02,-9.200546145439998658e-02,5.520363803949999808e-03,1.000000000000000000e+00
2.884974286999999915e+00,-2.981837297950000298e+00,3.303341799869999873e-01,-9.545048397310001320e+00,4.205160960559999744e-02,-9.684569388630000220e-02,1.700130850079999839e-02,1.000000000000000000e+00
2.889828612000000074e+00,-2.910596939079999945e+00,4.243200026189999918e-01,-9.373767701549999387e+00,4.317673295740000194e-02,-9.547114372249999870e-02,3.100018762050000057e-02,1.000000000000000000e+00
2.894776636000000014e+00,-2.784913334620000125e+00,4.585710125929999825e-01,-9.497450195319999011e+00,5.225487798449999360e-02,-1.243805885309999942e-01,3.228865563870000205e-02,1.000000000000000000e+00
2.900005257000000114e+00,-2.592550687849999758e+00,4.950308577229999840e-01,-9.613526890260001068e+00,4.821293056009999523e-02,-1.220781579609999945e-01,2.042842097579999905e-02,1.000000000000000000e+00
2.904971186000000039e+00,-2.596743171109999526e+00,1.801332797879999781e-01,-9.708435124960001161e+00,5.716556310650000583e-02,-9.897594898939998664e-02,2.015768364070000263e-02,0.000000000000000000e+00
2.909980400999999883e+00,-2.788461674750000174e+00,1.234114582760000023e-01,-9.735319624760000679e+00,5.323359742759999763e-02,-1.501409113409999940e-01,3.177885711190000378e-02,0.000000000000000000e+00
2.914975290000000108e+00,-2.778163860360000292e+00,2.285565344350000139e-01,-9.681147305070000542e+00,4.667346179489999941e-02,-1.530125290159999873e-01,3.727170079949999881e-02,0.000000000000000000e+00
2.920013797999999827e+00,-2.551153386319999772e+00,1.073696934050000079e-01,-9.837826059510000221e+00,6.850147992369999550e-02,-1.816864162680000006e-01,5.333066359159999853e-02,0.000000000000000000e+00
2.924969504999999970e+00,-2.594469380959999683e+00,-4.020192138859999820e-01,-9.638146367730000108e+00,6.363731622700000146e-02,-1.817307472230000054e-01,4.364114627240000405e-02,0.000000000000000000e+00
2.929963227000000003e+00,-2.686244870599999945e+00,-4.657479550179999817e-01,-1.011141971330000011e+01,7.942074537280001401e-02,-2.277112305160000072e-01,1.034487262370000077e-01,0.000000000000000000e+00
