t,ax,ay,az,wx,wy,wz,zv
4.963294000000000039e-03,-2.726318522310000159e+00,8.003233527709999739e-01,-9.367522669680001357e+00,-1.471011526880000066e-02,-2.969556860630000183e-02,-1.325737498700000142e-02,1.000000000000000000e+00
1.015740700000000024e-02,-2.623413735890000265e+00,7.156329260220000155e-01,-9.371004666570000197e+00,-1.884437352420000045e-02,-1.418524701150000039e-02,-2.385785430669999999e-02,1.000000000000000000e+00
1.506117099999999993e-02,-2.595009771440000446e+00,6.080842593209999647e-01,-9.411960361819998511e+00,-2.150905784219999967e-03,-2.811937965449999924e-02,-2.852897904809999913e-02,1.000000000000000000e+00
2.020416800000000151e-02,-2.604958626270000188e+00,5.660431434599999534e-01,-9.313256826479999972e+00,-5.573141388600000475e-03,-2.488240599630000063e-02,-1.735601574179999884e-02,1.000000000000000000e+00
2.506711999999999829e-02,-2.788090211090000103e+00,6.839024475020000216e-01,-9.385691948089998959e+00,-6.769528612489999174e-03,-3.725603222849999813e-02,-1.686792634430000007e-02,1.000000000000000000e+00
3.005164299999999941e-02,-2.674773920770000313e+00,5.433375367849999638e-01,-9.366284067789999668e+00,-2.070342004299999955e-02,-2.393270656470000354e-02,-2.038241550329999985e-02,1.000000000000000000e+00
3.519806200000000218e-02,-2.666202491780000017e+00,5.370792801079999901e-01,-9.399811658860000918e+00,-8.776965551079998762e-03,-3.292374685409999585e-02,-2.531360834840000115e-02,1.000000000000000000e+00
4.005074799999999713e-02,-2.727941155070000345e+00,6.586359042980000078e-01,-9.389944344839999957e+00,-1.427635084839999971e-02,-2.184611372649999939e-02,-1.971769891679999928e-02,1.000000000000000000e+00
4.504193000000000086e-02,-2.609106978120000253e+00,6.744903299029999522e-01,-9.442926577969998903e+00,-1.727052591740000156e-02,-7.490432821210000168e-03,-2.646255306900000340e-02,1.000000000000000000e+00
5.004293399999999725e-02,-2.762768722829999746e+00,8.278300030509999630e-01,-9.374372681699998822e+00,-1.083648577330000029e-02,-1.216911058870000055e-02,-2.548810094590000380e-02,1.000000000000000000e+00
5.501804899999999943e-02,-2.796602018849999816e+00,7.637119703409999127e-01,-9.374200247739999270e+00,-1.137235015630000054e-02,-1.512695197020000153e-02,-2.304193936290000258e-02,1.000000000000000000e+00
6.014722299999999966e-02,-2.780069986240000013e+00,7.219131753360000792e-01,-9.387455450639999199e+00,-2.907563000920000001e-02,-2.483022958039999770e-02,-2.145288512109999948e-02,1.000000000000000000e+00
6.504986699999999733e-02,-2.699288476559999594e+00,7.188925854050000064e-01,-9.432437332660001061e+00,-1.427487004549999987e-02,-2.410507760939999827e-02,-2.514820732179999865e-02,1.000000000000000000e+00
7.005280899999999367e-02,-2.741920872850000190e+00,8.121580213410000137e-01,-9.384773664209999922e+00,-1.867470331490000274e-02,-4.747656173999999576e-03,-1.786769554020000220e-02,1.000000000000000000e+00
7.503174499999999691e-02,-2.675074949540000357e+00,8.093529738580000910e-01,-9.428115962330000599e+00,-1.535098254680000024e-02,-3.244635462760000338e-02,-3.742166981100000095e-02,1.000000000000000000e+00
8.019578199999999324e-02,-2.560170220989999912e+00,6.496444963299999875e-01,-9.391605556050000914e+00,-8.115423843260000103e-03,6.764190271500000219e-03,-2.471696212890000036e-02,1.000000000000000000e+00
8.501557499999999601e-02,-2.843897146249999786e+00,7.042846527300000714e-01,-9.390170554810000070e+00,3.343802876769999804e-03,-1.620502211149999969e-02,-2.429102547470000234e-02,1.000000000000000000e+00
9.020448300000000197e-02,-2.744236748579999663e+00,7.007705801939999590e-01,-9.350732862919999278e+00,-9.871099144220000024e-03,-1.994675584140000180e-02,-3.377383947370000278e-02,1.000000000000000000e+00
9.516339000000000048e-02,-2.817779539170000014e+00,8.204958607709998963e-01,-9.403685869949999443e+00,-5.443104542789999403e-03,-1.538978796450000096e-02,-1.278576999899999969e-02,1.000000000000000000e+00
1.000458629999999988e-01,-2.717790055680000094e+00,8.339529429109999725e-01,-9.348560195050000132e+00,-5.543223116549999586e-03,-1.860174350440000138e-02,-2.794533222909999920e-02,1.000000000000000000e+00
1.051804290000000058e-01,-2.739661695749999737e+00,7.502833836429999570e-01,-9.401249582710001107e+00,-9.395143017169999694e-03,-7.974636740979999805e-03,-3.881475329399999841e-02,1.000000000000000000e+00
1.100185659999999982e-01,-2.768498206389999883e+00,5.614306446949999252e-01,-9.372292952819998746e+00,1.536870654670000058e-02,-7.777121849359999554e-03,-3.771599754690000555e-02,1.000000000000000000e+00
1.151738729999999961e-01,-2.719763401579999851e+00,6.288367591660000144e-01,-9.401365318049998976e+00,-4.845599643890000259e-03,-7.634349167350000520e-03,-4.142824187869999231e-02,1.000000000000000000e+00
1.200200859999999980e-01,-2.659517607190000188e+00,6.500698821350000545e-01,-9.385026177660000357e+00,8.973979856819999971e-05,1.611939631400000073e-02,-3.051818534730000101e-02,1.000000000000000000e+00
1.251859339999999987e-01,-2.771226754570000228e+00,6.753216661609999782e-01,-9.408744906900000871e+00,-3.396957181390000170e-03,-2.557233721020000031e-02,-3.080202266570000041e-02,1.000000000000000000e+00
1.300944410000000051e-01,-2.710795374479999964e+00,5.302599554820000005e-01,-9.383977545389999619e+00,-1.148092653600000027e-02,-1.012511085720000162e-02,-3.865383937950000320e-02,1.000000000000000000e+00
1.352008640000000039e-01,-2.799909828220000119e+00,5.347283330680000502e-01,-9.444156996549999405e+00,-2.243150491270000119e-03,1.497360691429999897e-02,-3.406121209259999755e-02,1.000000000000000000e+00
1.400405580000000094e-01,-2.752890010629999828e+00,6.695734778980000357e-01,-9.365960242659999935e+00,-3.210317343469999696e-03,-5.034266505390000163e-04,-1.928452029819999886e-02,1.000000000000000000e+00
1.450278329999999949e-01,-2.774905443079999756e+00,7.845484952079999630e-01,-9.429967727670000244e+00,-2.172142080959999985e-02,3.236856078730000145e-03,-1.499992981549999951e-02,1.000000000000000000e+00
1.500381470000000106e-01,-2.756709568920000297e+00,7.967681445069999535e-01,-9.386343105479999949e+00,6.216854788359999634e-03,8.397899568080000043e-03,-1.250889897350000030e-02,1.000000000000000000e+00
1.551702809999999932e-01,-2.778377795369999959e+00,8.264915940549999451e-01,-9.408927277729999261e+00,-9.601028636100000097e-03,1.356706768270000106e-02,-2.498776279390000146e-02,1.000000000000000000e+00
1.601551230000000103e-01,-2.712016732970000010e+00,8.512892776369999082e-01,-9.387070835230000299e+00,2.910922281440000026e-03,-5.182705353949999642e-03,-1.860457286240000188e-02,1.000000000000000000e+00
1.652049969999999923e-01,-2.801611955959999456e+00,8.252102490070000185e-01,-9.407585215470000151e+00,1.504568476229999931e-02,-6.892249919470000603e-03,-2.168771065770000103e-02,1.000000000000000000e+00
1.700361089999999908e-01,-2.703353826309999874e+00,7.916998282670000275e-01,-9.398896297580000336e+00,2.427268028260000030e-02,2.241762541229999975e-02,-3.485909104350000398e-02,1.000000000000000000e+00
1.750359200000000115e-01,-2.728729382840000550e+00,7.746683217059999738e-01,-9.436906002500000668e+00,1.219868473710000040e-02,-4.354621283710000297e-03,-2.797436900440000013e-02,1.000000000000000000e+00
1.801898730000000004e-01,-2.679729789610000079e+00,6.925766062139999679e-01,-9.425359941620000015e+00,1.308936998249999976e-02,1.553444936870000161e-02,-2.903709933160000117e-02,1.000000000000000000e+00
1.850677779999999883e-01,-2.662065830369999997e+00,7.162697626209999502e-01,-9.440734036360000303e+00,2.282411605120000103e-02,1.513080671429999947e-02,-4.441692680119999764e-02,1.000000000000000000e+00
1.900471280000000096e-01,-2.724796719570000025e+00,6.829543529960000470e-01,-9.441706680780001193e+00,4.068189114330000161e-02,-2.819625660780000352e-04,-2.748744934800000095e-02,1.000000000000000000e+00
1.949801070000000136e-01,-2.731181744430000169e+00,5.904801770359999757e-01,-9.420933357350000037e+00,2.764087915420000013e-02,6.361580453810000355e-03,-2.511458843950000255e-02,1.000000000000000000e+00
2.000453000000000092e-01,-2.650178700959999745e+00,6.072461279959999736e-01,-9.387864615959999881e+00,3.232825174929999934e-02,2.649224596099999593e-03,-3.945176675920000070e-02,1.000000000000000000e+00
2.051542289999999935e-01,-2.658973417309999920e+00,5.905656998949999625e-01,-9.385774950200000077e+00,7.966665551069999907e-03,1.231082715090000071e-02,-4.272678494450000281e-02,1.000000000000000000e+00
2.101672280000000115e-01,-2.681265328620000332e+00,6.329310427419999607e-01,-9.434095036739998719e+00,1.487000193449999896e-02,1.438212767240000002e-02,-2.947882935399999751e-02,1.000000000000000000e+00
2.151405289999999970e-01,-2.658592309040000323e+00,6.962998645209999005e-01,-9.390793655150000419e+00,1.520655956119999937e-02,-1.368850097060000069e-02,-2.111264690759999743e-02,1.000000000000000000e+00
2.200119269999999960e-01,-2.680843888330000091e+00,6.892317527660000165e-01,-9.404710536819999689e+00,2.791682491079999556e-04,-2.953323535619999628e-03,-2.831928804520000148e-02,1.000000000000000000e+00
2.250267410000000023e-01,-2.741847223090000174e+00,6.726275317059999814e-01,-9.413148694820000273e+00,1.132034510370000073e-02,-1.133132353429999913e-02,-2.165433205660000082e-02,1.000000000000000000e+00
2.300281489999999873e-01,-2.703881941829999747e+00,7.068946160319999894e-01,-9.421790266439998618e+00,1.827294193209999876e-02,-1.872926950449999971e-04,-1.272568292920000198e-02,1.000000000000000000e+00
2.351973460000000016e-01,-2.699007906059999851e+00,6.890793386830000866e-01,-9.424813998169998541e+00,9.134197607639999231e-03,-1.806833408770000191e-02,-1.375348120929999890e-02,1.000000000000000000e+00
2.401723199999999947e-01,-2.753013637009999570e+00,6.002659502530000024e-01,-9.400034946219999910e+00,1.247827545740000030e-03,-2.724104933440000403e-02,-1.295138336719999991e-02,1.000000000000000000e+00
2.450244540000000026e-01,-2.707302271670000149e+00,5.892944743829999776e-01,-9.410904715279999166e+00,1.337793190029999864e-02,-2.021563425659999788e-02,-1.091906800870000131e-02,1.000000000000000000e+00
2.500621889999999903e-01,-2.679408594829999934e+00,6.723034873839999204e-01,-9.430099829619999596e+00,4.442761186510000085e-03,-1.683842763299999920e-02,-1.086136139929999751e-02,1.000000000000000000e+00
2.551199499999999842e-01,-2.647189163749999796e+00,6.523019520359999435e-01,-9.400437097280001097e+00,-1.670577190820000252e-02,-1.786969229579999860e-02,-2.185914106670000176e-02,1.000000000000000000e+00
2.600404060000000017e-01,-2.742294674599999649e+00,6.226670575550000697e-01,-9.407268404610000800e+00,-6.191807799039999657e-03,-1.990167982879999936e-02,-7.194029632960000607e-03,1.000000000000000000e+00
2.651991599999999893e-01,-2.725656551270000172e+00,6.572874122980000289e-01,-9.399852575389999743e+00,5.070598330349999905e-03,-1.405271142720000178e-02,-9.868508204819999297e-03,1.000000000000000000e+00
2.700076559999999848e-01,-2.779591555070000108e+00,7.526492359909999763e-01,-9.383325218959999603e+00,-1.120512653140000141e-02,-1.864934153849999790e-02,6.005431059749999530e-03,1.000000000000000000e+00
2.751661739999999856e-01,-2.673404093719999874e+00,7.178820201229999531e-01,-9.400771443810000960e+00,1.058310549709999895e-02,-2.889119088649999903e-02,-1.488042436539999992e-02,1.000000000000000000e+00
2.801826599999999723e-01,-2.730311683600000094e+00,6.512732665749999539e-01,-9.403664827160000073e+00,-2.259416040030000350e-03,-2.664444595580000089e-02,-1.035328581929999790e-02,1.000000000000000000e+00
2.850459100000000134e-01,-2.611090845409999694e+00,6.193981919520000767e-01,-9.336990753289999390e+00,1.719795749519999976e-03,-1.070443633939999889e-02,-1.858845725659999740e-02,1.000000000000000000e+00
2.901437390000000116e-01,-2.697130421750000284e+00,6.331012116769999531e-01,-9.426115143900000604e+00,1.157985813920000065e-02,-1.246372237799999935e-02,-1.164196804170000189e-02,1.000000000000000000e+00
2.950658409999999954e-01,-2.708633812540000019e+00,6.606156799379999667e-01,-9.407274249830001267e+00,-1.269573695029999993e-04,-1.054471824320000160e-02,2.032761927690000022e-03,1.000000000000000000e+00
3.002083210000000002e-01,-2.717174554130000086e+00,6.620079380139999303e-01,-9.404625196619999628e+00,1.011130283590000066e-03,-1.445982418950000035e-02,-5.544443614779999072e-03,1.000000000000000000e+00
3.051910919999999972e-01,-2.799967695889999941e+00,7.479471227150000789e-01,-9.387327440339999995e+00,-9.967056103049999269e-03,-2.073814906180000001e-02,7.863380014899999312e-03,1.000000000000000000e+00
3.100762989999999997e-01,-2.755188350700000122e+00,7.421083335590000774e-01,-9.370860874189999024e+00,-1.202094461770000094e-02,-1.912322267890000094e-02,3.295493312179999766e-03,1.000000000000000000e+00
3.150241950000000068e-01,-2.771130600720000281e+00,7.564533775149999695e-01,-9.370412545900000723e+00,-3.532353788610000014e-03,-1.465910952539999958e-02,-2.787759760389999560e-03,1.000000000000000000e+00
3.199869300000000027e-01,-2.729325887429999931e+00,6.737701989350000087e-01,-9.412396999669999431e+00,-1.987594179810000042e-02,-1.955954730509999739e-02,5.069827195260000717e-03,1.000000000000000000e+00
3.251834219999999998e-01,-2.706035904999999797e+00,6.440904423990000405e-01,-9.400624144289999151e+00,-4.170688334849999811e-03,-2.365675009790000130e-02,7.535262499000000211e-03,1.000000000000000000e+00
3.301739690000000116e-01,-2.650576468100000138e+00,6.250604554980000449e-01,-9.383772378210000653e+00,-4.219193942840000181e-04,-1.515915710479999977e-02,2.330846618860000271e-03,1.000000000000000000e+00
3.350310300000000074e-01,-2.628243348000000257e+00,6.748023184620000059e-01,-9.401343690739999204e+00,-2.138898707929999966e-03,-3.531725704669999577e-02,-5.330506712199999976e-03,1.000000000000000000e+00
3.401874819999999855e-01,-2.671776784780000025e+00,5.543667341910000212e-01,-9.447401677549999377e+00,2.205769531430000052e-03,-2.731532230969999780e-02,-4.665922373529999764e-03,1.000000000000000000e+00
3.450603259999999728e-01,-2.656208336509999768e+00,5.703411329140000152e-01,-9.376754023880000233e+00,-1.251550018789999823e-02,-3.435051068659999984e-02,2.327443566169999992e-03,1.000000000000000000e+00
3.500440180000000123e-01,-2.827237687869999849e+00,7.607320777470000239e-01,-9.311544761869999576e+00,-2.489628084000000338e-02,-4.438938573000000137e-02,-3.690275829289999757e-03,1.000000000000000000e+00
3.551535869999999928e-01,-2.729367680749999803e+00,6.896781813590000532e-01,-9.362312241549998859e+00,-6.048287032170000018e-04,-4.927207157019999895e-02,2.567654009909999847e-03,1.000000000000000000e+00
3.600648659999999834e-01,-2.779445424599999992e+00,7.217262744610000169e-01,-9.388667749039999677e+00,2.020766492929999998e-03,-4.053163900969999900e-02,1.139948144559999911e-02,1.000000000000000000e+00
3.650695869999999732e-01,-2.694085062699999700e+00,6.371185575600000206e-01,-9.382607426079999868e+00,3.676793538030000141e-03,-4.311312362549999527e-02,6.524431053550000179e-03,1.000000000000000000e+00
3.700539689999999826e-01,-2.669519068980000132e+00,5.549456300580000168e-01,-9.379480233969999858e+00,6.080991588529999908e-03,-4.388365894560000008e-02,7.363571319730000467e-03,1.000000000000000000e+00
3.750349310000000158e-01,-2.683871127200000206e+00,5.432189884390000723e-01,-9.368095501130000002e+00,-2.210426889359999938e-02,-2.805556170640000069e-02,5.677661392840000626e-03,1.000000000000000000e+00
3.800446579999999797e-01,-2.757906085230000137e+00,5.384618570399999360e-01,-9.399260454720000268e+00,-1.503120269630000075e-02,-3.881684318180000232e-02,3.226320724929999679e-03,1.000000000000000000e+00
3.850561459999999880e-01,-2.798388025479999985e+00,6.171561851789999498e-01,-9.372706794319999091e+00,-3.378516063090000049e-02,-4.611778259279999959e-02,2.699227072300000238e-02,1.000000000000000000e+00
3.899989200000000267e-01,-2.671810687050000244e+00,7.382387986489998832e-01,-9.376470530760000699e+00,-1.874174736440000280e-02,-5.650333315130000311e-02,1.588466390969999961e-02,1.000000000000000000e+00
3.949867200000000134e-01,-2.830658017709999807e+00,7.648896358179999577e-01,-9.377429731179999450e+00,-2.872760221360000019e-02,-5.871631205080000970e-02,1.583384349939999727e-02,1.000000000000000000e+00
4.000179119999999755e-01,-2.811887266259999851e+00,7.553913743060000074e-01,-9.375006303430000187e+00,-2.165091596540000274e-02,-4.751649871469999786e-02,6.737793330100000887e-03,1.000000000000000000e+00
4.050156340000000132e-01,-2.829021648679999501e+00,8.039634628389998872e-01,-9.386849301439999849e+00,-1.966181024909999936e-02,-3.617995232340000256e-02,1.956778205929999778e-02,1.000000000000000000e+00
4.100035100000000154e-01,-2.787738621169999931e+00,7.965891346789999439e-01,-9.415351757819999889e+00,-4.573678597810000579e-03,-4.186841100449999881e-02,1.002646237609999998e-02,1.000000000000000000e+00
4.150241989999999825e-01,-2.825940341529999955e+00,6.351998644569999408e-01,-9.369062884859999940e+00,-1.585491001610000311e-02,-5.477367341519999433e-02,2.359185181559999775e-02,1.000000000000000000e+00
4.200614010000000009e-01,-2.746053150350000305e+00,5.205937169919999663e-01,-9.404913365920000601e+00,-1.826717704529999889e-02,-6.773565709590000095e-02,1.191033236679999927e-02,1.000000000000000000e+00
4.251941940000000253e-01,-2.686858618579999636e+00,4.917110291179999648e-01,-9.402819023979999358e+00,-4.313088138589999797e-04,-4.284974187609999485e-02,2.042998187240000277e-02,1.000000000000000000e+00
4.300271629999999901e-01,-2.696616919269999801e+00,5.642686080680000549e-01,-9.406640043580001276e+00,-1.854650489990000012e-02,-5.408812686800000546e-02,2.903837151829999699e-02,1.000000000000000000e+00
4.350407669999999949e-01,-2.733482130330000093e+00,6.739994776459999892e-01,-9.392823115149999680e+00,-2.580483444039999991e-02,-5.292683467269999886e-02,3.052496351300000230e-02,1.000000000000000000e+00
4.400063009999999886e-01,-2.761440396829999866e+00,7.479379895609999940e-01,-9.382939434520000788e+00,-3.577204421159999731e-02,-5.199926346540000022e-02,3.102960996329999846e-02,1.000000000000000000e+00
4.450075700000000190e-01,-2.840994702799999772e+00,7.533234819910000768e-01,-9.355909973290000181e+00,-3.929676488040000082e-02,-5.662196874619999931e-02,1.605423167350000097e-02,1.000000000000000000e+00
4.500143750000000220e-01,-2.794366807139999853e+00,7.078616344339999644e-01,-9.350917571830001052e+00,-1.561758853499999912e-02,-4.719567671419999666e-02,2.085078321399999948e-02,1.000000000000000000e+00
4.550092720000000202e-01,-2.746024508780000151e+00,7.063307716050000185e-01,-9.373566041489999279e+00,-1.321791950609999856e-02,-5.098976939919999674e-02,2.169812843199999883e-02,1.000000000000000000e+00
4.599719079999999849e-01,-2.732600671320000174e+00,6.552069527630000056e-01,-9.370822880269999544e+00,-1.978558488190000283e-02,-5.749996379019999687e-02,1.589881256220000011e-02,1.000000000000000000e+00
4.649904970000000026e-01,-2.714162512829999763e+00,5.702861878570000265e-01,-9.403916756090000106e+00,-2.412057481710000104e-02,-5.612365156409999944e-02,2.679779566820000153e-02,1.000000000000000000e+00
4.699729420000000046e-01,-2.756182037909999938e+00,5.704215412070000601e-01,-9.414030153829999747e+00,-2.500174753370000211e-02,-5.814855918290000314e-02,2.738708071409999903e-02,1.000000000000000000e+00
4.750046840000000103e-01,-2.725430341300000059e+00,5.454600453639999458e-01,-9.400362278480001166e+00,-1.608112826939999893e-02,-6.078928336500000196e-02,2.675144374369999717e-02,1.000000000000000000e+00
4.801892360000000193e-01,-2.760822557200000471e+00,6.339863239490000080e-01,-9.352522084419998549e+00,-2.191682904959999997e-02,-5.210541188719999828e-02,3.092333488170000144e-02,1.000000000000000000e+00
4.850605769999999928e-01,-2.783842198259999901e+00,7.243514353329999489e-01,-9.374552714439998269e+00,-4.369286075230000704e-02,-5.083774030209999711e-02,2.436508797109999611e-02,1.000000000000000000e+00
4.900431479999999840e-01,-2.844491020490000466e+00,7.863900314210000575e-01,-9.375773780669998558e+00,-2.890667691829999775e-02,-6.334044039250000258e-02,2.057006023819999904e-02,1.000000000000000000e+00
4.949644859999999813e-01,-2.810550756959999674e+00,6.531848723500000009e-01,-9.360292133899999811e+00,-2.603783830999999854e-02,-7.071457803250000285e-02,1.670132391150000103e-02,1.000000000000000000e+00
5.000470230000000349e-01,-2.800045437300000106e+00,5.996377718840000259e-01,-9.352298212539999156e+00,-3.116345219309999900e-02,-7.814758270980000365e-02,2.047690376640000018e-02,1.000000000000000000e+00
5.050381680000000095e-01,-2.794638902079999987e+00,5.673909778719999908e-01,-9.344364496929999930e+00,-2.129307575519999787e-02,-6.987866014239998980e-02,3.282555937770000043e-02,1.000000000000000000e+00
5.099898059999999900e-01,-2.752799409740000147e+00,5.968860620229999858e-01,-9.363112452020001086e+00,-3.032828308639999929e-02,-7.233314961189998837e-02,3.504516929390000257e-02,1.000000000000000000e+00
5.150052080000000476e-01,-2.794815719949999888e+00,6.417292662260000169e-01,-9.411385192280000922e+00,-3.873352706429999959e-02,-7.206382602449999675e-02,4.984664544459999763e-02,1.000000000000000000e+00
5.199714060000000249e-01,-2.763829337799999841e+00,6.728127520800000205e-01,-9.400364616570000109e+00,-5.272442102429999999e-02,-9.233274310830000275e-02,3.999165073040000101e-02,1.000000000000000000e+00
5.251838149999999983e-01,-2.836288717069999965e+00,6.886107713230000815e-01,-9.386775651679998944e+00,-5.221081152560000382e-02,-8.312933892010000714e-02,3.610559925440000317e-02,1.000000000000000000e+00
5.300521289999999830e-01,-2.816514633799999778e+00,7.778734744230000331e-01,-9.372476492689999716e+00,-4.323296248909999639e-02,-8.824050426480001263e-02,3.204321861270000016e-02,1.000000000000000000e+00
5.349960679999999913e-01,-2.906001135720000406e+00,8.768117683630000103e-01,-9.375946214629999886e+00,-5.468598753209999441e-02,-8.793609589339999866e-02,3.842990100380000440e-02,1.000000000000000000e+00
5.399781729999999502e-01,-2.945684619070000121e+00,8.973404693900000062e-01,-9.365938030829999761e+00,-4.454137757420000010e-02,-9.518076479430001569e-02,3.351211175319999958e-02,1.000000000000000000e+00
5.450250359999999628e-01,-2.895065607950000341e+00,7.932946962430000859e-01,-9.408572472939999543e+00,-3.075957670809999905e-02,-8.957815170289998297e-02,3.052823431790000278e-02,1.000000000000000000e+00
5.500695740000000056e-01,-2.835413395540000270e+00,8.462174542659999243e-01,-9.317538449319998861e+00,-3.129034861919999938e-02,-6.062134355309999750e-02,2.572981640699999878e-02,1.000000000000000000e+00
5.552062540000000102e-01,-2.843038191330000242e+00,7.815082507289999869e-01,-9.375354678480000814e+00,-1.131046749649999850e-02,-8.266443014139999990e-02,2.177416533229999812e-02,1.000000000000000000e+00
5.600578769999999817e-01,-2.893764462220000055e+00,6.513833758860000378e-01,-9.437160854049999159e+00,-2.632372640070000311e-02,-9.352305531500000602e-02,3.522375598550000347e-02,1.000000000000000000e+00
5.649987050000000455e-01,-2.808212669400000028e+00,7.038463343780000381e-01,-9.399768988759999999e+00,-1.386823039500000021e-02,-9.714400768280000154e-02,3.298768028619999959e-02,1.000000000000000000e+00
5.702044560000000262e-01,-2.821173857779999850e+00,7.672996926339999968e-01,-9.353594097569999377e+00,-2.527809888120000417e-02,-1.024651229380000028e-01,3.551950678230000186e-02,1.000000000000000000e+00
5.750534819999999492e-01,-2.936459986870000538e+00,8.257107458750000406e-01,-9.390898284569999532e+00,-3.222550824279999532e-02,-1.155427619810000112e-01,3.261239454150000050e-02,1.000000000000000000e+00
5.802006330000000212e-01,-2.912207881409999644e+00,7.681528023320000065e-01,-9.302530849810001001e+00,-2.470054849979999925e-02,-9.785197675230000725e-02,2.306418679649999831e-02,1.000000000000000000e+00
5.850529829999999709e-01,-2.838284274800000340e+00,6.899635011059999101e-01,-9.375530619560001000e+00,-1.799228601159999974e-03,-1.029258668420000022e-01,1.045293360950000014e-02,1.000000000000000000e+00
5.901980260000000422e-01,-2.928386862790000489e+00,6.818013105040000577e-01,-9.380914650689998524e+00,-1.569291576739999944e-02,-8.321101963520000089e-02,1.380250416699999906e-02,1.000000000000000000e+00
5.950470749999999809e-01,-2.992466828510000010e+00,6.964614848229999655e-01,-9.347980349339998440e+00,-2.231239899990000372e-02,-1.119747832420000117e-01,3.538879007100000085e-02,1.000000000000000000e+00
6.000549800000000156e-01,-2.879302513889999915e+00,6.962493033769999728e-01,-9.350708313000000160e+00,-3.042678162459999669e-02,-9.014419466260001346e-02,2.609036862850000124e-02,1.000000000000000000e+00
6.050301980000000190e-01,-2.959692393899999718e+00,7.071078203919999305e-01,-9.346270038289999249e+00,-2.707120776180000146e-02,-1.121492162350000016e-01,4.143251851199999947e-02,1.000000000000000000e+00
6.100511910000000482e-01,-2.870577063379999849e+00,7.166542318940000156e-01,-9.323811538239999308e+00,-3.663485124709999624e-02,-1.115502715109999987e-01,3.463220223780000273e-02,1.000000000000000000e+00
6.150559899999999969e-01,-2.907944963259999849e+00,8.058102597490001129e-01,-9.347097136760000424e+00,-2.208583243190000156e-02,-8.328173309560001070e-02,2.558250725270000414e-02,1.000000000000000000e+00
6.200149430000000406e-01,-2.947618217479999636e+00,7.859279668670000607e-01,-9.307613267639998966e+00,-3.355946764349999889e-02,-9.252136200669999755e-02,3.728089109059999628e-02,1.000000000000000000e+00
6.250584759999999740e-01,-2.895481787530000073e+00,7.750684269399998882e-01,-9.326545931639998344e+00,-7.007766049359999937e-03,-8.496912568810001398e-02,2.103708125649999747e-02,1.000000000000000000e+00
6.300271290000000191e-01,-2.909997219620000131e+00,7.695912376379999698e-01,-9.394390218339999876e+00,-1.080008596179999822e-02,-1.052969470620000042e-01,3.098868392409999742e-02,1.000000000000000000e+00
6.352104889999999893e-01,-2.859862192620000076e+00,8.005542389169999495e-01,-9.376484559289998799e+00,-1.462208945299999993e-02,-8.817999809979999715e-02,3.211500495669999955e-02,1.000000000000000000e+00
6.401816470000000203e-01,-2.841922923559999870e+00,8.338281474879999378e-01,-9.375825803119999691e+00,-1.158126723020000068e-02,-9.904333949090000921e-02,2.925797365609999687e-02,1.000000000000000000e+00
6.452016590000000384e-01,-2.838414330920000062e+00,8.494464262499999974e-01,-9.481865088169998401e+00,2.402792684730000079e-03,-1.208737939600000033e-01,4.108285903930000704e-02,1.000000000000000000e+00
6.500498890000000474e-01,-2.763395622550000041e+00,9.312946153100000179e-01,-9.495259991789998466e+00,-4.281274974349999832e-03,-1.083439812060000007e-01,2.993996255100000309e-02,1.000000000000000000e+00
6.552012579999999531e-01,-2.775756506959999648e+00,9.399315107520000989e-01,-9.461751105419999419e+00,7.853206247089999231e-03,-1.337871253490000023e-01,2.218790166079999751e-02,1.000000000000000000e+00
6.600471439999999745e-01,-2.763132003180000407e+00,9.308482597820000315e-01,-9.413824986649999005e+00,1.249488070610000126e-02,-1.264762878419999903e-01,5.537264514709999523e-03,1.000000000000000000e+00
6.650503960000000436e-01,-2.880361959810000094e+00,9.498781736179999768e-01,-9.444049444520000947e+00,3.691009432080000208e-02,-1.500490754840000107e-01,1.157145760950000109e-02,1.000000000000000000e+00
6.699998889999999596e-01,-2.817118444910000186e+00,8.783747798959999908e-01,-9.434580189900000136e+00,4.968266189099999897e-02,-1.675983518359999980e-01,1.652227342129999887e-02,1.000000000000000000e+00
6.750068110000000399e-01,-2.802112598959999534e+00,8.152974153449999983e-01,-9.446694406069999772e+00,4.219802469019999502e-02,-1.730075180530000201e-01,4.147766623650000345e-03,1.000000000000000000e+00
6.801772249999999964e-01,-2.859142353909999823e+00,8.227186513869999551e-01,-9.425633497859999821e+00,6.666347384449999858e-02,-1.967347264290000008e-01,6.314550992099999746e-03,1.000000000000000000e+00
6.850601589999999463e-01,-2.949289073299999675e+00,7.278261257060000267e-01,-9.428564290619998900e+00,7.876618206500000940e-02,-1.989440321919999921e-01,1.338806562130000037e-02,1.000000000000000000e+00
6.899699270000000384e-01,-2.874719277749999691e+00,7.345468853290000322e-01,-9.456292255499999300e+00,6.445589661599999964e-02,-1.971890777349999957e-01,7.479959633199999812e-03,1.000000000000000000e+00
6.950299290000000463e-01,-2.894583961910000003e+00,6.964252444660000707e-01,-9.465402613669999354e+00,8.621816337109999839e-02,-2.211611270900000203e-01,8.951293304559999539e-03,1.000000000000000000e+00
7.000431219999999621e-01,-2.815052744559999542e+00,7.077770248899999395e-01,-9.487440842479999858e+00,8.723908662799999270e-02,-2.299088090659999750e-01,1.997520960870000084e-02,1.000000000000000000e+00
7.049984700000000437e-01,-2.941961506899999801e+00,7.285442839129999681e-01,-9.484532261549999177e+00,8.367586135860000107e-02,-2.530966401099999930e-01,2.150428667659999918e-02,1.000000000000000000e+00
7.100408280000000127e-01,-2.896287550959999457e+00,7.238398325489999729e-01,-9.459578437560001163e+00,8.357966691260000636e-02,-2.410568296909999797e-01,2.290041744709999869e-02,1.000000000000000000e+00
7.150248209999999771e-01,-2.954658199119999828e+00,6.472235527929999233e-01,-9.395807099400000695e+00,1.002374514939999989e-01,-2.501861751080000085e-01,3.338636830450000120e-02,1.000000000000000000e+00
7.201789010000000379e-01,-2.924200224760000300e+00,6.867746419369999966e-01,-9.509826277289999297e+00,8.451331406829999671e-02,-2.698429524900000098e-01,1.453318074349999912e-02,1.000000000000000000e+00
7.250703480000000312e-01,-3.093163291229999778e+00,6.300031725970000052e-01,-9.359759049939999187e+00,9.158345311879999284e-02,-2.891796231270000184e-01,5.172838643190000307e-02,1.000000000000000000e+00
7.300269889999999595e-01,-2.957566487779999864e+00,7.666132447399999217e-01,-9.500337733449999433e+00,9.324851632120000067e-02,-2.708271443840000181e-01,4.079525545240000189e-02,1.000000000000000000e+00
7.350025390000000103e-01,-2.975704494279999945e+00,7.499637962999999852e-01,-9.364113738019998578e+00,9.820938855409999668e-02,-2.901723980900000055e-01,3.737135976549999655e-02,1.000000000000000000e+00
7.399701349999999733e-01,-2.869129494919999690e+00,7.725309443510000040e-01,-9.457142734850000565e+00,9.080198407169999542e-02,-2.809635996819999648e-01,3.882734850050000019e-02,1.000000000000000000e+00
7.450020170000000164e-01,-2.872981786430000017e+00,8.258062421390000019e-01,-9.486146711010000843e+00,1.047257706519999915e-01,-2.942845225330000258e-01,4.204757139089999873e-02,1.000000000000000000e+00
7.500740320000000017e-01,-3.027065555950000153e+00,8.804642995220000046e-01,-9.422170205660000519e+00,1.189929693940000033e-01,-3.160965144630000223e-01,4.143494367600000089e-02,1.000000000000000000e+00
7.550428000000000139e-01,-3.036032413999999680e+00,7.890133656619999769e-01,-9.397116428430001278e+00,1.186416819690000041e-01,-3.262781202789999946e-01,5.691274255509999602e-02,0.000000000000000000e+00
7.600520720000000230e-01,-3.016007278579999618e+00,7.539478975000000194e-01,-9.339802303580000853e+00,1.445375233890000000e-01,-3.398764729500000081e-01,4.487834125759999904e-02,0.000000000000000000e+00
7.652024330000000152e-01,-2.995336830990000365e+00,8.638043296870000498e-01,-9.544836215869999307e+00,1.423361897469999915e-01,-3.549238741400000396e-01,4.736698046330000550e-02,0.000000000000000000e+00
7.700505300000000108e-01,-2.984217178820000260e+00,8.672443871380000058e-01,-9.427574695060000565e+00,1.361042708159999892e-01,-3.765544891359999813e-01,3.774007037279999976e-02,0.000000000000000000e+00
7.750096690000000121e-01,-3.176367936399999703e+00,7.203962679669999591e-01,-9.272228650519998894e+00,1.333104819060000057e-01,-3.980554938319999514e-01,5.685181170699999537e-02,0.000000000000000000e+00
7.800380120000000028e-01,-3.026270898440000412e+00,8.658936301160000681e-01,-9.181126822360001327e+00,1.774359941479999869e-01,-3.848766684529999482e-01,5.675876885649999704e-02,0.000000000000000000e+00
7.851950260000000181e-01,-3.052203212070000227e+00,8.516242817450000446e-01,-9.472126368969998822e+00,1.700566709039999791e-01,-3.944948613639999713e-01,4.926653951410000370e-02,0.000000000000000000e+00
7.902051960000000541e-01,-3.035627340330000035e+00,7.305081313320000991e-01,-9.583539748270000658e+00,1.945712566380000119e-01,-4.004124104980000265e-01,3.579253330830000496e-02,0.000000000000000000e+00
7.950382649999999662e-01,-3.136493898909999523e+00,8.127530646250000768e-01,-9.582774024600000828e+00,2.311135679479999760e-01,-4.332924485210000176e-01,5.005416646599999964e-02,0.000000000000000000e+00
8.001764869999999918e-01,-3.011656389890000174e+00,7.634082381540000517e-01,-9.610240123669999690e+00,2.304479479789999785e-01,-4.672291576860000406e-01,4.913864657279999604e-02,0.000000000000000000e+00
8.049422050000000217e-01,-3.011718641470000346e+00,7.847135495759999246e-01,-9.630124973839999214e+00,2.255382686850000151e-01,-4.797784388069999961e-01,3.869261220100000259e-02,0.000000000000000000e+00
8.099234079999999558e-01,-3.022437896150000025e+00,7.433776228419999299e-01,-9.740292737000000756e+00,2.416900247340000030e-01,-5.037665963170000483e-01,2.533058635889999868e-02,0.000000000000000000e+00
8.151905659999999498e-01,-2.939790300340000329e+00,7.250381024230000415e-01,-9.743958858290000080e+00,2.380657494069999824e-01,-5.326266884800000545e-01,3.629577904940000516e-02,0.000000000000000000e+00
8.201597419999999694e-01,-3.000560703120000561e+00,9.496316515109999301e-01,-9.787197696030000671e+00,2.634149491789999908e-01,-5.534856915470000027e-01,5.504743382330000434e-02,0.000000000000000000e+00
8.250698309999999758e-01,-3.032184798659999903e+00,9.004735797840001110e-01,-9.737326288410001141e+00,2.490568906069999811e-01,-5.986803174020000062e-01,3.796891868110000012e-02,0.000000000000000000e+00
8.300438439999999751e-01,-3.024545097559999896e+00,8.155777666569999917e-01,-9.926382294839999787e+00,2.781164348130000241e-01,-6.142920255659999329e-01,1.661900989710000248e-02,0.000000000000000000e+00
8.352023330000000190e-01,-2.887686019090000222e+00,7.944659319800000397e-01,-1.009474797989999928e+01,2.827354669570000256e-01,-6.778855919840000022e-01,1.444950886070000065e-02,0.000000000000000000e+00
8.400514639999999700e-01,-2.805290644480000317e+00,8.312623155880000114e-01,-1.022052423110000063e+01,2.887336015699999980e-01,-7.230523228650000966e-01,-4.365060478449999705e-03,0.000000000000000000e+00
8.450983810000000096e-01,-2.778327526490000032e+00,1.045675319989999963e+00,-1.032696683630000045e+01,2.938252389430000000e-01,-7.855437993999999646e-01,-1.726132445040000005e-02,0.000000000000000000e+00
8.502042239999999529e-01,-2.662925954329999900e+00,8.857735849110000004e-01,-1.048708491750000071e+01,3.276138901710000106e-01,-8.548651337620000179e-01,-4.323720186950000266e-02,0.000000000000000000e+00
8.550446510000000444e-01,-2.858997684740000267e+00,1.049309000320000074e+00,-1.064444405539999927e+01,3.180177211760000233e-01,-9.218521118160000194e-01,-7.616263628010000453e-02,0.000000000000000000e+00
8.601974610000000521e-01,-2.632447229429999869e+00,1.054766754259999884e+00,-1.060140220159999913e+01,3.464404642580000138e-01,-1.023550271990000038e+00,-1.011716574430000098e-01,0.000000000000000000e+00
8.652025060000000378e-01,-2.632774853949999994e+00,6.958413070980000725e-01,-1.084224509390000080e+01,3.652246594430000326e-01,-1.100905299189999909e+00,-1.244296506049999973e-01,0.000000000000000000e+00
8.700702550000000146e-01,-2.618321673450000109e+00,6.011439751959999356e-01,-1.090957967750000002e+01,4.044947028159999736e-01,-1.205118775369999895e+00,-1.331868171689999936e-01,0.000000000000000000e+00
8.750488520000000436e-01,-2.559041216959999865e+00,8.702793709200000727e-01,-1.098935288690000078e+01,3.878132700920000064e-01,-1.304315924640000013e+00,-1.451092511419999898e-01,0.000000000000000000e+00
8.800074989999999708e-01,-2.488096626169999936e+00,7.078539625839999072e-01,-1.119289626839999841e+01,4.171514809130000279e-01,-1.414605855939999879e+00,-1.796666979789999785e-01,0.000000000000000000e+00
8.852125849999999962e-01,-2.542370944930000043e+00,3.314885741860000290e-01,-1.125315930609999882e+01,3.905524909499999975e-01,-1.532413005830000063e+00,-1.880293637510000171e-01,0.000000000000000000e+00
8.900650430000000002e-01,-2.318529164060000092e+00,4.417306446899999517e-01,-1.111287872880000194e+01,4.081181883810000022e-01,-1.648351073270000189e+00,-2.516829371450000075e-01,0.000000000000000000e+00
8.950422099999999492e-01,-2.496732644829999792e+00,-5.925395207190000540e-02,-1.117363510309999874e+01,3.913476765160000537e-01,-1.791540622709999919e+00,-2.647699117660000101e-01,0.000000000000000000e+00
9.000470250000000005e-01,-2.665840964990000117e+00,-1.746743019970000144e-01,-1.126122570819999957e+01,3.653255701070000083e-01,-1.906119108199999967e+00,-2.911559045309999871e-01,0.000000000000000000e+00
9.050197730000000274e-01,-2.448622255520000124e+00,-3.896516440150000204e-01,-1.111699025579999933e+01,3.234076797959999916e-01,-2.047820568080000125e+00,-2.920691668989999767e-01,0.000000000000000000e+00
9.100666259999999896e-01,-2.595543732189999897e+00,-1.097774194409999904e+00,-1.148663020839999938e+01,2.597471773620000368e-01,-2.170107126240000017e+00,-2.750872671599999819e-01,0.000000000000000000e+00
9.151930520000000069e-01,-2.436066140809999503e+00,-1.411486946470000170e+00,-1.152693649979999968e+01,1.916071325539999703e-01,-2.287994623179999909e+00,-2.595409154889999903e-01,0.000000000000000000e+00
9.201709569999999561e-01,-2.412032792659999814e+00,-1.267487494729999886e+00,-1.149835221030000021e+01,8.767387270929999366e-02,-2.428183078770000058e+00,-2.274912148710000193e-01,0.000000000000000000e+00
9.250724500000000461e-01,-2.413569354579999882e+00,-7.226666971170000453e-01,-1.162656124160000104e+01,-4.104935377840000094e-02,-2.569082260129999629e+00,-1.859448850150000054e-01,0.000000000000000000e+00
9.300070540000000552e-01,-2.495934480190000304e+00,-1.613908045909999978e-01,-1.169941020469999948e+01,-1.170215085150000112e-01,-2.721413135529999749e+00,-1.666484922169999827e-01,0.000000000000000000e+00
9.350461060000000435e-01,-2.834588342890000501e+00,-2.911341327699999981e-01,-1.185079903609999974e+01,-1.595080941919999884e-01,-2.860320091250000196e+00,-1.434754133220000061e-01,0.000000000000000000e+00
9.400385799999999570e-01,-2.978355301050000126e+00,-3.648590019340000046e-01,-1.164370877579999863e+01,-1.686671674249999864e-01,-2.979590415950000182e+00,-1.296402662989999954e-01,0.000000000000000000e+00
9.450313740000000351e-01,-2.720322204499999952e+00,2.694532112349999897e-01,-1.150946981670000113e+01,-1.715507507319999903e-01,-3.129846096040000525e+00,-1.249572038649999911e-01,0.000000000000000000e+00
9.501560249999999597e-01,-2.806189054620000345e+00,7.167286123039999790e-01,-1.169059093849999975e+01,-2.262866348030000141e-01,-3.296749830249999569e+00,-1.301050782200000033e-01,0.000000000000000000e+00
9.550490379999999613e-01,-2.860535561840000351e+00,6.745890410370000145e-01,-1.162606673609999852e+01,-2.765422463419999755e-01,-3.465723752980000238e+00,-1.181262284520000067e-01,0.000000000000000000e+00
9.601770720000000203e-01,-3.046530427129999996e+00,7.972455710270000273e-02,-1.147575576309999867e+01,-3.374506831169999943e-01,-3.646186828609999875e+00,-1.369248777629999969e-01,0.000000000000000000e+00
9.651992990000000106e-01,-3.519349599180000343e+00,-6.412744351310000201e-01,-1.137848664450000058e+01,-3.969953954219999637e-01,-3.845253467559999638e+00,-9.701774269339999424e-02,0.000000000000000000e+00
9.702446209999999738e-01,-3.990789007300000080e+00,-9.859748845239999504e-01,-1.129159863469999969e+01,-4.891128838059999873e-01,-4.005036354059999582e+00,-7.397814840079999787e-02,0.000000000000000000e+00
9.751748169999999716e-01,-4.488797565659999655e+00,-1.185953266989999921e+00,-1.150312892319999847e+01,-5.706539154049999896e-01,-4.144106388089999982e+00,-2.860791236159999917e-02,0.000000000000000000e+00
9.800533399999999951e-01,-5.368630143149999867e+00,-1.857143532430000077e+00,-1.150413079369999814e+01,-6.779000163079998975e-01,-4.269700050349999998e+00,1.265865936880000014e-02,0.000000000000000000e+00
9.850443159999999754e-01,-6.398793859620000468e+00,-2.639850199170000078e+00,-1.190597673339999929e+01,-8.265769481659999141e-01,-4.319753646849999740e+00,9.640453010800000000e-02,0.000000000000000000e+00
9.900460490000000391e-01,-7.711464019640000167e+00,-3.278692000319999966e+00,-1.218080255930000000e+01,-1.026572227479999988e+00,-4.342620372769999904e+00,1.929397881029999984e-01,0.000000000000000000e+00
9.950531409999999743e-01,-7.769251022699999787e+00,-4.227089579990000345e+00,-1.151043544680000075e+01,-1.239049673080000025e+00,-4.344223976140000332e+00,3.617769181730000061e-01,0.000000000000000000e+00
1.000051178000000096e+00,-8.878387153600000303e+00,-3.539342293630000302e+00,-1.197787760200000129e+01,-1.491649746890000072e+00,-4.269398689269999991e+00,4.872122108940000196e-01,0.000000000000000000e+00
1.005050422000000054e+00,-9.831699101059999890e+00,-2.970308188199999755e+00,-1.165198326770000037e+01,-1.710744500160000126e+00,-4.176640510559999520e+00,5.864190459250000487e-01,0.000000000000000000e+00
1.010045443000000098e+00,-1.041008117280000000e+01,-2.329352025240000401e+00,-1.152780626839999911e+01,-1.951977491379999874e+00,-4.081433773040000546e+00,6.485671997070000527e-01,0.000000000000000000e+00
1.015039320000000078e+00,-1.010623032789999876e+01,-1.864416738309999655e+00,-1.060178798599999972e+01,-2.141139745709999875e+00,-3.945665359499999969e+00,6.985362768170000347e-01,0.000000000000000000e+00
1.020067131000000016e+00,-1.018291492370000029e+01,-1.381159174359999797e+00,-1.032468837000000050e+01,-2.304082870479999823e+00,-3.712157964709999369e+00,7.337906360629999902e-01,0.000000000000000000e+00
1.025061280999999935e+00,-9.708260937440000404e+00,-1.451440917329999802e+00,-9.864503638549999565e+00,-2.433093070980000050e+00,-3.490952730180000074e+00,7.624751925470000247e-01,0.000000000000000000e+00
1.030063747000000030e+00,-9.623626843989999458e+00,-1.439118903630000057e+00,-1.046935169240000008e+01,-2.560963869090000067e+00,-3.249776840209999573e+00,7.792798280720000248e-01,0.000000000000000000e+00
1.035203851999999980e+00,-9.720249481399999780e+00,-1.570223071839999873e+00,-1.014578960039999878e+01,-2.682432889940000287e+00,-2.982728004459999749e+00,7.639194130899999990e-01,0.000000000000000000e+00
1.040017355999999893e+00,-1.167593697470000080e+01,-1.914803255850000108e+00,-1.180306580949999962e+01,-2.776180267330000007e+00,-2.736121892929999966e+00,6.576107144359999435e-01,0.000000000000000000e+00
1.045041278000000018e+00,-1.135364680230000012e+01,-1.813569763650000111e+00,-1.203384440390000165e+01,-2.779053211209999930e+00,-2.394414424899999894e+00,5.778936147689999192e-01,0.000000000000000000e+00
1.050184143999999931e+00,-7.931697839149999929e+00,7.657961014050000681e-02,-1.261387833450000073e+01,-2.709707736970000447e+00,-2.000919103620000250e+00,5.467601418499999921e-01,0.000000000000000000e+00
1.055059924000000038e+00,-5.061854350750000009e+00,1.441965232970000121e+00,-1.300091716569999889e+01,-2.547456502909999809e+00,-1.556259036060000156e+00,4.364477097990000498e-01,0.000000000000000000e+00
1.060211693999999927e+00,-4.562775825070000124e+00,-2.107427731890000044e-01,-1.200035948290000043e+01,-2.336101293559999625e+00,-1.176533341410000100e+00,3.578239679339999535e-01,0.000000000000000000e+00
1.065013063000000093e+00,-3.739564421730000365e+00,-2.084595905020000028e+00,-1.028497945990000062e+01,-2.190291881559999876e+00,-7.551730871199999751e-01,3.383439779280000281e-01,0.000000000000000000e+00
1.070208841999999994e+00,-1.624073319970000151e+00,-2.719425840189999999e+00,-8.435152387960000553e+00,-2.082754373549999816e+00,-3.603003919120000287e-01,2.806516587730000234e-01,0.000000000000000000e+00
1.075027474000000094e+00,1.528872824320000046e+00,-2.287976789400000044e+00,-7.906308546350000022e+00,-1.999031424520000266e+00,1.489180177449999920e-01,1.534111648800000061e-01,0.000000000000000000e+00
1.080046778000000041e+00,2.763421341519999963e+00,-3.017171353920000243e+00,-6.354036434010000178e+00,-2.000699043270000033e+00,6.289831995960000199e-01,-3.850703313949999790e-02,0.000000000000000000e+00
1.085053808000000064e+00,-1.441694745469999928e-01,-1.633397759279999972e+00,-6.058669924369999293e+00,-2.004316329959999976e+00,7.469120025630000548e-01,-3.093783557420000108e-01,0.000000000000000000e+00
1.090056928999999952e+00,-1.521892317779999892e+00,-1.119285257539999856e+00,-9.875618906810000652e+00,-1.951264619829999880e+00,7.663103938099999901e-01,-5.567250251770000657e-01,0.000000000000000000e+00
1.095031869000000047e+00,-1.349497523289999945e+00,-2.823328989990000260e+00,-1.021909215250000003e+01,-1.829750180240000246e+00,8.759126067160000195e-01,-6.990241408349999741e-01,0.000000000000000000e+00
1.100164107999999974e+00,1.620837552919999869e+00,-2.592895555770000193e+00,-7.901880793039999240e+00,-1.593850493429999959e+00,1.151117801670000107e+00,-8.059693574909999603e-01,0.000000000000000000e+00
1.105068442999999956e+00,2.168568027430000100e+00,-1.333181909909999963e+00,-6.810106715830000823e+00,-1.480286479000000099e+00,1.320649147029999915e+00,-8.725805282590000100e-01,0.000000000000000000e+00
1.110200676999999914e+00,1.981024909779999899e+00,-1.767022970400000004e+00,-6.035102001769999447e+00,-1.495546936990000075e+00,1.469035983089999942e+00,-9.463904500009999721e-01,0.000000000000000000e+00
1.115191215000000069e+00,2.831782930080000149e+00,-2.692524389259999928e+00,-5.969816167389999428e+00,-1.490236163140000070e+00,1.511597037319999837e+00,-1.018147945399999976e+00,0.000000000000000000e+00
1.120036472000000005e+00,3.384645360659999991e+00,-2.695495221759999893e+00,-5.822752213509999386e+00,-1.488306880000000110e+00,1.434592723849999807e+00,-1.105854868890000064e+00,0.000000000000000000e+00
1.125184635000000100e+00,2.771336352429999650e+00,-2.435376112720000208e+00,-5.656404882490000396e+00,-1.468058347700000210e+00,1.344682574270000153e+00,-1.131207823750000063e+00,0.000000000000000000e+00
1.130065561000000107e+00,2.293494822170000003e+00,-2.485920743429999913e+00,-5.931327739049999437e+00,-1.480138659479999896e+00,1.286072731020000193e+00,-1.168118953700000073e+00,0.000000000000000000e+00
1.135020527000000001e+00,2.049908330260000078e+00,-2.302349744279999832e+00,-6.297563436159999029e+00,-1.462826848029999960e+00,1.237538337709999992e+00,-1.249214053150000003e+00,0.000000000000000000e+00
1.140032971999999978e+00,1.042652757299999955e+00,-2.279328934180000044e+00,-6.786081112599999798e+00,-1.435912847520000035e+00,1.264194965359999978e+00,-1.308491110799999912e+00,0.000000000000000000e+00
1.145040599000000103e+00,3.232230693400000437e-02,-2.375658579990000074e+00,-7.464232303089999299e+00,-1.441626548769999960e+00,1.421191692350000091e+00,-1.350684046750000089e+00,0.000000000000000000e+00
1.150201073000000074e+00,-7.627573730300000188e-01,-2.239566248110000046e+00,-7.867142657130000494e+00,-1.365663409229999736e+00,1.612012863160000142e+00,-1.382731437680000175e+00,0.000000000000000000e+00
1.155055375999999967e+00,-1.163649372979999930e+00,-2.226552306629999922e+00,-8.339411209560001481e+00,-1.351026177409999862e+00,1.810975313190000158e+00,-1.440970897670000195e+00,0.000000000000000000e+00
1.160053071000000102e+00,-1.507836319899999999e+00,-2.331037201840000073e+00,-8.458750705689999094e+00,-1.353332877159999947e+00,2.033203601840000374e+00,-1.493865609169999997e+00,0.000000000000000000e+00
1.165207442999999898e+00,-1.670267208129999847e+00,-2.534027771740000379e+00,-8.486617786780000117e+00,-1.330731034279999836e+00,2.255248308180000105e+00,-1.551542043689999817e+00,0.000000000000000000e+00
1.170213383000000107e+00,-1.426477156460000062e+00,-2.696841083409999396e+00,-8.393068565469999243e+00,-1.328847408289999921e+00,2.489205360409999734e+00,-1.633017778399999953e+00,0.000000000000000000e+00
1.175069917999999936e+00,-1.185593420699999845e+00,-2.734440453970000018e+00,-8.233283077180001186e+00,-1.368559598920000120e+00,2.675272464749999912e+00,-1.702042460439999960e+00,0.000000000000000000e+00
1.180039953000000086e+00,-9.744155988289999737e-01,-2.916081215709999785e+00,-7.962965084080000366e+00,-1.393106818199999930e+00,2.835937976840000374e+00,-1.759956836699999805e+00,0.000000000000000000e+00
1.185047296000000028e+00,-8.252271270769999667e-01,-3.148079999549999730e+00,-7.654452677130000993e+00,-1.430701851839999872e+00,2.896661758420000066e+00,-1.833530783650000107e+00,0.000000000000000000e+00
1.190173778999999987e+00,-7.070400158519999367e-01,-3.088365535559999930e+00,-7.575005630930000677e+00,-1.478148221969999954e+00,2.962743282319999949e+00,-1.901888489720000130e+00,0.000000000000000000e+00
1.195053780000000065e+00,-8.122950186590000010e-01,-2.959187074719999977e+00,-7.533294733410000887e+00,-1.490117192270000057e+00,2.959770202640000125e+00,-1.966312050820000268e+00,0.000000000000000000e+00
1.200039432999999933e+00,-1.185579246050000091e+00,-2.848404102279999961e+00,-7.532651759330001084e+00,-1.500201344489999977e+00,2.934667587279999879e+00,-2.031671762470000253e+00,0.000000000000000000e+00
1.205059150999999940e+00,-1.581383494410000035e+00,-2.779429934769999999e+00,-7.717087120219999541e+00,-1.476544737820000064e+00,2.945296764370000542e+00,-2.118260383609999575e+00,0.000000000000000000e+00
1.210047542000000087e+00,-2.214896940150000049e+00,-2.833689348230000071e+00,-8.028758283460000200e+00,-1.451029658320000193e+00,2.924436807630000246e+00,-2.160702228549999937e+00,0.000000000000000000e+00
1.215194773999999978e+00,-2.821502651349999891e+00,-2.944318006890000117e+00,-8.428245677310000517e+00,-1.409892797470000181e+00,2.981521606449999862e+00,-2.213185310359999658e+00,0.000000000000000000e+00
1.220021996999999914e+00,-3.403953287720000276e+00,-3.036296910149999917e+00,-8.698048706630000737e+00,-1.378736257549999955e+00,3.037897825239999960e+00,-2.243137359619999938e+00,0.000000000000000000e+00
1.225049561000000065e+00,-3.779112588259999850e+00,-3.130991794370000303e+00,-8.950321924480000746e+00,-1.346552014350000048e+00,3.112550020220000047e+00,-2.285889863970000047e+00,0.000000000000000000e+00
1.230198201999999963e+00,-4.060895101449999878e+00,-3.257966899939999994e+00,-9.162419783800000772e+00,-1.329406738279999889e+00,3.180418014530000281e+00,-2.316646575930000118e+00,0.000000000000000000e+00
1.235194066000000035e+00,-4.186172170930000824e+00,-3.564077798700000077e+00,-9.394383204069999493e+00,-1.305441021920000111e+00,3.253481864929999912e+00,-2.337322235109999813e+00,0.000000000000000000e+00
1.240036509999999925e+00,-4.304590168299999853e+00,-4.023385454999999666e+00,-9.597839491780000287e+00,-1.317038774490000064e+00,3.337958812709999723e+00,-2.351176261900000064e+00,0.000000000000000000e+00
1.245040356000000070e+00,-4.389851161480000208e+00,-4.524141850769999529e+00,-9.761746443910000792e+00,-1.330185770990000016e+00,3.375135183329999844e+00,-2.353741168980000076e+00,0.000000000000000000e+00
1.250187653000000010e+00,-4.514727248949999883e+00,-4.966218970809999966e+00,-9.891828867850000151e+00,-1.335892081259999919e+00,3.413261890410000277e+00,-2.339765071870000046e+00,0.000000000000000000e+00
1.255183662000000089e+00,-4.625472519740000621e+00,-5.161944371999999781e+00,-1.003924879559999894e+01,-1.366945981979999836e+00,3.400197744370000219e+00,-2.358223199840000284e+00,0.000000000000000000e+00
1.260039531999999962e+00,-4.810959143249999848e+00,-5.296614123730000401e+00,-1.014174237080000118e+01,-1.390036940570000157e+00,3.428018808359999614e+00,-2.370553016659999734e+00,0.000000000000000000e+00
1.265161860000000082e+00,-4.973593883490000422e+00,-5.363858106449999497e+00,-1.028318614670000031e+01,-1.394548654560000100e+00,3.435133457180000072e+00,-2.383541345599999861e+00,0.000000000000000000e+00
1.270030454000000031e+00,-5.046555074809999653e+00,-5.423830636849999109e+00,-1.053188150609999951e+01,-1.404750823970000173e+00,3.424713611600000096e+00,-2.424915552140000319e+00,0.000000000000000000e+00
1.275043382000000003e+00,-5.224463664279999975e+00,-5.501650374110000463e+00,-1.066224508510000035e+01,-1.354917526249999948e+00,3.434549093249999796e+00,-2.462217807770000100e+00,0.000000000000000000e+00
1.280027574000000001e+00,-5.420268560449999384e+00,-5.641442875680001023e+00,-1.081539800349999858e+01,-1.292662501339999936e+00,3.440463542940000341e+00,-2.497170209880000158e+00,0.000000000000000000e+00
1.285193056000000000e+00,-5.803261915619999378e+00,-5.783769279650000428e+00,-1.104994910220000115e+01,-1.223198890689999985e+00,3.448071718219999582e+00,-2.512851476669999862e+00,0.000000000000000000e+00
1.290065771999999944e+00,-5.954433304820000217e+00,-5.837707206059999265e+00,-1.118421962539999903e+01,-1.162645339970000080e+00,3.453566074369999850e+00,-2.555944204329999803e+00,0.000000000000000000e+00
1.295043919000000043e+00,-6.107734691790000170e+00,-5.883875082999999506e+00,-1.135397647259999943e+01,-1.081678628919999996e+00,3.489006042480000236e+00,-2.588972091670000086e+00,0.000000000000000000e+00
1.300016837999999897e+00,-6.166184542669999935e+00,-6.011385610619998765e+00,-1.141956684290000013e+01,-9.732106924059999997e-01,3.510491132739999909e+00,-2.635342121120000325e+00,0.000000000000000000e+00
1.305039009999999999e+00,-6.237759248059999706e+00,-6.215174491290000880e+00,-1.151145017680000038e+01,-8.899043798450000375e-01,3.541825532909999907e+00,-2.698429346079999736e+00,0.000000000000000000e+00
1.310047844999999933e+00,-6.372995401499999879e+00,-6.491314906930000461e+00,-1.157565406119999807e+01,-8.058594465260000561e-01,3.528890609740000350e+00,-2.742665529249999956e+00,0.000000000000000000e+00
1.315168512000000067e+00,-6.432428418200000664e+00,-6.814404120759999905e+00,-1.156009759560000028e+01,-7.433965802190000138e-01,3.519817590709999777e+00,-2.797767639159999931e+00,0.000000000000000000e+00
1.320045252999999974e+00,-6.554634409680000218e+00,-7.119094923589999624e+00,-1.161186986849999947e+01,-6.899347901340000533e-01,3.500957965849999631e+00,-2.826163053510000189e+00,0.000000000000000000e+00
1.325006627000000048e+00,-6.562882013539999448e+00,-7.272602646779999347e+00,-1.165705224150000063e+01,-6.627870202059999993e-01,3.437694072719999383e+00,-2.895736932749999770e+00,0.000000000000000000e+00
1.330080251999999907e+00,-6.725863667519999645e+00,-7.266270521150000050e+00,-1.168090891790000008e+01,-6.212062835689999840e-01,3.366280794140000143e+00,-2.965823173520000022e+00,0.000000000000000000e+00
1.335189409999999910e+00,-6.920411841630000005e+00,-7.410481423680000290e+00,-1.178686987700000088e+01,-5.909594297410000197e-01,3.316761493679999617e+00,-3.025718688959999625e+00,0.000000000000000000e+00
1.340065848000000059e+00,-7.239445058069999384e+00,-7.592427305850000252e+00,-1.191571837519999910e+01,-5.548477768899999774e-01,3.232300758359999637e+00,-3.087559223179999979e+00,0.000000000000000000e+00
1.345047190999999920e+00,-7.634332264650000255e+00,-7.590817532570000026e+00,-1.204848083200000097e+01,-4.894185960290000081e-01,3.180119752880000039e+00,-3.169442653659999998e+00,0.000000000000000000e+00
1.349984802999999900e+00,-8.247786818830000755e+00,-7.587716059419999048e+00,-1.206626549509999968e+01,-4.152387380600000011e-01,3.134505271909999724e+00,-3.230796813959999625e+00,0.000000000000000000e+00
1.354959314000000026e+00,-8.578102476779999819e+00,-7.588861137799999490e+00,-1.208806114729999948e+01,-3.547395765779999821e-01,3.069526195529999946e+00,-3.324206352230000050e+00,0.000000000000000000e+00
1.359992668999999932e+00,-9.018893356399999561e+00,-7.723099512380000142e+00,-1.197973053640000174e+01,-2.868109941479999869e-01,3.016498565670000520e+00,-3.419275999069999905e+00,0.000000000000000000e+00
1.365028665999999946e+00,-9.244702345689999490e+00,-7.914410604269999538e+00,-1.179841652240000016e+01,-2.358022332189999848e-01,3.008994579319999918e+00,-3.536815643309999757e+00,0.000000000000000000e+00
1.370151840999999981e+00,-9.382253205819999664e+00,-8.065965439819999361e+00,-1.161478546359999875e+01,-2.154769599439999850e-01,2.967556238170000249e+00,-3.623859643939999930e+00,0.000000000000000000e+00
1.375190163999999937e+00,-9.279653247569999763e+00,-8.081775003369999766e+00,-1.135516539019999982e+01,-2.023246884349999830e-01,2.934728145599999838e+00,-3.729341983799999927e+00,0.000000000000000000e+00
1.380171940999999958e+00,-9.263349178500000392e+00,-8.089618702610000156e+00,-1.113177865960000013e+01,-2.034675925970000077e-01,2.872891426090000255e+00,-3.804592609409999771e+00,0.000000000000000000e+00
1.385088147999999908e+00,-9.227512725960000495e+00,-7.955211401210000588e+00,-1.096316279910000091e+01,-1.989141255620000270e-01,2.779802322390000135e+00,-3.859915494919999635e+00,0.000000000000000000e+00
1.390087387999999979e+00,-9.145840404919999500e+00,-7.599198991950000703e+00,-1.074421492779999987e+01,-1.788382381199999926e-01,2.687085151669999838e+00,-3.908776283259999929e+00,0.000000000000000000e+00
1.395114847999999963e+00,-9.199431125339998516e+00,-7.193537877889998988e+00,-1.057698204609999948e+01,-1.312996000049999890e-01,2.580909252170000112e+00,-3.904004096980000060e+00,0.000000000000000000e+00
1.400028306999999916e+00,-9.112078420580001392e+00,-6.799709824979999873e+00,-1.042591236370000018e+01,-8.404370397330000741e-02,2.479478120800000074e+00,-3.944311380390000288e+00,0.000000000000000000e+00
1.405068159000000039e+00,-9.191008749430000790e+00,-6.455151706659999711e+00,-1.033628528419999881e+01,-9.609219618139999697e-03,2.405815839769999798e+00,-3.949407577509999712e+00,0.000000000000000000e+00
1.410049681000000055e+00,-9.264306625349998825e+00,-6.204002524409999886e+00,-1.034555580139999975e+01,7.497850805519999662e-02,2.340974092479999769e+00,-3.953881263730000040e+00,0.000000000000000000e+00
1.415211172000000017e+00,-9.292169614789999699e+00,-5.863764022859999869e+00,-1.035522496249999946e+01,1.476585716009999882e-01,2.285201787949999730e+00,-3.964014530180000051e+00,0.000000000000000000e+00
1.420063266999999962e+00,-9.382910792939998856e+00,-5.773149685959999999e+00,-1.038762150370000015e+01,2.279233783479999997e-01,2.233644247059999532e+00,-3.997531890869999494e+00,0.000000000000000000e+00
1.425033497999999899e+00,-9.613028877610000578e+00,-5.869006015169999202e+00,-1.040108187380000082e+01,2.983022630209999915e-01,2.201081991200000143e+00,-3.999828577040000166e+00,0.000000000000000000e+00
1.430117035999999953e+00,-9.827289467920000021e+00,-6.149395904950000435e+00,-1.048033135160000029e+01,3.259250521659999844e-01,2.162252902979999725e+00,-4.035400867459999930e+00,0.000000000000000000e+00
1.434986440000000085e+00,-1.007650388269999908e+01,-6.390799353740000299e+00,-1.059640220130000010e+01,3.489466905590000168e-01,2.127399444579999965e+00,-4.093126296999999525e+00,0.000000000000000000e+00
1.439981157999999928e+00,-1.062915062470000116e+01,-6.466241255949999989e+00,-1.072219598820000108e+01,3.235888183119999817e-01,2.098233699799999741e+00,-4.121006488799999978e+00,0.000000000000000000e+00
1.445041768000000060e+00,-1.097548452050000023e+01,-6.280171571849999523e+00,-1.044942767929999938e+01,2.880058586600000026e-01,2.048587560650000139e+00,-4.215017795559999669e+00,0.000000000000000000e+00
1.450007204999999910e+00,-1.134931900219999967e+01,-3.926692090450000006e+00,-9.559331189689999064e+00,2.392685413360000068e-01,2.040668487550000076e+00,-4.309197902680000247e+00,0.000000000000000000e+00
1.454990575999999924e+00,-1.134881397530000058e+01,-7.330285166550000175e-01,-8.457648881929999973e+00,2.727280557160000063e-01,2.028465270999999959e+00,-4.394579410550000453e+00,0.000000000000000000e+00
1.459991325000000062e+00,-1.089780974469999997e+01,-1.381674284270000053e+00,-8.578034672239999381e+00,4.175662398340000414e-01,1.987969040870000148e+00,-4.460002422330000549e+00,0.000000000000000000e+00
1.465003730000000060e+00,-1.130673307540000039e+01,-2.762365694979999731e+00,-8.880167607280000652e+00,6.313416361810000321e-01,1.935036063190000100e+00,-4.390067100519999599e+00,0.000000000000000000e+00
1.470205683000000096e+00,-1.184166295890000065e+01,-2.361642329599999979e+00,-8.397233868449999861e+00,8.104121685030000188e-01,1.840520381929999782e+00,-4.286265850069999495e+00,0.000000000000000000e+00
1.475182216000000102e+00,-1.158341884999999927e+01,-2.138527840080000075e+00,-8.468446170269999129e+00,8.311266303059999805e-01,1.664997696879999989e+00,-4.169654846190000264e+00,0.000000000000000000e+00
1.480218685999999950e+00,-1.162343404950000014e+01,-2.571324944470000151e+00,-8.243371340469998643e+00,7.508274912829999703e-01,1.515911102290000034e+00,-4.122577190400000369e+00,0.000000000000000000e+00
1.485183378000000110e+00,-1.212408990750000015e+01,-2.674443081379999754e+00,-8.005473853979999888e+00,6.226145029070000447e-01,1.387352824209999946e+00,-4.091257095340000483e+00,0.000000000000000000e+00
1.490054444000000089e+00,-1.222204174770000051e+01,-2.574854872169999975e+00,-7.666098106739998919e+00,4.759504497050000005e-01,1.325582146639999959e+00,-4.056645393369999297e+00,0.000000000000000000e+00
1.495039339000000078e+00,-1.184931318140000123e+01,-2.318792198909999769e+00,-7.364290750399999474e+00,3.548234999180000515e-01,1.240673303599999944e+00,-4.058394432069999169e+00,0.000000000000000000e+00
1.500024178000000097e+00,-1.174436812140000086e+01,-1.752552254229999829e+00,-7.048649514489999213e+00,1.998936235900000136e-01,1.101554632190000049e+00,-4.074042797089999723e+00,0.000000000000000000e+00
1.505187593999999907e+00,-1.183993861939999981e+01,-1.409336782700000068e+00,-6.771574448339999996e+00,7.020432502029999577e-02,9.290156960490000282e-01,-4.131272315980000442e+00,0.000000000000000000e+00
1.510224215999999897e+00,-1.254092883369999889e+01,-1.388589032100000065e+00,-6.425035969859999696e+00,-2.554445527490000270e-02,7.768661379809999046e-01,-4.156868934630000290e+00,0.000000000000000000e+00
1.515201935999999971e+00,-1.325292910229999954e+01,-1.277793930819999924e+00,-5.973544832530000015e+00,-7.923024147749999080e-02,6.422095894810000427e-01,-4.136470317840000632e+00,0.000000000000000000e+00
1.520187347000000022e+00,-1.347243928369999821e+01,-1.106437539460000119e+00,-5.774376012879999465e+00,-1.002690717579999974e-01,5.230160951610000053e-01,-4.109804630280000204e+00,0.000000000000000000e+00
1.525204008000000000e+00,-1.358994571920000105e+01,-9.822011381389998963e-01,-5.559938896950000320e+00,-1.177013665439999995e-01,4.683896899220000298e-01,-4.016813278199999893e+00,0.000000000000000000e+00
1.530216830000000083e+00,-1.335948510470000095e+01,-8.354496112100000538e-01,-5.383669891380000294e+00,-1.382274776700000152e-01,3.985937237740000416e-01,-3.893158674240000394e+00,0.000000000000000000e+00
1.535186758000000040e+00,-1.332523212190000095e+01,-6.966116338840000477e-01,-5.098546543330000347e+00,-1.320394575599999898e-01,3.211648166180000041e-01,-3.733760118480000667e+00,0.000000000000000000e+00
1.540207325999999988e+00,-1.281061437410000003e+01,-7.268225016220000168e-01,-5.090952434940000160e+00,-1.264231801029999935e-01,2.529441714289999976e-01,-3.595725297930000508e+00,0.000000000000000000e+00
1.545197512999999967e+00,-1.240228491759999940e+01,-2.949611802450000098e-01,-5.034249135459999636e+00,-1.260511279109999827e-01,1.254644542930000162e-01,-3.445046186449999936e+00,0.000000000000000000e+00
1.550174909999999961e+00,-1.222058745720000061e+01,-7.649079021269999945e-02,-5.006361596100000533e+00,-1.340898722409999966e-01,-7.562926039100000344e-03,-3.302138566970000078e+00,0.000000000000000000e+00
1.555009265999999890e+00,-1.190069966979999982e+01,-1.470727034419999912e-01,-5.208713137440000196e+00,-1.316312253480000083e-01,-1.258814930920000019e-01,-3.179386615749999923e+00,0.000000000000000000e+00
1.559996718999999921e+00,-1.156572887949999995e+01,3.420828964400000199e-02,-5.282298598130000578e+00,-1.104146018620000003e-01,-2.388885468239999865e-01,-3.052219152450000195e+00,0.000000000000000000e+00
1.564978710000000106e+00,-1.108508471289999875e+01,-5.423416941480000558e-02,-5.437883127600000144e+00,-7.468751817939998927e-02,-2.843990027899999662e-01,-2.965547561650000219e+00,0.000000000000000000e+00
1.569964992999999920e+00,-1.057894136340000024e+01,-2.529407418460000168e-01,-5.648099995479999968e+00,-6.392490863800000256e-02,-3.532625138759999950e-01,-2.880636215209999573e+00,0.000000000000000000e+00
1.574998852000000005e+00,-9.813850140639999609e+00,-2.536900258429999888e-01,-5.847001688630000693e+00,-6.651906669139999451e-02,-3.881507813930000217e-01,-2.818050622940000416e+00,0.000000000000000000e+00
1.579997829000000076e+00,-8.228019457560000305e+00,-9.264704830889999854e-02,-5.822939845040000506e+00,-5.691717937590000387e-02,-4.385685920719999964e-01,-2.755875349040000533e+00,0.000000000000000000e+00
1.585202256000000087e+00,-1.356660926720000049e+01,2.517140642080000212e+00,-1.245551732609999895e+01,5.453828722239999899e-02,-9.537737369540000287e-01,-2.581275701520000077e+00,0.000000000000000000e+00
1.590254237999999987e+00,-9.508550850519998932e+00,-1.848638885069999738e-01,-2.310340450770000054e+00,-4.193404316899999873e-02,-1.386116504670000138e+00,-2.688383340839999747e+00,0.000000000000000000e+00
1.595078086000000006e+00,-5.244470679520000012e+00,-1.619198553539999974e+00,-1.817528145879999890e+00,-9.213777258989998969e-03,-1.405364990230000055e+00,-2.523995399479999957e+00,0.000000000000000000e+00
1.600049915999999905e+00,-5.449694561419999417e+00,-7.918194360590000702e-01,-2.554960377390000037e+00,4.977232962849999914e-02,-1.732682108879999738e+00,-2.416812658309999584e+00,0.000000000000000000e+00
1.605188792000000086e+00,-9.642287120800000721e+00,-1.866624769750000024e+00,-3.637983285130000244e+00,-1.939831078049999713e-01,-1.696428537370000100e+00,-2.251604080199999913e+00,0.000000000000000000e+00
1.610163231000000028e+00,-5.201512412280000497e+00,-5.029355518200000041e+00,-8.178627942410001239e+00,-4.583190679550000479e-01,-1.631301760669999990e+00,-1.996641755099999971e+00,0.000000000000000000e+00
1.615059389000000012e+00,5.543242832890000749e-01,-2.908031180240000069e+00,-1.050696801409999992e+01,-6.722958683969999516e-01,-1.564126729970000129e+00,-1.868371725079999823e+00,0.000000000000000000e+00
1.620184532999999982e+00,2.806713078490000512e+00,-1.160406226340000124e+00,-1.381684776440000029e+01,-9.860521554950000267e-01,-1.445649623869999845e+00,-1.767814517020000142e+00,0.000000000000000000e+00
1.625066040999999961e+00,3.196067785390000360e+00,1.011156105800000010e-01,-1.507096753579999948e+01,-1.404650211329999898e+00,-1.365492939949999984e+00,-1.316785216329999786e+00,0.000000000000000000e+00
1.630202625999999988e+00,3.846163386489999780e+00,3.759161102599999804e+00,-1.525399536800000000e+01,-1.771943092350000137e+00,-1.612805962560000195e+00,-8.123612999920000188e-01,0.000000000000000000e+00
1.635147954000000015e+00,3.189264242850000208e+00,9.805757435069999417e+00,-1.268942778880000155e+01,-1.965538740159999742e+00,-2.035237789149999976e+00,-4.453663527970000424e-01,0.000000000000000000e+00
1.640238405000000066e+00,-8.082078954760000267e-01,1.498683379309999886e+01,-1.114759465289999874e+01,-1.820588588709999955e+00,-2.664079904559999878e+00,-1.618270725010000077e-01,0.000000000000000000e+00
1.645187203000000098e+00,-5.831355791209999140e+00,1.436612882930000090e+01,-1.101481699849999885e+01,-1.359826326369999894e+00,-3.120379686359999738e+00,-4.812361672519999828e-02,0.000000000000000000e+00
1.650247173999999983e+00,-1.057438209270000051e+01,1.174642797650000148e+01,-1.268014908829999854e+01,-6.963918209080000032e-01,-3.206371784209999909e+00,-8.310455828909999246e-03,0.000000000000000000e+00
1.655165919999999957e+00,-1.278987203029999975e+01,1.002482045720000059e+01,-1.294895784589999899e+01,4.846094548700000115e-02,-2.961979627609999888e+00,3.150735050440000434e-02,0.000000000000000000e+00
1.660198159999999978e+00,-1.100490350719999988e+01,7.743927780880000888e+00,-1.326322136369999960e+01,5.510919690129999493e-01,-2.328365564349999861e+00,3.894001245499999903e-02,0.000000000000000000e+00
1.665215290999999986e+00,-8.576541803330000491e+00,4.480171191619999327e+00,-1.300404435779999979e+01,7.807163596150000773e-01,-1.519441604609999885e+00,1.155802905560000121e-01,0.000000000000000000e+00
1.670196811999999920e+00,-6.382104590630000907e+00,1.225418650609999993e+00,-1.304649350650000095e+01,7.409848570819999036e-01,-7.848804593089999670e-01,2.608641684059999633e-01,0.000000000000000000e+00
1.675154586999999973e+00,-3.487325690669999645e+00,-8.478514121430000827e-01,-1.237720775950000096e+01,5.770263075829999977e-01,-4.328296184539999758e-01,4.412078559399999489e-01,0.000000000000000000e+00
1.680186747999999897e+00,-2.642155553499999865e+00,-2.201865316879999757e+00,-1.187847731660000150e+01,3.633066117759999880e-01,-3.810682296750000364e-01,5.274662971500000408e-01,0.000000000000000000e+00
1.685196187000000068e+00,-2.570122582949999845e+00,-3.429234443969999990e+00,-1.160809736420000071e+01,1.642663776870000036e-01,-6.621845960619999749e-01,5.531610250469999324e-01,0.000000000000000000e+00
1.690058360999999953e+00,-2.804497156010000047e+00,-3.773849553169999815e+00,-1.004585272389999950e+01,9.858475625509999229e-02,-9.990362524989999660e-01,3.788619935509999759e-01,0.000000000000000000e+00
1.695051496999999907e+00,-3.172183928719999990e+00,-3.216388396620000201e+00,-9.779000361050000478e+00,4.250597581269999897e-02,-1.194799900050000030e+00,1.009981408720000140e-01,0.000000000000000000e+00
1.700036807999999899e+00,-4.153931697059999983e+00,-3.104749976389999944e+00,-1.099652613950000024e+01,-3.374978527429999681e-02,-1.273712158199999944e+00,-1.356144398449999899e-01,0.000000000000000000e+00
1.705060384000000040e+00,-5.592170018470000059e+00,-3.319694457319999792e+00,-1.018662546870000085e+01,-1.281215250489999846e-01,-1.138561964039999985e+00,-2.145817577840000157e-01,0.000000000000000000e+00
1.710056009000000099e+00,-5.247113887510000296e+00,-2.104433408909999859e+00,-1.090722054709999966e+01,-1.782262027259999826e-01,-8.784170746799999652e-01,-1.246339529749999897e-01,0.000000000000000000e+00
1.715199829999999981e+00,-4.975346864639999644e+00,-8.903281064100000419e-01,-1.050079546299999933e+01,-1.897757351400000125e-01,-5.660285353660000629e-01,3.241065144540000026e-02,0.000000000000000000e+00
1.720186876999999948e+00,-4.075961737680000141e+00,-6.434378967750000733e-01,-9.789431738699999386e+00,-1.811425834890000031e-01,-3.146681189539999868e-01,1.719604581590000181e-01,0.000000000000000000e+00
1.725153944999999966e+00,-3.322951121030000010e+00,-1.094630781820000065e+00,-9.992608624939999018e+00,-1.772300899029999877e-01,-1.520549207929999813e-01,2.404233664270000181e-01,0.000000000000000000e+00
1.730057082000000079e+00,-2.847568820500000264e+00,-1.101740102359999973e+00,-9.714739193539999818e+00,-2.192121446130000095e-01,-1.581952273849999979e-01,2.358612418169999947e-01,0.000000000000000000e+00
1.735180777000000063e+00,-2.409467326090000139e+00,-1.193056376990000000e+00,-9.583909750630001056e+00,-2.773892581459999618e-01,-2.777118980880000088e-01,1.308636367319999938e-01,0.000000000000000000e+00
1.740052278999999924e+00,-2.546271459499999779e+00,-1.170508883489999929e+00,-9.614545127390000445e+00,-2.574621737000000188e-01,-3.687075674530000402e-01,6.557181477550000359e-02,0.000000000000000000e+00
1.745047538999999981e+00,-2.552492233709999780e+00,-5.128890974319999518e-01,-9.741683314570000363e+00,-2.644335031510000045e-01,-4.622282683850000296e-01,3.725220263000000170e-02,0.000000000000000000e+00
1.750058729000000035e+00,-2.911233775679999969e+00,1.077930516499999852e-01,-9.719461545890000664e+00,-2.593283355240000310e-01,-5.031829476360000220e-01,8.011455088850000239e-02,0.000000000000000000e+00
1.755049419000000110e+00,-3.019506811129999857e+00,2.939804073130000139e-01,-9.810753343669999182e+00,-2.403784990309999758e-01,-3.934512436389999701e-01,1.442175507550000069e-01,0.000000000000000000e+00
1.760071042000000086e+00,-2.899008500350000350e+00,5.453829980730000582e-01,-9.858352130189999230e+00,-2.505112886430000407e-01,-2.889716923239999957e-01,1.960941255090000168e-01,0.000000000000000000e+00
1.765038389000000096e+00,-2.781098744769999964e+00,8.424464843600000252e-01,-9.781136204039999171e+00,-2.776682078840000401e-01,-1.978227943180000115e-01,1.558661907910000033e-01,0.000000000000000000e+00
1.770019460999999961e+00,-2.732200858349999706e+00,8.885713258709999618e-01,-9.780112706209999729e+00,-2.666940689089999927e-01,-1.598563939329999961e-01,1.293545812369999992e-01,0.000000000000000000e+00
1.775186476000000013e+00,-2.606770644130000036e+00,6.978077848659999249e-01,-9.662891517410001185e+00,-2.512027323250000110e-01,-1.700016260150000180e-01,7.832254469389998697e-02,0.000000000000000000e+00
1.780210097000000102e+00,-2.515318102829999791e+00,3.774745917480000212e-01,-9.490698967489999305e+00,-1.940462291239999915e-01,-1.846467554569999892e-01,7.647731900219999213e-02,1.000000000000000000e+00
1.785200780999999903e+00,-2.422581366940000258e+00,1.567590166049999956e-01,-9.545555177789999846e+00,-1.516099423170000071e-01,-2.252514809369999815e-01,5.479713529350000584e-02,1.000000000000000000e+00
1.790204029999999946e+00,-2.733670346380000282e+00,-1.074924886680000136e-01,-9.658916184029999741e+00,-9.123709052799999775e-02,-2.406908422709999884e-01,7.957836240530000160e-02,1.000000000000000000e+00
1.795027181000000027e+00,-2.811981958809999682e+00,-2.912591291230000046e-01,-9.786989021720000181e+00,-9.460056573149999704e-02,-2.325740456579999949e-01,7.058336585760000004e-02,1.000000000000000000e+00
1.800034546000000013e+00,-2.936275570209999852e+00,-3.067203358939999958e-01,-9.705384505219999625e+00,-9.510940313339999452e-02,-2.189512997870000088e-01,5.596787482499999966e-02,1.000000000000000000e+00
1.804942432000000041e+00,-3.059579586059999912e+00,-2.438931512780000144e-02,-9.967266093890000178e+00,-1.243219822650000056e-01,-1.474212408070000035e-01,5.844966322180000090e-02,1.000000000000000000e+00
1.809938239999999920e+00,-2.778633815959999698e+00,-3.024271048119999902e-02,-9.722329794800000258e+00,-1.405190378429999887e-01,-1.487079113719999846e-01,3.694896399969999773e-02,1.000000000000000000e+00
1.815215918000000039e+00,-2.811869438340000027e+00,1.860564592920000149e-01,-9.736302790580001698e+00,-1.516935676339999928e-01,-1.104701310400000025e-01,4.079698026180000187e-02,1.000000000000000000e+00
1.820177699999999898e+00,-3.033313218159999991e+00,1.186432118280000003e-01,-9.623569560840000037e+00,-1.342454850669999866e-01,-5.052506178619999705e-02,7.228098809719998852e-02,1.000000000000000000e+00
1.825102518000000007e+00,-2.675430923379999992e+00,1.275404387069999923e-01,-9.581534253670000112e+00,-1.360351592300000079e-01,-5.647042766210000342e-02,6.112831458450000005e-02,1.000000000000000000e+00
1.830203881000000088e+00,-2.743502004559999818e+00,-1.283122541960000085e-01,-9.478074463720000509e+00,-1.025166586039999994e-01,-4.503801465030000256e-02,6.013026461009999407e-02,1.000000000000000000e+00
1.835181315000000035e+00,-2.661229087279999739e+00,-2.952215299479999944e-01,-9.487693355930000294e+00,-9.208293259139999076e-02,-4.398272559050000335e-02,6.032781675459999299e-02,1.000000000000000000e+00
1.840073963000000035e+00,-2.593332778140000183e+00,-1.587993267930000174e-01,-9.503643789260001640e+00,-8.365053683519999006e-02,-4.599146544929999525e-02,5.811874940990000016e-02,1.000000000000000000e+00
1.845199829000000014e+00,-2.654718097950000022e+00,-3.636539461260000078e-02,-9.536272970180000641e+00,-8.587725460530000465e-02,-4.223412275309999797e-02,5.827436968679999829e-02,1.000000000000000000e+00
1.850205080999999918e+00,-2.646602011520000186e+00,1.346474850999999917e-01,-9.560635258019999583e+00,-9.591946750880001038e-02,-5.654794350269999603e-02,6.239306554199999799e-02,1.000000000000000000e+00
1.855164637999999977e+00,-2.732787718320000003e+00,2.808021055820000278e-01,-9.612887423310001012e+00,-1.056348234419999949e-01,-5.835648998619999417e-02,6.705766171219999794e-02,1.000000000000000000e+00
1.860201521000000024e+00,-2.654433435790000129e+00,2.960015561439999776e-01,-9.614995209239998175e+00,-9.371632337570000304e-02,-5.081337690349999742e-02,6.665635854010000527e-02,1.000000000000000000e+00
1.865214614000000104e+00,-2.695028481030000034e+00,3.286014744429999745e-01,-9.567605097039999507e+00,-9.321404993529999738e-02,-3.257296234370000293e-02,6.775185465810000529e-02,1.000000000000000000e+00
1.870192848999999935e+00,-2.730577348799999804e+00,3.389619788070000195e-01,-9.487695694019999237e+00,-8.178346604110001139e-02,-1.760071516040000172e-02,6.519591063259999597e-02,1.000000000000000000e+00
1.875200975000000048e+00,-2.726780586859999911e+00,2.784316135909999934e-01,-9.465462234900000382e+00,-8.229728043080000721e-02,-4.077224433419999322e-02,6.940678507089999283e-02,1.000000000000000000e+00
1.880061702999999973e+00,-2.565875446899999801e+00,3.671727222360000042e-01,-9.454018465349999900e+00,-8.102846890689999193e-02,-3.887568786740000504e-02,7.224114984269999762e-02,1.000000000000000000e+00
1.885008039999999996e+00,-2.533257664149999755e+00,4.790312514930000209e-01,-9.445473924360001661e+00,-6.653193384409999966e-02,-2.768759988250000040e-02,6.180096790189999745e-02,1.000000000000000000e+00
1.890184904000000055e+00,-2.493772041450000199e+00,3.442113141699999490e-01,-9.467762328539999217e+00,-8.444226533170000326e-02,-6.269125640389999754e-02,6.245198473330000610e-02,1.000000000000000000e+00
1.895063678000000085e+00,-2.446208910770000244e+00,1.362162231210000130e-01,-9.438408808280000173e+00,-6.577239930630000841e-02,-5.471862480039999671e-02,5.241500958800000137e-02,1.000000000000000000e+00
1.900060749000000104e+00,-2.476062489499999852e+00,9.372701643219999434e-02,-9.404402493780001038e+00,-8.499503880740000294e-02,-5.744337663049999682e-02,5.242470651869999415e-02,1.000000000000000000e+00
1.905189580000000049e+00,-2.620845346709999912e+00,2.112757110220000178e-01,-9.337554816910001776e+00,-8.442944288249999707e-02,-7.240117341280000174e-02,6.877640634779999540e-02,1.000000000000000000e+00
1.910202978000000051e+00,-2.652126620159999781e+00,2.708944230190000191e-01,-9.356899568850000293e+00,-8.968345075850001069e-02,-8.242889493700000791e-02,5.640273168680000337e-02,1.000000000000000000e+00
1.915198621999999906e+00,-2.688412570020000558e+00,2.399451945369999728e-01,-9.370243619069999141e+00,-9.301824122670000750e-02,-1.008695811030000111e-01,4.946768656370000017e-02,1.000000000000000000e+00
1.920176375999999907e+00,-2.647720786409999860e+00,2.726126616469999875e-01,-9.415429499229999166e+00,-7.642313092950001052e-02,-8.701229840520000036e-02,5.674117803569999480e-02,1.000000000000000000e+00
1.925193882000000078e+00,-2.621836403570000140e+00,3.177395233620000092e-01,-9.418511098639999801e+00,-5.760680884119999401e-02,-6.429606676099999807e-02,5.725422874089999836e-02,1.000000000000000000e+00
1.930181852000000031e+00,-2.686848681709999909e+00,2.288539647449999992e-01,-9.406539505810000534e+00,-5.221523717050000069e-02,-9.464552253480000565e-02,5.972839519380000739e-02,1.000000000000000000e+00
1.934948662000000041e+00,-2.684262172349999975e+00,2.107427549230000141e-01,-9.427413367019999768e+00,-6.450074166059999170e-02,-7.862414419649998987e-02,7.351302355529999721e-02,1.000000000000000000e+00
1.939998520000000060e+00,-2.656318518890000480e+00,3.168609869619999908e-01,-9.399423536329999607e+00,-7.902935892340000323e-02,-8.690853416919998298e-02,7.092625647780000098e-02,1.000000000000000000e+00
1.945111220999999890e+00,-2.647104992600000095e+00,3.514836432599999783e-01,-9.385304410079999826e+00,-7.238683104519999523e-02,-8.494679629799999077e-02,6.271588802340000157e-02,1.000000000000000000e+00
1.950215872000000017e+00,-2.705068521270000304e+00,3.999709761190000101e-01,-9.426764547719999499e+00,-6.274393945929999938e-02,-9.070091694589998976e-02,7.281817495820000485e-02,1.000000000000000000e+00
1.955055014999999896e+00,-2.704943141320000244e+00,4.184868394860000174e-01,-9.361582758229999968e+00,-8.758689463140000020e-02,-6.367788463830001411e-02,6.721490621569999047e-02,1.000000000000000000e+00
1.960191771999999943e+00,-2.659921511819999917e+00,2.960623098880000303e-01,-9.333339829570000745e+00,-7.675123214719999087e-02,-8.355082571510000222e-02,6.088495627050000136e-02,1.000000000000000000e+00
1.965206980000000048e+00,-2.548147190240000359e+00,1.536986243869999935e-01,-9.372050960760001104e+00,-8.464433252810001085e-02,-7.462722063060001076e-02,6.649132072930000192e-02,1.000000000000000000e+00
1.970192731999999891e+00,-2.460892392899999948e+00,9.872929996519999585e-02,-9.355790146310001276e+00,-1.042966395619999986e-01,-6.961765140299999710e-02,8.392935991289998676e-02,1.000000000000000000e+00
1.975047996000000028e+00,-2.402396657050000162e+00,1.354290456649999974e-01,-9.369612919950000673e+00,-1.123380511999999970e-01,-8.450093120339999264e-02,7.916377484799999587e-02,1.000000000000000000e+00
1.980208114000000075e+00,-2.618022690500000138e+00,2.285328064990000130e-01,-9.400066510409999410e+00,-1.411506086590000042e-01,-9.579507261510002147e-02,1.003130078319999924e-01,1.000000000000000000e+00
1.985208287999999932e+00,-2.625743640140000501e+00,2.805818869599999710e-01,-9.325569195569999081e+00,-1.569604426620000159e-01,-1.086433604360000083e-01,8.873873203989998681e-02,1.000000000000000000e+00
1.990232492000000075e+00,-2.715603651549999498e+00,3.330406259340000230e-01,-9.319413595549999485e+00,-1.775053441519999775e-01,-1.304871439929999877e-01,1.131308451289999989e-01,1.000000000000000000e+00
1.995089118000000106e+00,-2.516062199199999849e+00,3.192760487469999964e-01,-9.350132558939998617e+00,-1.746947765349999848e-01,-1.163474693889999939e-01,9.475195407870000419e-02,1.000000000000000000e+00
2.000027891999999863e+00,-2.469607322009999884e+00,2.558257774969999732e-01,-9.357281261649999848e+00,-1.768632978200000150e-01,-9.759718179699999885e-02,1.021517887710000072e-01,1.000000000000000000e+00
2.005160232999999792e+00,-2.411771072990000153e+00,2.889587066939999782e-01,-9.361038568350000588e+00,-1.739618927240000057e-01,-1.125114709139999891e-01,9.987643361089998395e-02,1.000000000000000000e+00
2.010026067000000083e+00,-2.412456571029999886e+00,2.760231824759999952e-01,-9.341992507100000509e+00,-1.733783632519999840e-01,-1.334016174079999950e-01,1.003544703130000021e-01,1.000000000000000000e+00
2.015188533999999976e+00,-2.290630664910000114e+00,3.595323635509999893e-01,-9.403211238169999930e+00,-1.840334832669999754e-01,-1.258780360219999839e-01,9.726081788540000272e-02,1.000000000000000000e+00
2.020167349999999917e+00,-2.459391048430000115e+00,6.905470731479999014e-01,-9.565622983310001715e+00,-1.877258270980000088e-01,-1.480956226590000036e-01,9.979500621560000173e-02,1.000000000000000000e+00
2.025191615999999861e+00,-2.557465053690000101e+00,6.785024150889999994e-01,-9.503026534139999981e+00,-1.734665334219999966e-01,-1.633932441469999886e-01,8.156644552950000071e-02,1.000000000000000000e+00
2.030209984999999939e+00,-2.910950574819999748e+00,4.865803516989999911e-01,-9.543802196649998848e+00,-1.592689305540000155e-01,-1.783956140279999991e-01,8.395477384330000958e-02,1.000000000000000000e+00
2.035054133000000043e+00,-2.887593956889999980e+00,5.452894015050000487e-01,-9.498608133180001190e+00,-1.345987319949999983e-01,-1.662800014019999995e-01,6.942956149579999903e-02,1.000000000000000000e+00
2.040023058000000056e+00,-2.948730854899999976e+00,8.567873635969999180e-01,-9.539636893660000894e+00,-1.204879805450000119e-01,-1.370975226160000005e-01,5.494660139080000116e-02,1.000000000000000000e+00
2.045199644000000205e+00,-2.970384176040000490e+00,8.417551410950000479e-01,-9.484996956459999851e+00,-1.041918396949999964e-01,-1.509903818370000039e-01,5.757512897250000733e-02,1.000000000000000000e+00
2.050035392999999928e+00,-2.983314092500000125e+00,7.345704123350000891e-01,-9.513159805619999076e+00,-1.019216328859999937e-01,-1.051592007279999880e-01,5.114713683719999959e-02,1.000000000000000000e+00
2.055060155000000055e+00,-2.987336772149999931e+00,6.707138801049999932e-01,-9.461967963050000208e+00,-1.001133173699999962e-01,-8.751920610669999823e-02,5.666463077069999743e-02,1.000000000000000000e+00
2.060207843000000150e+00,-2.841650536359999979e+00,6.796387987080000359e-01,-9.482125200409999621e+00,-8.991509675980000060e-02,-7.043480873110001539e-02,4.709201678629999777e-02,1.000000000000000000e+00
2.065213673000000139e+00,-2.565140118359999999e+00,5.545487396949999592e-01,-9.395871396799998720e+00,-9.004172682760000490e-02,-7.535788416860000893e-02,3.105939365920000125e-02,1.000000000000000000e+00
2.070190113999999859e+00,-2.472219258079999982e+00,4.856523136010000297e-01,-9.480656296900001223e+00,-8.928301185369999504e-02,-5.251424759630000244e-02,1.939981989559999911e-02,1.000000000000000000e+00
2.075147015999999844e+00,-2.546218852530000021e+00,4.981511451680000202e-01,-9.557627308380000741e+00,-8.892872184510000610e-02,-6.943155080080000430e-02,3.389421477909999869e-02,1.000000000000000000e+00
2.080205240000000178e+00,-2.715813787170000104e+00,5.324468710670000604e-01,-9.528025366319999634e+00,-1.157027557489999914e-01,-7.886543869969998843e-02,3.027428500350000037e-02,1.000000000000000000e+00
2.085055259000000216e+00,-2.814952791309999647e+00,5.141061450710000535e-01,-9.500359945279999607e+00,-9.949629008770000116e-02,-1.054421439770000107e-01,1.306130364540000061e-02,1.000000000000000000e+00
2.090210352999999799e+00,-2.919153462759999762e+00,5.462477982090000461e-01,-9.397713809800000817e+00,-1.109354570509999971e-01,-9.935699403289999232e-02,2.407186198979999973e-03,1.000000000000000000e+00
2.095071105999999794e+00,-2.877861667429999493e+00,5.511424749150000135e-01,-9.356587434159999717e+00,-1.095561608669999992e-01,-5.890827253460000079e-02,1.857164315880000015e-03,1.000000000000000000e+00
2.099994707000000016e+00,-2.839686250550000235e+00,5.563964864529999943e-01,-9.419846146630000305e+00,-1.244448497890000005e-01,-6.054600328209999716e-02,2.544770017270000118e-03,1.000000000000000000e+00
2.105203367000000103e+00,-2.805799470780000249e+00,4.285830668909999530e-01,-9.466575749100000436e+00,-9.602524340150001003e-02,-3.252746909859999952e-02,5.545096006239999195e-03,1.000000000000000000e+00
2.110196215999999847e+00,-2.676406490409999783e+00,3.877134059619999906e-01,-9.467333873989998594e+00,-1.294746398929999820e-01,-2.842615917330000228e-02,2.631315495820000031e-03,1.000000000000000000e+00
2.115058577000000106e+00,-2.834359502570000355e+00,4.834300709740000368e-01,-9.586427286410000193e+00,-1.049594655629999956e-01,-2.874936908479999720e-02,2.291653677819999874e-02,1.000000000000000000e+00
2.120152907000000031e+00,-2.660865514670000209e+00,4.287439200079999901e-01,-9.537925998089999524e+00,-1.277815550570000069e-01,-2.742045931520000271e-02,1.048645935950000101e-02,1.000000000000000000e+00
2.125066884999999850e+00,-2.716851605780000067e+00,4.137381836540000024e-01,-9.506485734689999134e+00,-1.139382645489999957e-01,-6.574323773380000291e-02,3.262069076299999666e-04,1.000000000000000000e+00
2.130035719999999966e+00,-2.690020297479999822e+00,3.298160378639999890e-01,-9.426121573639999696e+00,-9.322138130660001520e-02,-6.403633952139999030e-02,3.022085875270000234e-04,1.000000000000000000e+00
2.135036089999999831e+00,-2.701274681949999756e+00,3.951168140860000233e-01,-9.572470657250001125e+00,-1.033703088759999889e-01,-7.415134459730000904e-02,1.185317151250000166e-02,1.000000000000000000e+00
2.140027487999999867e+00,-2.632992880620000253e+00,6.801691792569999340e-01,-9.612093058060001027e+00,-7.824518531560001322e-02,-8.397158980369999470e-02,-1.188128953800000019e-03,1.000000000000000000e+00
2.145067426999999860e+00,-2.811566656010000109e+00,7.690189907080000609e-01,-9.564022562379999925e+00,-7.388336211439999746e-02,-9.718277305359999951e-02,1.784916408359999915e-02,1.000000000000000000e+00
2.150056626000000026e+00,-2.937530246449999716e+00,7.195387012890001044e-01,-9.589034838559999940e+00,-5.464719235900000055e-02,-1.201030239460000038e-01,2.470000181350000094e-03,1.000000000000000000e+00
2.155049888000000191e+00,-2.877872773340000023e+00,6.544244240829999448e-01,-9.642129299889999672e+00,-1.553133036939999961e-02,-1.217953711750000001e-01,1.704859919849999877e-02,1.000000000000000000e+00
2.160207250000000023e+00,-2.871414098719999863e+00,6.336235550509999870e-01,-9.578291910749999971e+00,1.120473071929999932e-02,-1.424124538900000125e-01,2.033266425129999846e-02,1.000000000000000000e+00
2.165065531000000210e+00,-2.925355240010000024e+00,4.459889231889999639e-01,-9.430869060430000062e+00,4.638124629859999987e-02,-1.559515148399999995e-01,2.110349573190000230e-02,1.000000000000000000e+00
2.170038690000000159e+00,-2.676101077720000276e+00,-5.512439168619999441e-02,-9.512809677010000797e+00,4.781746864319999513e-02,-1.547195166349999984e-01,1.377549953759999932e-02,1.000000000000000000e+00
2.175036168000000103e+00,-2.691661634949999993e+00,-9.161343094479999782e-02,-9.719420044839999662e+00,5.123134702439999938e-02,-1.863151788709999923e-01,4.373242333530000248e-02,1.000000000000000000e+00
2.180035444000000044e+00,-2.611527190999999970e+00,2.378666894960000111e-01,-9.569920972760000311e+00,2.901852596549999840e-03,-1.961303949359999854e-01,4.740995913739999568e-02,1.000000000000000000e+00
2.185043915000000059e+00,-2.662110546290000102e+00,3.592474456620000089e-01,-9.575873743689999884e+00,-3.621280193330000258e-02,-1.942926198240000069e-01,6.143896654249999395e-02,1.000000000000000000e+00
2.190213990999999805e+00,-2.754752881890000005e+00,4.460664454050000116e-01,-9.621113399860000470e+00,-5.590011179449999590e-02,-2.391408085819999862e-01,6.858101487159999621e-02,1.000000000000000000e+00
2.195034466000000073e+00,-2.891551462350000268e+00,9.398891329149999807e-01,-9.516894900499998755e+00,-5.392757803199999672e-02,-2.555176913739999889e-01,7.591424882410001407e-02,1.000000000000000000e+00
2.200044419999999779e+00,-2.904865117429999533e+00,8.769205624999999449e-01,-9.529294363340000018e+00,-3.370471671219999604e-02,-2.879498004909999964e-01,6.454663723709999634e-02,1.000000000000000000e+00
2.205006769000000144e+00,-2.894112545010000037e+00,7.456108617869999788e-01,-9.428217084610000853e+00,-5.251358263189999549e-03,-2.902336716649999704e-01,6.991054862739999598e-02,1.000000000000000000e+00
2.210036195999999897e+00,-2.856293978740000128e+00,6.733674633530000175e-01,-9.388576563619999149e+00,1.714025624099999728e-02,-2.958327233790000177e-01,6.031115725639999564e-02,1.000000000000000000e+00
2.215183530000000012e+00,-2.926483659520000113e+00,4.876573332810000272e-01,-9.560267009229999502e+00,4.678418859840000055e-02,-3.006021976469999690e-01,6.640017777680000399e-02,1.000000000000000000e+00
2.220032954000000114e+00,-2.893835189370000283e+00,3.959196183690000259e-01,-9.566364741589998388e+00,4.059641808270000179e-02,-3.137702345850000296e-01,6.976952403779999867e-02,1.000000000000000000e+00
2.225054952999999891e+00,-2.738258258690000169e+00,5.011702372609999623e-01,-9.703352122610001018e+00,4.656797274950000114e-03,-3.321791887280000077e-01,8.123869448900000734e-02,1.000000000000000000e+00
2.230070608000000121e+00,-2.751533627590000197e+00,6.446640775690000158e-01,-9.768876441919999820e+00,1.623694435689999882e-03,-3.437642753119999894e-01,7.986573129889999734e-02,0.000000000000000000e+00
2.235168547999999866e+00,-2.871889899540000179e+00,7.796597733179999601e-01,-9.616957449230000066e+00,8.743030950430000919e-03,-3.800216913220000325e-01,7.418996095660000678e-02,0.000000000000000000e+00
2.240032933999999809e+00,-3.073029726999999767e+00,8.919070461650000503e-01,-9.646685648020000059e+00,1.001502759750000013e-02,-3.885764777660000169e-01,7.192947715519999730e-02,0.000000000000000000e+00
2.245052354999999888e+00,-2.877489619249999908e+00,9.719043466610000070e-01,-9.657304657190000086e+00,3.872256353500000414e-02,-4.195706844329999963e-01,8.293433487420000250e-02,0.000000000000000000e+00
2.250038320999999897e+00,-2.772499843249999874e+00,9.463616168639999993e-01,-9.713803373999999380e+00,7.674532383679999459e-02,-4.419358670709999659e-01,5.108561366799999753e-02,0.000000000000000000e+00
2.255042305999999996e+00,-2.797904333620000017e+00,9.547272941500000165e-01,-9.831819512570000086e+00,1.272372603420000026e-01,-4.345416128640000042e-01,5.025425553320000266e-02,0.000000000000000000e+00
2.260182159999999829e+00,-2.798018315390000232e+00,1.038420161229999916e+00,-9.922842430279999348e+00,1.583249419930000124e-01,-4.891650080680000068e-01,4.529845342040000195e-02,0.000000000000000000e+00
2.265022518999999956e+00,-2.699890826370000330e+00,9.656187635849999840e-01,-1.003913890539999976e+01,1.740749329329999984e-01,-5.233325958250000243e-01,5.126934871080000150e-02,0.000000000000000000e+00
2.270035583999999940e+00,-2.675342952829999899e+00,9.278596724250001149e-01,-1.014480760360000033e+01,1.694063693279999894e-01,-5.771951675419999539e-01,4.086002334950000064e-02,0.000000000000000000e+00
2.275033467000000087e+00,-2.664678935479999566e+00,1.062190912920000008e+00,-1.015074868409999986e+01,2.013493180270000127e-01,-6.367549300190000761e-01,2.875417284669999976e-02,0.000000000000000000e+00
2.280044408999999828e+00,-2.578709501770000134e+00,9.967162779649999527e-01,-1.012732689200000102e+01,2.006725221869999909e-01,-6.581068634990000499e-01,9.637238457800000394e-03,0.000000000000000000e+00
2.285035006999999840e+00,-2.629849614159999849e+00,9.888710443570000175e-01,-1.023407461759999926e+01,2.403704524040000123e-01,-7.029326558110000622e-01,-1.400379464029999875e-02,0.000000000000000000e+00
2.290013581000000187e+00,-2.687248494679999933e+00,6.047319532179999957e-01,-1.024446274059999951e+01,2.698634862900000098e-01,-7.639764547349999768e-01,-2.837362512950000054e-02,0.000000000000000000e+00
2.295018993999999868e+00,-2.718530644909999960e+00,4.925044445180000174e-01,-1.030261682340000107e+01,2.793603539469999841e-01,-8.186799883840000236e-01,-3.845898434519999520e-02,0.000000000000000000e+00
2.300032175000000123e+00,-2.555438808559999941e+00,2.962124589480000236e-01,-1.053472812769999933e+01,2.538940906520000262e-01,-8.850464820860000081e-01,-7.386524975300000351e-02,0.000000000000000000e+00
2.305051023999999948e+00,-2.529303665820000102e+00,3.128509110709999930e-01,-1.076812538019999899e+01,2.142789065839999785e-01,-9.594715237620000670e-01,-6.894017010929999467e-02,0.000000000000000000e+00
2.310007413000000120e+00,-2.442382630479999595e+00,1.908986934250000156e-01,-1.068725911479999979e+01,1.657217890019999917e-01,-1.033997297290000006e+00,-8.755532652139999539e-02,0.000000000000000000e+00
2.315187503000000202e+00,-2.807287371250000163e+00,4.866678838519999939e-01,-1.086170032039999889e+01,1.119526699190000057e-01,-1.123171687129999929e+00,-7.658737897869999367e-02,0.000000000000000000e+00
2.320036775000000162e+00,-2.572513569739999895e+00,7.997324011399998822e-01,-1.088217846030000047e+01,1.102685779329999893e-01,-1.202113986020000080e+00,-7.452622801069999636e-02,0.000000000000000000e+00
2.325046417999999893e+00,-2.564091778349999906e+00,1.634963620360000147e-01,-1.060815810559999939e+01,1.353298872710000100e-01,-1.259629368779999981e+00,-9.388612210750001130e-02,0.000000000000000000e+00
2.330049880999999878e+00,-2.867306078879999998e+00,-3.847057120460000146e-01,-1.079192126630000104e+01,1.794147640469999916e-01,-1.319624304770000034e+00,-3.439110517499999881e-02,0.000000000000000000e+00
2.335078365000000211e+00,-2.897056781759999922e+00,3.788592556059999783e-02,-1.091379758739999950e+01,1.703977733850000065e-01,-1.406387805939999902e+00,1.240676455200000021e-02,0.000000000000000000e+00
2.340028542999999850e+00,-2.570812611040000029e+00,3.668479472609999514e-01,-1.114308214390000096e+01,1.510327309369999815e-01,-1.507828474039999866e+00,2.367506176229999815e-02,0.000000000000000000e+00
2.345064616999999796e+00,-2.436293081430000118e+00,4.839091231959999906e-01,-1.131644549109999964e+01,1.094196736810000015e-01,-1.637306928630000158e+00,2.303371019659999908e-02,0.000000000000000000e+00
2.350017659000000148e+00,-2.446606531780000093e+00,1.741976974610000006e-01,-1.150963465190000079e+01,7.508075982329999454e-02,-1.728947162629999923e+00,2.539532259110000023e-02,0.000000000000000000e+00
2.355059041000000075e+00,-2.294082412799999915e+00,1.484316803020000186e-01,-1.167049156880000105e+01,6.191672384740000423e-02,-1.850966215129999926e+00,3.538713604210000363e-02,0.000000000000000000e+00
2.360067224999999880e+00,-2.330738657289999960e+00,1.148028664800000015e-01,-1.186008475079999869e+01,3.807315230369999470e-02,-2.013174295429999816e+00,4.915677756069999904e-02,0.000000000000000000e+00
2.365043527000000090e+00,-2.096129837079999891e+00,2.656779122140000005e-01,-1.194956569980000083e+01,-1.290964079089999871e-03,-2.138625383379999967e+00,3.159949183460000061e-02,0.000000000000000000e+00
2.370035663999999986e+00,-2.038737240159999686e+00,-4.036525507090000242e-01,-1.216237024609999828e+01,-3.690537810330000307e-02,-2.344744682309999551e+00,1.938258297740000011e-02,0.000000000000000000e+00
2.374995177000000179e+00,-1.894465401220000178e+00,-7.116109039650000412e-01,-1.222201602869999881e+01,-1.180450543759999915e-01,-2.521277427670000293e+00,1.929844729599999864e-02,0.000000000000000000e+00
2.380036469000000210e+00,-1.237772593809999933e+00,-1.518586554229999885e+00,-1.314999947369999944e+01,-2.221184670930000105e-01,-2.692449569700000378e+00,-2.355961315330000125e-02,0.000000000000000000e+00
2.385026569999999957e+00,-1.685993477310000044e+00,-1.424769183500000036e+00,-1.170477027049999919e+01,-3.482036292549999801e-01,-2.860779285430000041e+00,-6.022031605240000390e-02,0.000000000000000000e+00
2.389994875000000185e+00,-1.231925913610000034e+00,-1.896508597490000225e+00,-1.280707450949999959e+01,-4.422309994699999414e-01,-3.070761919020000175e+00,-5.311609059569999403e-02,0.000000000000000000e+00
2.394993989000000045e+00,-1.691448089449999914e+00,-1.861729252790000233e+00,-1.241009413009999918e+01,-6.334723830219999297e-01,-3.287331104279999749e+00,-2.976204641159999748e-02,0.000000000000000000e+00
2.399999855999999987e+00,-1.852276510920000119e+00,-2.556914141810000096e+00,-1.238270343430000153e+01,-7.862669825550000491e-01,-3.464255809780000472e+00,2.722835168239999895e-02,0.000000000000000000e+00
2.405162283000000123e+00,-1.381248313940000028e+00,-2.598084064320000053e+00,-1.244717386059999953e+01,-9.400398135190000115e-01,-3.700591325759999606e+00,4.986531659960000140e-02,0.000000000000000000e+00
2.410198739999999784e+00,-2.123972952769999978e+00,-3.450763261949999716e+00,-1.284602471020000003e+01,-1.083796381949999832e+00,-3.919724702840000408e+00,1.191099584099999803e-01,0.000000000000000000e+00
2.414995575999999922e+00,-2.557174254049999984e+00,-3.871361248369999508e+00,-1.229068098420000155e+01,-1.258315920829999879e+00,-4.116321563719999688e+00,1.934988796709999903e-01,0.000000000000000000e+00
2.420028475000000068e+00,-2.681852773120000144e+00,-3.484575222919999771e+00,-1.189674362569999921e+01,-1.438611507420000102e+00,-4.309562683110000236e+00,2.919359803199999548e-01,0.000000000000000000e+00
2.425051791000000012e+00,-3.516365614930000216e+00,-3.106130617089999824e+00,-1.182713992809999937e+01,-1.601784229279999971e+00,-4.501780986790000050e+00,3.790060579779999661e-01,0.000000000000000000e+00
2.429970373999999822e+00,-2.695611541619999940e+00,-3.147804689740000494e+00,-1.176060964660000074e+01,-1.733697175979999949e+00,-4.706958770750000021e+00,4.890564978120000017e-01,0.000000000000000000e+00
2.435189691999999795e+00,-3.556828558219999881e+00,-2.883756570690000132e+00,-1.162705925430000065e+01,-1.873800396920000111e+00,-4.839736461640000265e+00,5.380358099940000249e-01,0.000000000000000000e+00
2.440024907000000187e+00,-4.657981581419999628e+00,-4.083627742260000026e+00,-1.158745322010000045e+01,-2.029530525209999769e+00,-5.010775089260000037e+00,6.640552878379999413e-01,0.000000000000000000e+00
2.445047172999999852e+00,-6.035166883699999651e+00,-5.740449777879999438e+00,-1.160189792499999939e+01,-2.223665952680000224e+00,-5.189137935639999810e+00,8.031485676770000470e-01,0.000000000000000000e+00
2.450005265000000154e+00,-7.339421682080000231e+00,-7.286862058280000554e+00,-1.217974691279999888e+01,-2.495008468630000031e+00,-5.236205577849999848e+00,9.246145486830000815e-01,0.000000000000000000e+00
2.455043796000000000e+00,-9.329719885499999421e+00,-8.707375337900000289e+00,-1.274618369519999916e+01,-2.813696622850000217e+00,-5.243427753450000672e+00,1.078999638560000029e+00,0.000000000000000000e+00
2.460163972000000143e+00,-1.199174947549999892e+01,-8.565623518960000737e+00,-1.327320616660000141e+01,-3.103527784350000207e+00,-5.131485462190000568e+00,1.236204862589999953e+00,0.000000000000000000e+00
2.465046044000000158e+00,-1.432218681179999997e+01,-7.916032067989998922e+00,-1.319631348109999891e+01,-3.369695186610000004e+00,-4.941710472109999586e+00,1.466653704639999889e+00,0.000000000000000000e+00
2.470033001000000006e+00,-1.595968396920000032e+01,-5.387164163230000469e+00,-1.345393332069999914e+01,-3.528596878050000107e+00,-4.727210521700000001e+00,1.684890747070000083e+00,0.000000000000000000e+00
2.475040220999999985e+00,-1.628184788489999946e+01,-4.061556195709999706e+00,-1.308038057849999980e+01,-3.524267911909999995e+00,-4.434986591340000395e+00,1.925451993940000328e+00,0.000000000000000000e+00
2.480036493000000064e+00,-1.621470268640000256e+01,-3.590333352940000111e+00,-1.258236208329999961e+01,-3.453958034519999831e+00,-4.023920059199999955e+00,2.188341140749999969e+00,0.000000000000000000e+00
2.485039056000000190e+00,-1.477613118750000076e+01,-3.271843157340000197e+00,-1.308686292630000203e+01,-3.398712158199999944e+00,-3.632766246800000154e+00,2.300985574719999871e+00,0.000000000000000000e+00
2.490036099000000114e+00,-1.326005442410000157e+01,-4.611079544989999945e+00,-1.355083769760000045e+01,-3.375737667080000115e+00,-3.330631017680000028e+00,2.397909641270000058e+00,0.000000000000000000e+00
2.494994814000000005e+00,-1.467916134410000062e+01,-5.850592406599999684e+00,-1.402681621049999983e+01,-3.430370807649999687e+00,-3.052037477490000317e+00,2.466819047929999620e+00,0.000000000000000000e+00
2.499960113999999844e+00,-1.672626572280000090e+01,-6.368520886440000695e+00,-1.497558876089999913e+01,-3.589006423949999913e+00,-2.777315616610000149e+00,2.473363399509999727e+00,0.000000000000000000e+00
2.505001352999999931e+00,-1.526010946690000125e+01,-5.906564469190000111e+00,-1.436028477950000060e+01,-3.765108585360000149e+00,-2.415210962299999764e+00,2.585053682329999880e+00,0.000000000000000000e+00
2.509998465999999873e+00,-9.111026281180000908e+00,-5.108931159219999962e+00,-1.302544838040000030e+01,-3.811439514159999931e+00,-1.995678663249999873e+00,2.614719390869999938e+00,0.000000000000000000e+00
2.515000839999999904e+00,-2.471625383840000190e+00,-4.866269527060000044e+00,-1.306208504339999976e+01,-3.766982555390000265e+00,-1.497796177860000189e+00,2.578679084779999631e+00,0.000000000000000000e+00
2.519997018000000200e+00,4.644858626600000262e-01,-5.555404760650000995e+00,-1.125488832190000110e+01,-3.759615659709999669e+00,-1.158066034320000215e+00,2.476630449299999981e+00,0.000000000000000000e+00
2.524964341000000001e+00,2.885869325059999824e+00,-6.444423391900000908e+00,-8.458195409889999183e+00,-3.727091073990000059e+00,-7.708577513689999217e-01,2.272437572479999890e+00,0.000000000000000000e+00
2.529996027999999786e+00,2.807088633809999845e+00,-6.999530386530000037e+00,-4.362132841210000223e+00,-3.614387512209999542e+00,-4.061410129070000541e-01,1.838991403579999906e+00,0.000000000000000000e+00
2.534985659999999807e+00,-5.542461692449999866e+00,-3.774745332960000255e+00,-2.945098928140000183e+00,-3.423505067829999859e+00,-1.946744918820000059e-01,9.308454990389999351e-01,0.000000000000000000e+00
2.539998602999999910e+00,-7.224296004249999292e+00,-2.071704566999999830e+00,-8.639991069939998880e+00,-3.023303031920000272e+00,1.445398330690000066e-01,-1.931971311570000044e-02,0.000000000000000000e+00
2.545012536999999853e+00,-8.115224853029999963e+00,-6.825383195419999716e+00,-1.387719964949999962e+01,-2.498759984969999959e+00,6.174005866049999680e-01,-6.075539588930000123e-01,0.000000000000000000e+00
2.550023085999999939e+00,-5.942905364110000477e+00,-6.970031904849999904e+00,-1.370860366279999987e+01,-2.001565694809999574e+00,1.437711358070000056e+00,-1.139422178270000030e+00,0.000000000000000000e+00
2.555046880999999992e+00,-8.502649030259999963e-01,-5.599636116569999267e+00,-1.101819553500000026e+01,-1.655861854550000123e+00,2.222347497940000416e+00,-1.299391388889999943e+00,0.000000000000000000e+00
2.560025717999999895e+00,1.888867873470000125e-01,-6.484120026990000341e+00,-9.458771797349999844e+00,-1.533711791039999994e+00,2.695021152499999850e+00,-1.308833241459999908e+00,0.000000000000000000e+00
2.565193713000000209e+00,1.181445434180000031e+00,-7.826837534750000103e+00,-7.477722483789999153e+00,-1.556146979330000013e+00,3.042225360870000284e+00,-1.429278731349999942e+00,0.000000000000000000e+00
2.570175043999999964e+00,3.589947276230000206e+00,-7.323617963750000293e+00,-6.658212857569999699e+00,-1.596805691720000198e+00,2.906875848770000381e+00,-1.611096501349999821e+00,0.000000000000000000e+00
2.575030329000000062e+00,3.480928975369999456e+00,-5.204826066879999935e+00,-5.675607595609999834e+00,-1.508526206019999982e+00,2.719830751420000414e+00,-1.767249941830000060e+00,0.000000000000000000e+00
2.580031673000000136e+00,3.215756528459999597e+00,-4.422145995890000236e+00,-6.121152391759999922e+00,-1.418857574460000048e+00,2.488094329830000007e+00,-2.000791311259999983e+00,0.000000000000000000e+00
2.585034529000000081e+00,2.994561170440000364e+00,-3.456881160309999590e+00,-6.553463027810000341e+00,-1.260073304180000076e+00,2.211131811140000014e+00,-2.232897520069999864e+00,0.000000000000000000e+00
2.590066574999999816e+00,1.623703609870000175e+00,-3.297989990510000080e+00,-6.568880377170000173e+00,-1.097722768779999969e+00,2.085682868959999769e+00,-2.388521909709999669e+00,0.000000000000000000e+00
2.595044892000000214e+00,7.424316472290000135e-01,-3.469526999130000622e+00,-7.449459681380000475e+00,-9.258019924160000302e-01,2.113687515260000094e+00,-2.462507486339999829e+00,0.000000000000000000e+00
2.600043691000000212e+00,-4.405784789800000212e-01,-3.345215267539999981e+00,-7.839025985200000157e+00,-7.632898688320000069e-01,2.284841060640000254e+00,-2.494563579559999855e+00,0.000000000000000000e+00
2.605039768000000144e+00,-1.794952156939999988e+00,-2.947495467890000498e+00,-8.481443014489999044e+00,-5.984409451479999476e-01,2.608189821240000317e+00,-2.512555599209999713e+00,0.000000000000000000e+00
2.610188278999999945e+00,-2.558066526709999788e+00,-2.711819456840000253e+00,-8.942138033500000915e+00,-4.589390754699999575e-01,2.908748626710000007e+00,-2.553091287609999593e+00,0.000000000000000000e+00
2.615062717999999897e+00,-3.129548025299999647e+00,-2.608245392849999789e+00,-9.311126244189999568e+00,-3.085534274580000180e-01,3.150817394260000182e+00,-2.590718030929999749e+00,0.000000000000000000e+00
2.620037088000000125e+00,-3.266611686430000105e+00,-2.747854939070000224e+00,-9.310081703579999868e+00,-1.583600044250000061e-01,3.369820833209999922e+00,-2.652359724040000089e+00,0.000000000000000000e+00
2.625049903999999934e+00,-3.575935409750000460e+00,-2.854037724249999908e+00,-9.301647637230001209e+00,-4.396357387299999753e-02,3.601731538769999741e+00,-2.659247636799999981e+00,0.000000000000000000e+00
2.630215166999999798e+00,-3.626708442400000010e+00,-3.015416619210000260e+00,-9.289822759399999796e+00,2.265007235109999656e-02,3.839332818980000006e+00,-2.670234680180000097e+00,0.000000000000000000e+00
2.635061526999999959e+00,-3.536421145490000306e+00,-3.115995885290000267e+00,-9.071059012450000125e+00,1.957699470219999988e-02,4.080574512480000138e+00,-2.691448688509999965e+00,0.000000000000000000e+00
2.640044866999999851e+00,-3.276420840519999711e+00,-3.088045217570000389e+00,-8.458993282270000691e+00,-1.998945698140000213e-02,4.331823348999999546e+00,-2.673808813099999959e+00,0.000000000000000000e+00
2.645040203999999839e+00,-3.039602965959999459e+00,-3.232757055360000020e+00,-7.781341273469999820e+00,-7.449191063639999666e-02,4.489430427550000324e+00,-2.670256853100000161e+00,0.000000000000000000e+00
2.650200955999999941e+00,-2.643107447400000254e+00,-3.419206386429999966e+00,-7.011727604799999902e+00,-1.773096472019999870e-01,4.536972999569999665e+00,-2.640320301059999597e+00,0.000000000000000000e+00
2.655037314999999953e+00,-2.274971323489999975e+00,-3.489662609190000264e+00,-6.475839105379999516e+00,-2.697888910769999926e-01,4.509870052340000157e+00,-2.609829187390000360e+00,0.000000000000000000e+00
2.660091474000000122e+00,-1.747933069999999978e+00,-3.270456963679999607e+00,-6.352232014939999338e+00,-3.746401369569999917e-01,4.372653007510000300e+00,-2.584684848790000267e+00,0.000000000000000000e+00
2.665062671999999910e+00,-2.046910463620000176e+00,-2.958181697070000116e+00,-6.408527318130000872e+00,-4.878759980200000346e-01,4.209241390229999880e+00,-2.576795339579999844e+00,0.000000000000000000e+00
2.670001894999999958e+00,-2.404641951759999952e+00,-2.661836405529999894e+00,-6.274091959680000663e+00,-5.910003185270000792e-01,4.035067081449999371e+00,-2.592418670649999868e+00,0.000000000000000000e+00
2.675001749999999845e+00,-2.975236876769999927e+00,-2.511427232870000026e+00,-6.565331744780000811e+00,-6.642064452170000077e-01,3.863082885739999917e+00,-2.591227531429999953e+00,0.000000000000000000e+00
2.679996398000000113e+00,-3.829046247469999997e+00,-2.460846215670000170e+00,-6.981172892060000912e+00,-6.627570390699999425e-01,3.729712486269999960e+00,-2.591390371320000163e+00,0.000000000000000000e+00
2.685000440000000044e+00,-4.788936696540000426e+00,-2.533024147649999946e+00,-7.608807947289999873e+00,-6.623104810709999901e-01,3.670082330700000117e+00,-2.593011379240000469e+00,0.000000000000000000e+00
2.689948680000000092e+00,-5.425084436299999702e+00,-2.454046472529999967e+00,-8.215698320650000497e+00,-6.111451387409999603e-01,3.660957813259999583e+00,-2.577718734739999906e+00,0.000000000000000000e+00
2.695189646999999855e+00,-5.989230477439999589e+00,-2.580042211679999919e+00,-8.874312451510000699e+00,-5.418366193770000061e-01,3.693462371830000368e+00,-2.588281154630000191e+00,0.000000000000000000e+00
2.700064143000000083e+00,-6.583419774659999391e+00,-2.819844070490000298e+00,-9.484685406289999676e+00,-4.841800034049999479e-01,3.776410102840000338e+00,-2.602465391159999974e+00,0.000000000000000000e+00
2.705172523999999967e+00,-6.950040087180000548e+00,-2.959963319790000380e+00,-9.888964710589998930e+00,-4.344338774679999959e-01,3.871556520459999984e+00,-2.618217468259999681e+00,0.000000000000000000e+00
2.710057334000000040e+00,-7.253276015019999967e+00,-3.118306792580000320e+00,-1.017331590519999907e+01,-4.132858812810000226e-01,3.983646869659999812e+00,-2.634662628170000076e+00,0.000000000000000000e+00
2.715036220000000000e+00,-7.397855166350000289e+00,-3.523428392930000541e+00,-1.018587377350000089e+01,-3.673703372480000007e-01,4.089080333710000126e+00,-2.655732631679999844e+00,0.000000000000000000e+00
2.720035971000000163e+00,-7.428099497959999908e+00,-4.023186425299999591e+00,-1.007906642669999897e+01,-3.578568995000000474e-01,4.194179534909999951e+00,-2.667382001880000075e+00,0.000000000000000000e+00
2.725051033999999817e+00,-7.408356102089999951e+00,-4.377131380639999847e+00,-9.857582899380000541e+00,-3.623132109639999876e-01,4.288897514340000328e+00,-2.654726028440000274e+00,0.000000000000000000e+00
2.730041128999999955e+00,-7.274554365369999331e+00,-4.706564995059999923e+00,-9.654312489630001437e+00,-3.911144733429999798e-01,4.315497398380000682e+00,-2.635276794429999736e+00,0.000000000000000000e+00
2.735177506999999952e+00,-7.099184938979999693e+00,-5.068026317380000201e+00,-9.453499409910000040e+00,-4.014153182509999640e-01,4.291939735409999734e+00,-2.646598577499999827e+00,0.000000000000000000e+00
2.740022519000000045e+00,-7.166471007270000193e+00,-5.328284688760000165e+00,-9.462249118069999909e+00,-4.171054363250000230e-01,4.247081756590000090e+00,-2.668821334840000059e+00,0.000000000000000000e+00
2.745180294999999937e+00,-7.159339255689999071e+00,-5.382404986009999170e+00,-9.552219896380000463e+00,-4.327340722079999757e-01,4.189918041230000334e+00,-2.722062349319999797e+00,0.000000000000000000e+00
2.750066111999999841e+00,-7.439744927569999611e+00,-5.331739797650000057e+00,-9.733408238180000893e+00,-4.160020351409999817e-01,4.086506843569999603e+00,-2.789000988010000182e+00,0.000000000000000000e+00
2.755003179000000024e+00,-7.711812979210000307e+00,-5.311780128680000601e+00,-9.893768311480000577e+00,-4.054933786389999795e-01,4.001338005070000037e+00,-2.878259897229999975e+00,0.000000000000000000e+00
2.760051089000000069e+00,-8.013878694229999766e+00,-5.311761423980000174e+00,-1.004071828360000040e+01,-3.548291623589999721e-01,3.951200485230000226e+00,-2.994811534879999737e+00,0.000000000000000000e+00
2.765181151999999809e+00,-8.342336157100000094e+00,-5.440744946769998869e+00,-1.009829485879999922e+01,-2.715778946880000322e-01,3.889859199519999589e+00,-3.107008218770000330e+00,0.000000000000000000e+00
2.770191644000000064e+00,-8.559679515860000976e+00,-5.607715378130000872e+00,-1.023874962360000040e+01,-1.784071475270000151e-01,3.887930631640000190e+00,-3.212859153750000196e+00,0.000000000000000000e+00
2.775182078999999913e+00,-8.496184656549999659e+00,-5.732410263810000295e+00,-1.020744029309999945e+01,-9.288063645360000731e-02,3.851117134090000338e+00,-3.336184263230000280e+00,0.000000000000000000e+00
2.780056103999999806e+00,-8.412783319760000822e+00,-5.770346318969999722e+00,-1.018616720350000016e+01,-2.914192713800000181e-02,3.808884382250000034e+00,-3.488949060440000416e+00,0.000000000000000000e+00
2.785157793999999853e+00,-8.243044008220000052e+00,-5.867465799990000619e+00,-1.009766006799999971e+01,-1.307980623099999976e-02,3.733909845350000367e+00,-3.674187421800000131e+00,0.000000000000000000e+00
2.790191023000000214e+00,-8.141104559700000465e+00,-5.927094047000000643e+00,-1.006946974629999936e+01,4.858720581979999315e-03,3.660036802290000502e+00,-3.850286960600000086e+00,0.000000000000000000e+00
2.795021694999999973e+00,-8.059838481379999919e+00,-5.996117314340000171e+00,-9.891956293619999840e+00,1.933228410779999976e-02,3.564905881880000127e+00,-4.010139465330000874e+00,0.000000000000000000e+00
2.800001153000000187e+00,-8.006962046710000891e+00,-6.059915540509999587e+00,-9.945205068730000875e+00,3.760120645170000192e-02,3.429152965550000154e+00,-4.153454303740000242e+00,0.000000000000000000e+00
2.805012366000000146e+00,-8.058501679809999985e+00,-6.116691320700000212e+00,-1.017446858239999941e+01,9.689115919170000410e-03,3.344528436660000104e+00,-4.258623123169999580e+00,0.000000000000000000e+00
2.809992376999999930e+00,-8.088850640849999607e+00,-5.814058619450000798e+00,-1.041246836020000011e+01,1.930163241920000022e-02,3.228332996370000263e+00,-4.374720573430000314e+00,0.000000000000000000e+00
2.814993045000000027e+00,-8.227550671010000372e+00,-5.512779086369999249e+00,-1.054236315260000012e+01,4.839576780799999950e-02,3.131902217860000004e+00,-4.459393501280000116e+00,0.000000000000000000e+00
2.819993189999999927e+00,-8.437462418470000003e+00,-5.362174683400000141e+00,-1.079882096270000069e+01,5.163218453530000335e-02,3.048761129379999435e+00,-4.518998622890000760e+00,0.000000000000000000e+00
2.824939012000000194e+00,-8.754783570289999872e+00,-5.112016850269999857e+00,-1.096383967549999916e+01,1.026884764430000124e-01,2.978397607799999847e+00,-4.506021022799999720e+00,0.000000000000000000e+00
2.830141900000000099e+00,-8.812686308680000025e+00,-4.875358257930000327e+00,-1.101812656140000080e+01,1.408960223200000084e-01,2.936286687850000465e+00,-4.524364471440000202e+00,0.000000000000000000e+00
2.835157632000000039e+00,-9.044487816380000211e+00,-4.714265486430000429e+00,-1.102419039150000124e+01,2.192974835629999952e-01,2.920489788059999814e+00,-4.505729675290000458e+00,0.000000000000000000e+00
2.840016707000000196e+00,-9.064273297830000686e+00,-4.578877065040000360e+00,-1.090842933839999951e+01,2.754158973690000178e-01,2.850811481480000076e+00,-4.476500034329999878e+00,0.000000000000000000e+00
2.845017185000000115e+00,-8.922863424189998227e+00,-4.616044473919999724e+00,-1.073978425180000151e+01,3.133634328840000371e-01,2.789998292920000011e+00,-4.441731929780000421e+00,0.000000000000000000e+00
2.850217706000000017e+00,-8.824618154010000382e+00,-4.712162084410000062e+00,-1.042622099119999923e+01,3.263815641400000245e-01,2.728066444400000012e+00,-4.443110466000000258e+00,0.000000000000000000e+00
2.854988743999999912e+00,-8.645392052200000066e+00,-4.931925071540000260e+00,-1.017392848419999929e+01,3.441885709759999745e-01,2.651288747790000233e+00,-4.437058448790000220e+00,0.000000000000000000e+00
2.860053258000000209e+00,-8.577077809910001349e+00,-4.944054485269999688e+00,-9.749536366160000966e+00,3.262685537339999886e-01,2.593411445620000144e+00,-4.419761180880001028e+00,0.000000000000000000e+00
2.865053194000000136e+00,-8.006525408859999970e+00,-4.885041447549999916e+00,-9.463559031630000007e+00,3.041889071459999982e-01,2.437535047529999943e+00,-4.447996616360000210e+00,0.000000000000000000e+00
2.870214160000000181e+00,-8.140074047609999752e+00,-4.980975225909999970e+00,-9.314773660780000242e+00,2.892134785650000151e-01,2.298771619800000110e+00,-4.455963134770000167e+00,0.000000000000000000e+00
2.875000454999999899e+00,-7.601895391419999370e+00,-4.853462067940000679e+00,-8.543217041360000152e+00,2.797125279900000150e-01,2.151008605959999986e+00,-4.500493526459999671e+00,0.000000000000000000e+00
2.880191565000000065e+00,-7.391878430019999335e+00,-3.325499051940000061e+00,-7.943693981889999201e+00,2.732340097429999948e-01,1.972601890560000015e+00,-4.525054454800000237e+00,0.000000000000000000e+00
2.885169277000000143e+00,-6.853651258520000233e+00,-1.484176188980000033e+00,-7.599582438310000576e+00,3.253123462199999927e-01,1.751833081250000035e+00,-4.586878299709999496e+00,0.000000000000000000e+00
2.890202976999999951e+00,-7.043286526150000171e+00,-9.227720669619999816e-01,-7.929151661799999751e+00,4.461802840230000289e-01,1.509785413739999749e+00,-4.619347095490000221e+00,0.000000000000000000e+00
2.895182638000000086e+00,-8.301779690300000070e+00,-1.338073335210000048e+00,-8.440703007819999826e+00,6.670014262200000266e-01,1.246374726300000013e+00,-4.617517471310000232e+00,0.000000000000000000e+00
2.899994771999999887e+00,-9.425482691210000041e+00,-1.622082730670000084e+00,-8.970658025539998803e+00,8.468847274779999212e-01,1.005422711370000055e+00,-4.569800376889999960e+00,0.000000000000000000e+00
2.904984348000000161e+00,-1.013259109610000053e+01,-1.872674279040000167e+00,-9.611689737960000812e+00,9.838443398479999047e-01,8.373728990549998974e-01,-4.502941131590000090e+00,0.000000000000000000e+00
2.910049984000000034e+00,-1.149708730500000087e+01,-2.301867513719999980e+00,-1.017338604789999934e+01,1.023758769040000072e+00,7.367398738860000407e-01,-4.463796138760000254e+00,0.000000000000000000e+00
2.915167266000000090e+00,-1.338425246619999953e+01,-2.760177829549999906e+00,-1.168047052650000062e+01,9.699875116349999660e-01,7.723202705380000088e-01,-4.421660423280000529e+00,0.000000000000000000e+00
2.920056932000000049e+00,-1.490288242119999929e+01,-4.020118854419999721e+00,-1.177301787730000093e+01,7.867562770839999775e-01,8.354121446610001112e-01,-4.354354381559999432e+00,0.000000000000000000e+00
