t,ax,ay,az,wx,wy,wz,zv
4.794787000000000007e-03,-2.622973298650000284e+00,5.348686913860000169e-01,-9.453790501810001246e+00,-8.779836818579999855e-03,2.229664102200000150e-02,-2.706339582799999438e-04,1.000000000000000000e+00
9.809606999999999702e-03,-2.621316763609999878e+00,5.504372857879999970e-01,-9.437488186310000415e+00,9.888712083919999445e-04,-1.532987807880000072e-03,4.007884766909999667e-03,1.000000000000000000e+00
1.499863400000000027e-02,-2.618743990510000064e+00,5.598862282650000077e-01,-9.448087321730000099e+00,7.977950386700001159e-03,8.803575765339999174e-04,3.377183806150000234e-03,1.000000000000000000e+00
1.980274300000000112e-02,-2.619225052030000001e+00,5.753871642580000723e-01,-9.444557978560000677e+00,1.122593600300000015e-02,7.382671348749999737e-03,1.905181910839999927e-03,1.000000000000000000e+00
2.498053899999999952e-02,-2.567716398590000448e+00,5.395146174960000485e-01,-9.451329664650000240e+00,-1.032677106559999961e-02,3.551963949579999696e-03,-7.223629858340000279e-03,1.000000000000000000e+00
3.002144099999999940e-02,-2.614698514520000128e+00,5.517892483860000752e-01,-9.416201068130000351e+00,-7.690339814870000498e-03,3.718950320039999982e-04,-3.228592453519999947e-03,1.000000000000000000e+00
3.501843400000000106e-02,-2.597751763630000266e+00,5.184489965809999656e-01,-9.415136069239999017e+00,-1.376891275869999900e-03,7.310369051990000568e-03,-1.435623620640000134e-03,1.000000000000000000e+00
4.001889699999999772e-02,-2.616507609759999742e+00,5.362288007590000349e-01,-9.433555523029999890e+00,1.479753013699999960e-02,7.992030121389999409e-03,-3.989583812649999915e-03,1.000000000000000000e+00
4.498603200000000218e-02,-2.609430218720000028e+00,5.873614239609999954e-01,-9.427315167339999746e+00,-3.583081997930000033e-03,1.233534421770000195e-02,-5.724322982130000811e-04,1.000000000000000000e+00
4.993003599999999709e-02,-2.624067231359999752e+00,5.565041115459999910e-01,-9.431046755080000565e+00,1.598295941949999868e-02,2.226382726800000232e-03,-3.982941154390000175e-03,1.000000000000000000e+00
5.498260399999999742e-02,-2.615784848450000144e+00,5.599251720360000073e-01,-9.441104623239999327e+00,-1.423038076610000022e-02,1.092372555290000054e-02,-3.062132047489999741e-03,1.000000000000000000e+00
5.997418799999999772e-02,-2.605655084099999907e+00,5.609142196060000751e-01,-9.453321130730000021e+00,2.494139038030000061e-02,-1.430790685119999982e-02,-2.435900503770000065e-03,1.000000000000000000e+00
6.499505699999999497e-02,-2.613049578259999617e+00,5.587546304189999757e-01,-9.426007591869998592e+00,5.163648631419999468e-03,-8.633058518169998974e-03,4.422530531880000150e-03,1.000000000000000000e+00
6.999649700000000474e-02,-2.616736157820000130e+00,5.719298999430000308e-01,-9.421289915700000961e+00,7.154317107049999389e-03,1.660959562289999981e-03,5.955562461169999940e-03,1.000000000000000000e+00
7.499250200000000255e-02,-2.589692083549999690e+00,5.789005792060000211e-01,-9.435973105569999575e+00,8.315831422809999776e-03,1.452188007530000009e-05,-7.736429106439999355e-04,1.000000000000000000e+00
7.980707900000000299e-02,-2.623052501359999678e+00,5.599831127679999465e-01,-9.429410093789998726e+00,-2.487457823010000204e-03,9.810967370869999940e-03,1.429975032809999722e-03,1.000000000000000000e+00
8.484876800000000496e-02,-2.615139244020000309e+00,5.575391902149999801e-01,-9.439916290239999341e+00,-8.447435684499999750e-03,7.172869518400000130e-03,-4.096829798070000458e-03,1.000000000000000000e+00
8.998783400000000265e-02,-2.620044843980000149e+00,5.421485096639999668e-01,-9.428113624239999879e+00,-2.623042557389999949e-03,-6.441548466680000265e-03,-2.962145954369999924e-03,1.000000000000000000e+00
9.480614900000000622e-02,-2.619783854960000102e+00,5.278070459049999386e-01,-9.429651501329999519e+00,-8.816355257300000862e-04,1.007448881860000152e-02,5.850863177330000060e-03,1.000000000000000000e+00
9.997961399999999443e-02,-2.609586286069999872e+00,5.410725875280000263e-01,-9.419461531230000517e+00,1.079070102420000114e-02,1.406386122110000157e-02,-3.831597045059999956e-03,1.000000000000000000e+00
1.049596470000000031e-01,-2.628817640759999907e+00,5.600713390410000381e-01,-9.422062653639999397e+00,-4.847194941249999690e-04,2.172861620779999864e-02,-2.335392870010000177e-03,1.000000000000000000e+00
1.099578870000000042e-01,-2.616198982209999802e+00,5.515605541970000081e-01,-9.434555055460000617e+00,-1.857399242000000146e-03,-8.405346423389999447e-03,3.617329988630000204e-03,1.000000000000000000e+00
1.149569859999999971e-01,-2.605144211969999901e+00,5.455545187150000475e-01,-9.439420615669998682e+00,1.635601860469999922e-03,-1.198188122360000114e-02,6.318103056399999515e-03,1.000000000000000000e+00
1.198113989999999990e-01,-2.611224993190000010e+00,5.419775370110000434e-01,-9.452834224000000063e+00,-7.003470091149999687e-05,1.527755148710000128e-02,-3.179296851159999979e-03,1.000000000000000000e+00
1.247946360000000005e-01,-2.596027424049999865e+00,5.598225519120000326e-01,-9.442899689960000842e+00,-6.192619912329999643e-03,1.175072975460000034e-04,-8.675239980220000174e-03,1.000000000000000000e+00
1.300045320000000060e-01,-2.624086228320000380e+00,5.373372734569999976e-01,-9.427393493269999425e+00,1.423999853429999858e-02,7.894480600950000426e-03,3.023449797180000065e-03,1.000000000000000000e+00
1.349975680000000122e-01,-2.627281809499999898e+00,5.719310324540000101e-01,-9.427978599680001182e+00,9.411573410030000739e-03,-6.399877369399999301e-03,1.382627058769999922e-03,1.000000000000000000e+00
1.399474420000000052e-01,-2.634223299199999868e+00,5.754965794490000119e-01,-9.430252389830000581e+00,-2.505897777159999968e-03,6.665623746809999986e-03,8.673279080539998166e-04,1.000000000000000000e+00
1.448108180000000078e-01,-2.596677704659999808e+00,5.313357680200000432e-01,-9.427766418239999169e+00,2.379219047729999766e-03,-3.912838175889999694e-03,5.861083511260000919e-03,1.000000000000000000e+00
1.499915249999999867e-01,-2.594347508140000258e+00,5.681671133439999410e-01,-9.441700251040000325e+00,2.212755847719999943e-03,2.052982337770000235e-02,-1.638279412869999988e-03,1.000000000000000000e+00
1.548721899999999929e-01,-2.598895380709999703e+00,5.826334821240000128e-01,-9.424726319890000426e+00,-7.802155334499999602e-03,2.167433733119999897e-03,-1.338872127229999952e-02,1.000000000000000000e+00
1.600174010000000036e-01,-2.627087163709999729e+00,5.597090450670000328e-01,-9.460478016749998886e+00,1.928089186549999945e-02,-6.132907234130000051e-03,-8.564833551649999113e-03,1.000000000000000000e+00
1.649923909999999883e-01,-2.647334709699999955e+00,5.394407120100001007e-01,-9.460706564810001495e+00,3.473437856880000341e-03,5.323600023979999790e-03,1.312743499879999963e-02,1.000000000000000000e+00
1.700046530000000056e-01,-2.581208332850000176e+00,5.541111885280000093e-01,-9.417665295460000863e+00,6.361069623379999108e-03,1.577414572239999729e-02,-2.373110735789999998e-03,1.000000000000000000e+00
1.749971999999999916e-01,-2.625722889620000000e+00,5.492554555919999526e-01,-9.429521737469999110e+00,2.034647390249999955e-03,-5.575838498770000623e-03,4.153308458629999950e-03,1.000000000000000000e+00
1.798342820000000120e-01,-2.602594235220000218e+00,5.202619642870000005e-01,-9.478417578069999294e+00,-1.320448610929999926e-02,4.683989100159999600e-03,2.239854075010000271e-03,1.000000000000000000e+00
1.848187340000000123e-01,-2.611591196150000016e+00,5.456164415030000381e-01,-9.436720709059999379e+00,-8.324302034450001015e-04,-4.352858290079999332e-03,2.741180825980000287e-03,1.000000000000000000e+00
1.900377759999999916e-01,-2.626600549229999970e+00,5.373854599799999798e-01,-9.433712759419998761e+00,9.711871854959999023e-03,2.531238598749999992e-03,1.071109902109999975e-03,1.000000000000000000e+00
1.948365699999999867e-01,-2.595233058809999882e+00,5.681521715030000141e-01,-9.438470767600000144e+00,1.493516960180000250e-03,4.066487774249999756e-03,1.255765091630000024e-04,1.000000000000000000e+00
1.999821830000000078e-01,-2.620969849870000257e+00,5.360058421899999148e-01,-9.450752157030001044e+00,-1.068505551670000109e-02,4.542449489239999694e-03,1.649188809099999672e-03,1.000000000000000000e+00
2.049538220000000077e-01,-2.607158474399999815e+00,5.098884543110000500e-01,-9.440164712039999628e+00,1.183261536060000070e-02,1.082631759349999938e-02,2.033281605689999955e-03,1.000000000000000000e+00
2.098680900000000071e-01,-2.591038237459999838e+00,5.252253953809999931e-01,-9.450140162610001227e+00,3.581003751610000070e-03,1.298359595239999970e-02,-1.994229387490000188e-04,1.000000000000000000e+00
2.150169030000000092e-01,-2.586811851939999851e+00,5.480133100440000016e-01,-9.427684585169998854e+00,4.520252346989999878e-03,3.314616857099999744e-03,-3.758766688410000202e-03,1.000000000000000000e+00
2.200455869999999869e-01,-2.597200851750000261e+00,5.693265490439999299e-01,-9.439708200439998365e+00,-6.201147567479999359e-03,-4.971429705620000229e-03,-3.083299845460000035e-03,1.000000000000000000e+00
2.249898919999999969e-01,-2.623085234590000425e+00,5.683665814380000070e-01,-9.420124963570000176e+00,3.779506310820000565e-03,-1.205936539920000102e-03,2.268706914039999613e-03,1.000000000000000000e+00
2.300022389999999972e-01,-2.577636319579999835e+00,5.633915329720000642e-01,-9.437346147489998671e+00,-1.604811986910000107e-04,-1.612495165319999691e-03,-5.856308154760000995e-03,1.000000000000000000e+00
2.350246830000000120e-01,-2.611523099349999821e+00,5.767283497340000009e-01,-9.419909859520000595e+00,6.857082247730000163e-03,1.831336645409999998e-03,-1.121003367009999925e-02,1.000000000000000000e+00
2.399633039999999884e-01,-2.609664027480000037e+00,5.564507373910000387e-01,-9.420208550199999920e+00,6.434305105359999777e-03,-9.155258536340001377e-03,-9.748948737979998627e-03,1.000000000000000000e+00
2.450145139999999888e-01,-2.661688813750000104e+00,5.528416800479999393e-01,-9.433866488679999662e+00,1.195778511459999992e-02,1.579569885509999813e-03,7.208344060930000838e-03,1.000000000000000000e+00
2.499664500000000067e-01,-2.604220667379999909e+00,5.478356884549999695e-01,-9.454666115600000253e+00,6.659273989499999574e-03,-8.218153379859999969e-03,4.554557148370000190e-03,1.000000000000000000e+00
2.550663000000000236e-01,-2.590644561970000037e+00,5.550115714329999506e-01,-9.451073059540000543e+00,-4.013413563369999486e-03,2.260828576980000032e-02,-6.174211855979999317e-03,1.000000000000000000e+00
2.600297509999999757e-01,-2.617454827490000024e+00,5.489814609559999781e-01,-9.466150217170000047e+00,-4.717926029119999705e-03,1.713544502850000012e-02,-1.001615822320000085e-02,1.000000000000000000e+00
2.650187330000000063e-01,-2.675366918229999946e+00,5.600163574509999798e-01,-9.435853863100000183e+00,-3.272456116970000068e-03,4.468183033169999653e-04,6.040411535649999053e-03,1.000000000000000000e+00
2.698297900000000138e-01,-2.608092540379999935e+00,5.789223526460000047e-01,-9.440275186679999209e+00,1.485085696910000115e-03,-3.272631671280000140e-03,1.464607194069999856e-04,1.000000000000000000e+00
2.748160590000000014e-01,-2.624488671649999993e+00,5.360413884279999763e-01,-9.442681663300000139e+00,1.198423933239999885e-02,-6.211793515830001501e-04,8.356964215640000360e-03,1.000000000000000000e+00
2.798174110000000159e-01,-2.578132870920000208e+00,5.430521805049999262e-01,-9.458173831459999903e+00,-2.171131083739999933e-03,-9.140342473980000298e-03,-8.251965045930001116e-03,1.000000000000000000e+00
2.848160800000000270e-01,-2.635026140009999907e+00,5.478895010009999789e-01,-9.441998357210000137e+00,-2.944806590679999603e-03,3.372749080880000153e-03,1.275069266560000143e-02,1.000000000000000000e+00
2.900232189999999988e-01,-2.583012459659999926e+00,5.468951927340000019e-01,-9.424906352629999873e+00,4.185498692099999876e-03,2.736458322030000095e-03,5.382443778220000370e-04,1.000000000000000000e+00
2.948617060000000012e-01,-2.594581024640000066e+00,5.287485280060000292e-01,-9.458308856020000377e+00,-2.344532404090000043e-03,-8.296862244609999257e-03,-3.532285336409999709e-03,1.000000000000000000e+00
3.000238659999999724e-01,-2.610084883239999876e+00,5.441565980829999871e-01,-9.465514257349999738e+00,-8.366029709580001181e-03,4.752214066680000328e-03,-8.017732761799999672e-04,1.000000000000000000e+00
3.050114179999999786e-01,-2.609659935829999888e+00,5.444168199219999726e-01,-9.433447970999999654e+00,-2.589878626169999851e-03,-1.057897228750000022e-02,4.200371447949999629e-03,1.000000000000000000e+00
3.100281679999999929e-01,-2.593368726240000033e+00,5.432516120670000115e-01,-9.432140980059999791e+00,-3.173373639579999805e-03,-1.197769772259999962e-02,-9.417425608260000846e-04,1.000000000000000000e+00
3.150358609999999726e-01,-2.630674082279999659e+00,5.516936059920000135e-01,-9.429086268660000769e+00,-4.624912515280000212e-03,-5.527888424689999212e-03,1.990112941709999738e-04,1.000000000000000000e+00
3.200578880000000126e-01,-2.633586170340000088e+00,5.479514603209999501e-01,-9.448213578460000761e+00,4.861832596359999537e-03,-4.296967294069999749e-03,3.986938856540000152e-03,1.000000000000000000e+00
3.250450209999999895e-01,-2.597946701679999748e+00,5.134701121899999388e-01,-9.440087555149998977e+00,-7.935934700070000625e-03,1.789278350770000248e-02,-2.126852748920000057e-03,1.000000000000000000e+00
3.300319600000000131e-01,-2.579004977579999913e+00,5.274767179720000199e-01,-9.463384259580001512e+00,1.331816986199999865e-02,-5.508282221850000805e-03,-8.666329085829999751e-03,1.000000000000000000e+00
3.348514209999999824e-01,-2.605253517560000009e+00,5.672460529760000592e-01,-9.410677336270000026e+00,-2.956657204779999937e-03,4.476869478819999783e-03,-1.057144626980000002e-02,1.000000000000000000e+00
3.398903500000000077e-01,-2.617878605860000096e+00,5.253423362910000227e-01,-9.442564758919999690e+00,-1.065548043699999928e-03,2.013388788329999873e-03,-6.429792381820000242e-03,1.000000000000000000e+00
3.448677549999999981e-01,-2.620472713999999925e+00,5.431897258120000904e-01,-9.439297866080000432e+00,3.198033198710000143e-03,1.232684310529999841e-02,2.237747889010000164e-03,1.000000000000000000e+00
3.498352650000000064e-01,-2.619149356440000354e+00,5.432287061159999375e-01,-9.441229710920000073e+00,-9.848582558330000979e-04,2.428469480949999818e-03,2.296338323499999990e-03,1.000000000000000000e+00
3.548375100000000226e-01,-2.602143861109999623e+00,5.454066346770000129e-01,-9.459489590229999578e+00,6.857424508779999886e-03,1.238322164860000164e-02,-2.215527929370000187e-04,1.000000000000000000e+00
3.600420509999999741e-01,-2.608616856509999860e+00,5.458652286320000435e-01,-9.411427277850000550e+00,1.490017306060000164e-02,-2.030864357949999782e-03,-5.469529889520000077e-03,1.000000000000000000e+00
3.650201759999999740e-01,-2.622500712699999958e+00,5.362958746450000591e-01,-9.416230294220000019e+00,-2.296554856000000179e-03,-6.625121925029999956e-03,-1.893832813950000089e-03,1.000000000000000000e+00
3.700302050000000009e-01,-2.600956697149999997e+00,5.494090021859999728e-01,-9.403837261119999624e+00,4.828099627049999790e-04,-6.921074353160000525e-03,1.803657040000000017e-03,1.000000000000000000e+00
3.748732399999999965e-01,-2.583605164850000246e+00,5.564334939949999725e-01,-9.410309672000000347e+00,3.688481170679999612e-03,-4.599845968189999502e-03,4.633617587389999952e-03,1.000000000000000000e+00
3.798390890000000186e-01,-2.616937525610000037e+00,5.766388813520000323e-01,-9.431732983779999913e+00,6.100518628950000674e-03,-7.627759128810000441e-03,1.923190429809999843e-04,1.000000000000000000e+00
3.848062640000000090e-01,-2.625382697879999672e+00,5.590747292189999218e-01,-9.398301838820000143e+00,1.233206014150000111e-03,-2.894735662269999534e-03,1.789680216460000188e-03,1.000000000000000000e+00
3.900453179999999742e-01,-2.576372875510000160e+00,5.276211679439999358e-01,-9.451142033130000897e+00,-1.089390087870000141e-02,-4.350498784329999771e-03,-1.156336814170000164e-02,1.000000000000000000e+00
3.948527279999999862e-01,-2.658526842590000161e+00,5.623112634550000433e-01,-9.437622626339999599e+00,-9.091881802310000562e-04,-8.483778685330000194e-03,5.684256087989999345e-03,1.000000000000000000e+00
4.000068600000000196e-01,-2.610719966270000025e+00,5.503739747610000288e-01,-9.435180493889999909e+00,-3.591154236349999949e-03,1.105344109239999977e-02,-9.272153256459999713e-04,1.000000000000000000e+00
4.050122469999999919e-01,-2.634154617870000159e+00,5.410992928719999817e-01,-9.418798098879999969e+00,2.724527847019999737e-03,1.236622454599999943e-03,-9.675003588200000587e-03,1.000000000000000000e+00
4.100427979999999861e-01,-2.652208745479999852e+00,5.885393086339999469e-01,-9.424965973860000901e+00,2.907963935289999916e-03,6.556547246870000380e-03,2.755070105199999408e-03,1.000000000000000000e+00
4.150488480000000258e-01,-2.573045484659999715e+00,5.385019698549999845e-01,-9.420787226869999031e+00,-1.863581710499999985e-03,1.947977347299999999e-03,-8.501880802209999671e-03,1.000000000000000000e+00
4.198557470000000014e-01,-2.603588506959999993e+00,5.420388752770000096e-01,-9.433308270269998630e+00,1.062018517400000091e-02,-5.977314896880000887e-03,-1.515514589850000191e-02,1.000000000000000000e+00
4.248863549999999933e-01,-2.612311034859999825e+00,5.657169437129999645e-01,-9.436539507280000905e+00,7.162721361960000532e-03,7.386722601949999474e-03,-5.579708144069999917e-03,1.000000000000000000e+00
4.298585180000000228e-01,-2.565659173799999859e+00,5.246827764039999620e-01,-9.495376311650000289e+00,2.490610815580000109e-03,1.945022121070000276e-02,-8.008252829309999571e-03,1.000000000000000000e+00
4.348959290000000144e-01,-2.565936237169999856e+00,5.347232915659999586e-01,-9.434614092169999466e+00,6.286696065220000879e-03,-1.659919507799999900e-03,-1.012974139300000000e-02,1.000000000000000000e+00
4.398533709999999930e-01,-2.608533854409999631e+00,5.286093021980000639e-01,-9.460377478979999921e+00,3.029009792949999540e-03,1.134628616270000161e-02,1.451518386599999792e-03,1.000000000000000000e+00
4.448430179999999790e-01,-2.589799635579999926e+00,5.586029469890000376e-01,-9.445244207260000024e+00,-1.231044623999999997e-02,-5.528671201319999493e-03,-1.455260068179999901e-02,1.000000000000000000e+00
4.499161119999999792e-01,-2.632418003340000201e+00,5.048648174629999374e-01,-9.464338199310001087e+00,7.242914754899999752e-03,-2.238627523179999735e-03,-1.977127511050000026e-03,1.000000000000000000e+00
4.550311419999999996e-01,-2.636351543399999997e+00,5.681195113420000053e-01,-9.443071539399999992e+00,7.089990656820000306e-03,1.625961810350000022e-02,8.277313783759999294e-03,1.000000000000000000e+00
4.600446409999999764e-01,-2.595117615729999994e+00,5.003014185369999423e-01,-9.439426460889999149e+00,7.871936075389999315e-03,-1.763043226669999989e-03,4.883072804659999676e-03,1.000000000000000000e+00
4.650941639999999766e-01,-2.577899062170000200e+00,5.122447716460000189e-01,-9.430219072090000765e+00,-6.175209302460000702e-03,9.270190261299998333e-03,-2.908520400520000354e-03,1.000000000000000000e+00
4.698627240000000094e-01,-2.559678345820000089e+00,5.349592557469999843e-01,-9.408321713050000312e+00,4.816567990930000279e-03,-2.392231021080000030e-03,-9.401755407450002044e-03,1.000000000000000000e+00
4.748793119999999979e-01,-2.658100141609999856e+00,5.527436265009999516e-01,-9.435621807909999603e+00,5.290158092979999234e-03,-3.891527187079999589e-03,8.772606030110000064e-03,1.000000000000000000e+00
4.798260200000000197e-01,-2.586208040829999888e+00,5.384251417590000255e-01,-9.428069200580001308e+00,-2.944671548899999939e-03,2.145298011599999777e-02,6.048563402149999789e-03,1.000000000000000000e+00
4.848389080000000129e-01,-2.620229845159999904e+00,4.896093441309999905e-01,-9.450400274850000670e+00,7.293766830120000438e-04,-1.261983718720000036e-02,1.036173198370000183e-04,1.000000000000000000e+00
4.900461050000000096e-01,-2.664762522109999754e+00,5.362426100880000046e-01,-9.414301371989997946e+00,-6.609497126190000058e-03,-1.679778564720000190e-03,2.645311504600000169e-02,1.000000000000000000e+00
4.948424719999999777e-01,-2.561907420049999828e+00,5.517044927120000608e-01,-9.417754142789998895e+00,-1.879240968259999860e-03,6.534817628560000112e-03,-3.790413495150000284e-03,1.000000000000000000e+00
5.000174819999999576e-01,-2.641590320830000227e+00,5.265988026260000066e-01,-9.429700601169999530e+00,-7.054006215180000372e-03,-1.189744006839999965e-02,1.003064773979999921e-02,1.000000000000000000e+00
5.048627940000000036e-01,-2.609175074920000004e+00,5.825468998189999859e-01,-9.419708199469999599e+00,-3.983829636129999734e-03,-9.013411588969998459e-03,1.328942738470000051e-02,1.000000000000000000e+00
5.100090779999999491e-01,-2.585677879479999941e+00,5.823450936370000441e-01,-9.443530389079999310e+00,4.053283482790000333e-04,4.806467331949999637e-03,3.921642433849999686e-03,1.000000000000000000e+00
5.149244640000000262e-01,-2.568943894559999830e+00,5.537781206480000273e-01,-9.440151268039999266e+00,-5.252862814810000357e-03,-3.551313886420000288e-03,-6.888149771839999561e-03,1.000000000000000000e+00
5.200533779999999551e-01,-2.629306885580000142e+00,5.596466473560000043e-01,-9.463076801070000599e+00,2.443561796100000068e-03,1.427763327960000078e-02,-3.985101357100000186e-03,1.000000000000000000e+00
5.250184959999999457e-01,-2.645994401009999830e+00,5.837969364130000116e-01,-9.418140511760000777e+00,4.022249951960000722e-03,-5.169948562980000674e-04,1.134786196049999973e-02,1.000000000000000000e+00
5.298830150000000128e-01,-2.568568046979999853e+00,5.512470312680000095e-01,-9.460236609209999870e+00,-1.634371466929999961e-02,-2.188586071130000157e-02,-2.749822335320000356e-03,1.000000000000000000e+00
5.348597459999999693e-01,-2.595136904949999934e+00,5.632648743850000583e-01,-9.444891156039998847e+00,3.377754706889999833e-03,3.260484198109999884e-03,-1.963471528140000102e-03,1.000000000000000000e+00
5.398744850000000151e-01,-2.595536133410000001e+00,5.358608442289999330e-01,-9.458436281789998290e+00,6.557731423529999937e-03,-4.508846439419999901e-03,-1.097892783579999809e-02,1.000000000000000000e+00
5.448257680000000436e-01,-2.593860309150000099e+00,5.610216255030000543e-01,-9.432699198459999934e+00,2.732891123739999463e-03,9.911165107039999252e-04,-1.511450484399999919e-02,1.000000000000000000e+00
5.500163139999999506e-01,-2.591393919030000159e+00,5.490713311970000232e-01,-9.426358889530000340e+00,1.238752529029999924e-02,-2.759675262500000097e-03,-4.736674949529999512e-03,1.000000000000000000e+00
5.548470760000000501e-01,-2.566643508659999906e+00,5.491172526980000468e-01,-9.439382037230000577e+00,-9.112205589189998614e-04,1.159929484129999973e-02,-2.956295199690000056e-02,1.000000000000000000e+00
5.598628100000000440e-01,-2.671355344499999784e+00,5.479612875959999352e-01,-9.446920031519999483e+00,-1.004215795549999934e-03,-9.341390803459999684e-03,-1.505594141779999923e-02,1.000000000000000000e+00
5.648381730000000545e-01,-2.605156486929999904e+00,6.063635730080000341e-01,-9.420769106699999895e+00,5.311861168590000654e-03,1.976065570489999798e-03,-1.914178207520000202e-02,1.000000000000000000e+00
5.698345889999999470e-01,-2.602844118330000178e+00,5.622143424189999239e-01,-9.424882971749999783e+00,2.432148717339999849e-02,-1.074568275360000130e-02,-9.526696056129999382e-03,1.000000000000000000e+00
5.748594439999999972e-01,-2.599945182020000356e+00,5.633107593539999902e-01,-9.440084632539999632e+00,7.881454192100000380e-03,1.404699496919999992e-02,-6.889828480779999764e-03,1.000000000000000000e+00
5.799998769999999970e-01,-2.608629423730000063e+00,5.229369556499999794e-01,-9.441531908740000034e+00,-1.176510844379999830e-02,1.687556738029999739e-03,-1.114227995279999835e-02,1.000000000000000000e+00
5.848435570000000139e-01,-2.624974701599999793e+00,5.349948750490000071e-01,-9.422537869930000198e+00,-6.273591425269999357e-04,1.596948830410000256e-03,-6.934884469960000269e-03,1.000000000000000000e+00
5.900342750000000525e-01,-2.585849436649999777e+00,5.551119265349999665e-01,-9.432374788809999799e+00,-2.017592079939999842e-03,5.146418698129999816e-05,-2.008267119530000172e-02,1.000000000000000000e+00
5.950061460000000135e-01,-2.616491827669999992e+00,5.241158632360000125e-01,-9.438276121810000419e+00,3.182044718409999650e-03,-2.908578608189999869e-03,-1.482130400839999987e-02,1.000000000000000000e+00
5.998600459999999801e-01,-2.631271755909999843e+00,5.037190814940000205e-01,-9.461768641080000819e+00,1.250789221379999989e-02,3.031524829570000218e-04,-5.886025726799999983e-03,1.000000000000000000e+00
6.048292739999999723e-01,-2.607234462240000106e+00,5.422143049090000222e-01,-9.411927044069999582e+00,1.121466979379999972e-02,-9.203639812770000178e-03,-9.429274126889999885e-03,1.000000000000000000e+00
6.099941439999999604e-01,-2.601274092540000193e+00,5.052041689520000434e-01,-9.421640044310001016e+00,5.584770813579999563e-03,-4.159203730519999732e-03,-8.399203419689998951e-03,1.000000000000000000e+00
6.150117400000000289e-01,-2.659053496809999917e+00,5.255998547160000145e-01,-9.426015190650000264e+00,3.955523483460000184e-03,1.698581036179999757e-04,-8.250193670389999873e-03,1.000000000000000000e+00
6.200481500000000201e-01,-2.643219967859999908e+00,5.290656311310000248e-01,-9.423476027570000468e+00,-3.692311700429999795e-03,-5.870445631440000291e-03,1.549218315630000210e-03,1.000000000000000000e+00
6.248454530000000506e-01,-2.611249835370000216e+00,5.408346140540000180e-01,-9.428965857150000573e+00,1.312615443020000161e-02,2.758118091150000249e-03,6.119031924750000136e-03,1.000000000000000000e+00
6.298051159999999982e-01,-2.596681796309999957e+00,5.085278334820000357e-01,-9.451383440669999914e+00,-2.759179798890000219e-03,-2.475511748339999894e-03,2.962943166489999738e-03,1.000000000000000000e+00
6.350458439999999705e-01,-2.623556066969999989e+00,4.892447851349999710e-01,-9.491061371060000695e+00,2.987665589899999967e-03,1.562319230289999962e-04,4.832474514840000507e-04,1.000000000000000000e+00
6.400574919999999501e-01,-2.614505622289999831e+00,5.396064239650000260e-01,-9.444853746639999770e+00,-1.808362640440000155e-02,-7.029044441880000389e-03,-7.350954692810001030e-03,1.000000000000000000e+00
6.450071579999999694e-01,-2.580635209129999996e+00,5.407279753410000334e-01,-9.444263964050000126e+00,-2.819207962599999933e-03,-2.751717343929999809e-03,-2.207221277059999778e-02,1.000000000000000000e+00
6.500273949999999523e-01,-2.605616797919999783e+00,5.442065016389999732e-01,-9.442743038089998819e+00,7.034820038829999768e-03,-1.450019981709999885e-02,-9.385816752909999922e-03,1.000000000000000000e+00
6.549052779999999796e-01,-2.587736565570000202e+00,5.310337528659999640e-01,-9.455589075660000731e+00,-1.253176364119999936e-03,2.282674796879999649e-02,-8.989637717600000230e-03,1.000000000000000000e+00
6.600635270000000387e-01,-2.600010940729999831e+00,5.395215586939999808e-01,-9.438813297430000304e+00,4.941347520799999928e-03,-1.110043376679999892e-04,-4.685214720670000284e-03,1.000000000000000000e+00
6.650201249999999620e-01,-2.592208158030000043e+00,5.741485258409999570e-01,-9.433574227730000317e+00,-1.814142102380000019e-03,-2.380850538609999636e-02,-1.687456853689999967e-02,1.000000000000000000e+00
6.698585379999999478e-01,-2.615259655530000060e+00,5.643131778619999706e-01,-9.453772966149999846e+00,-9.316413663329999387e-03,-1.092875748869999962e-02,3.318701870739999490e-03,1.000000000000000000e+00
6.749069549999999751e-01,-2.562411277919999897e+00,5.441606166710000192e-01,-9.443091997659999848e+00,1.037106267180000008e-03,-4.565382376310000295e-03,7.544783875350000169e-05,1.000000000000000000e+00
6.798003540000000511e-01,-2.655098037180000148e+00,5.372954801420000148e-01,-9.432063238650000514e+00,8.989245630799998915e-03,-1.688919030129999938e-03,1.903922297059999769e-02,1.000000000000000000e+00
6.847921919999999663e-01,-2.561493578549999928e+00,5.393965806070000202e-01,-9.449793541130000918e+00,1.681185676720000103e-03,-1.204099226740000007e-02,7.959870621560000484e-03,1.000000000000000000e+00
6.900492630000000238e-01,-2.601341897070000186e+00,4.989160651259999524e-01,-9.457623211839999655e+00,2.439680509269999929e-03,8.782579563559999442e-03,1.319441385570000076e-02,1.000000000000000000e+00
6.950128970000000184e-01,-2.593334823970000258e+00,5.465369173480000287e-01,-9.454270394279999934e+00,-6.245909258720000294e-03,-7.811461575330000233e-03,1.230207830669999974e-02,1.000000000000000000e+00
6.998080070000000097e-01,-2.573742234750000080e+00,5.202418713469999512e-01,-9.470664479719999918e+00,3.843788057569999875e-03,-7.439763285219999807e-03,-6.507965736089999604e-04,1.000000000000000000e+00
7.048028990000000382e-01,-2.620308463350000228e+00,5.062868496219999903e-01,-9.432488770580000903e+00,3.297291230410000044e-03,5.223821848629999626e-03,1.190934330220000045e-02,1.000000000000000000e+00
7.099826289999999762e-01,-2.607081025249999851e+00,5.229048434790000144e-01,-9.441776238890000172e+00,-6.265778560189999048e-03,1.460905186829999848e-04,1.113783568139999937e-02,1.000000000000000000e+00
7.149877740000000204e-01,-2.571612236979999633e+00,5.481286069870000555e-01,-9.412216966929999984e+00,5.194946657869999561e-03,-4.374161362649999982e-03,-6.249299272890000354e-03,1.000000000000000000e+00
7.200141450000000498e-01,-2.594171567050000071e+00,5.299109593810000796e-01,-9.457302309319999267e+00,1.050673797729999998e-02,3.342898329719999964e-03,-1.417697593569999977e-02,1.000000000000000000e+00
7.250167880000000231e-01,-2.606236391120000384e+00,5.470516619370000555e-01,-9.404666697679999743e+00,-9.173762053250000131e-03,6.604637950659999514e-03,-2.061769925059999883e-02,1.000000000000000000e+00
7.300080810000000309e-01,-2.640302619109999860e+00,5.086103606669999389e-01,-9.441840536299999087e+00,-1.517418888400000028e-03,1.163156237449999852e-02,-1.518271630630000117e-03,1.000000000000000000e+00
7.350132820000000455e-01,-2.604113699880000077e+00,5.041191867270000682e-01,-9.413037051139999889e+00,1.153676211829999902e-02,1.229533227160000113e-03,-3.307393752039999770e-03,1.000000000000000000e+00
7.400046430000000175e-01,-2.612718738869999946e+00,5.311961768860000710e-01,-9.449242336989998492e+00,1.274559181179999758e-02,7.060572970660002230e-04,3.123071976010000084e-03,1.000000000000000000e+00
7.448167930000000325e-01,-2.619645323270000326e+00,5.171471932680000716e-01,-9.431838782239999830e+00,8.013140177350000384e-05,1.003662683069999999e-02,2.623880282039999737e-03,1.000000000000000000e+00
7.500002279999999910e-01,-2.599648537159999773e+00,5.337373492689999610e-01,-9.435421901430000702e+00,6.150038912890000604e-03,-8.358031511309999689e-03,-3.670052159579999859e-03,1.000000000000000000e+00
7.547987449999999932e-01,-2.617144154100000009e+00,5.431748570369999696e-01,-9.443879348650000338e+00,-1.432611607020000018e-02,-8.311236277220000052e-03,-3.673515748230000446e-04,1.000000000000000000e+00
7.599880150000000167e-01,-2.634538648759999990e+00,5.181344507389999965e-01,-9.458671259589999991e+00,-9.770208038390000224e-03,5.371971055870000157e-03,2.425749320539999972e-03,1.000000000000000000e+00
7.650235029999999936e-01,-2.628836929979999848e+00,5.063103400959999556e-01,-9.449141799219999527e+00,6.792160682379999939e-03,-1.079138368370000101e-02,4.058314021680000175e-03,1.000000000000000000e+00
7.700515289999999569e-01,-2.592448688779999788e+00,5.012732227109999439e-01,-9.470186340810000658e+00,-1.325524412099999974e-03,-4.581526853140000313e-03,1.097686355930000161e-03,1.000000000000000000e+00
7.748190719999999976e-01,-2.576189043379999877e+00,5.358290973839999749e-01,-9.458802192489999427e+00,-8.501233533020000066e-03,-1.611429639159999913e-02,-4.970924463119999644e-03,1.000000000000000000e+00
7.799615519999999469e-01,-2.609565827800000015e+00,5.156308338880000175e-01,-9.461821832569999202e+00,-5.831422284249999574e-03,8.189548738300000616e-03,-9.040355216709999907e-04,1.000000000000000000e+00
7.850156809999999652e-01,-2.636108382290000218e+00,5.553073760419999783e-01,-9.428764781619999980e+00,2.092325594279999962e-04,-3.580625867469999953e-03,-3.062989562750000148e-03,1.000000000000000000e+00
7.900577800000000428e-01,-2.591360601289999899e+00,5.548739530610000692e-01,-9.456576917659999637e+00,-3.889661282300000203e-03,5.717241205279999239e-03,-6.274357438090000412e-04,1.000000000000000000e+00
7.948489850000000079e-01,-2.595681679359999716e+00,5.360597278019999523e-01,-9.442541962560000002e+00,-8.324696682389999894e-03,-1.840057969090000412e-02,-9.542886167760000760e-03,1.000000000000000000e+00
7.998165250000000004e-01,-2.641817407590000055e+00,5.396035744210000429e-01,-9.448324637619998967e+00,-1.009241770949999978e-02,6.416837684810001129e-03,1.423150300979999800e-03,1.000000000000000000e+00
8.048173809999999984e-01,-2.555493169090000016e+00,5.550241386540000210e-01,-9.443176753339999507e+00,7.084898184979999264e-03,-2.496474189679999834e-03,-1.928766630590000170e-02,1.000000000000000000e+00
8.098103269999999965e-01,-2.611477506640000001e+00,5.787044721119999346e-01,-9.453076216060001258e+00,-4.229492507870000022e-03,1.203012280170000226e-02,-8.223535493020000392e-03,1.000000000000000000e+00
8.148002399999999534e-01,-2.598591721580000069e+00,5.287336592300000415e-01,-9.459536351980000646e+00,-3.085618838669999808e-03,3.867431310940000044e-03,-9.640804491940000234e-03,1.000000000000000000e+00
8.199788989999999833e-01,-2.642318927370000292e+00,5.204361883429999835e-01,-9.463720359670000803e+00,-1.067960634829999943e-02,2.082728547980000188e-03,2.011319622400000156e-03,1.000000000000000000e+00
8.250289410000000156e-01,-2.609350431490000233e+00,5.293297984920000143e-01,-9.401513202080000298e+00,-4.482795484359999513e-03,2.481098286810000039e-02,-7.251490838829999577e-03,1.000000000000000000e+00
8.299942359999999963e-01,-2.635442904120000041e+00,5.673641629300000266e-01,-9.397520917579999633e+00,-1.335441134869999862e-03,6.920767016710000115e-03,5.645617377010000819e-03,1.000000000000000000e+00
8.350106560000000178e-01,-2.582621706770000358e+00,5.504550406399999485e-01,-9.428337496119999273e+00,-5.594331887550000422e-04,-3.191099967809999543e-04,-9.791926480830000223e-03,1.000000000000000000e+00
8.399935840000000153e-01,-2.622307235950000148e+00,5.108920418629999682e-01,-9.457187158510000913e+00,3.915121778849999716e-04,6.362437270580000546e-04,3.788972273469999943e-03,1.000000000000000000e+00
8.448135500000000242e-01,-2.560968970149999802e+00,5.266176169239999982e-01,-9.425203874269998394e+00,1.472601201390000107e-02,-5.405319854620000211e-03,-1.189936697479999916e-02,1.000000000000000000e+00
8.499997179999999597e-01,-2.612756148279999913e+00,5.215244950360000686e-01,-9.460039625329999424e+00,-9.317816002289999820e-04,1.878599449990000017e-02,3.608007449659999654e-03,1.000000000000000000e+00
8.550981500000000013e-01,-2.616355634070000047e+00,5.407331629730000033e-01,-9.444330015020000246e+00,6.208413280550000198e-03,6.962375715370000030e-03,1.503043994310000048e-02,1.000000000000000000e+00
8.600066290000000224e-01,-2.580573542070000226e+00,5.552179076600000096e-01,-9.422758819209999359e+00,-6.137911230330000099e-03,8.019653614610000982e-04,4.696191288529999973e-03,1.000000000000000000e+00
8.650231189999999515e-01,-2.560631701020000150e+00,5.349104847019999776e-01,-9.421056106939998287e+00,7.882222533229999578e-03,1.932080835100000171e-02,-1.326083438470000144e-03,1.000000000000000000e+00
8.700741699999999801e-01,-2.611647894769999922e+00,5.267953481110000391e-01,-9.416052599569999515e+00,-3.005247563120000453e-04,-9.404009208080000778e-03,-5.192047450689999191e-03,1.000000000000000000e+00
8.750042759999999697e-01,-2.631580091210000028e+00,5.347512024870000324e-01,-9.461270043909999927e+00,2.623516134920000301e-03,-9.065128397200000743e-04,-1.944193383679999974e-03,1.000000000000000000e+00
8.799941770000000441e-01,-2.617909000990000123e+00,5.562111564819999243e-01,-9.449889402720000220e+00,9.091600077229999768e-04,-9.351672604680000625e-03,1.236872281879999999e-03,1.000000000000000000e+00
8.848384160000000165e-01,-2.633988613660000144e+00,5.410897578580000644e-01,-9.415987717640000199e+00,-2.835266757760000061e-03,-3.723559435460000074e-03,5.829114001239999246e-03,1.000000000000000000e+00
8.900062800000000385e-01,-2.625395557359999632e+00,5.731341246340000417e-01,-9.427882738089998327e+00,-6.668192800130000319e-03,3.081826725969999577e-03,1.406517345459999940e-03,1.000000000000000000e+00
8.948200699999999674e-01,-2.630418646219999879e+00,5.744197074650000401e-01,-9.413787577239999038e+00,-2.893866505469999770e-03,3.419803688299999801e-03,3.236026503150000316e-03,1.000000000000000000e+00
8.998148950000000035e-01,-2.580720549330000058e+00,5.084114040280000024e-01,-9.467975094510000744e+00,-1.285690814260000061e-03,-1.841415069070000046e-03,-3.202139167119999810e-03,1.000000000000000000e+00
9.048063429999999574e-01,-2.608175834749999922e+00,5.444581017799999811e-01,-9.433133498230001024e+00,9.570233523850000742e-03,5.026468075810000720e-03,-4.446094855670000394e-03,1.000000000000000000e+00
9.099724630000000092e-01,-2.624208101140000249e+00,4.932292516610000122e-01,-9.444564408299999769e+00,-8.897889056239999175e-04,3.507196204739999879e-03,2.157867420459999607e-04,1.000000000000000000e+00
9.148154509999999462e-01,-2.573000476470000297e+00,5.131868748019999815e-01,-9.458957675309999757e+00,-7.063314784319998929e-03,-9.769039228559999247e-03,-1.565585844220000094e-03,1.000000000000000000e+00
9.200381460000000011e-01,-2.573874628960000077e+00,5.286373227160000576e-01,-9.460268757910000659e+00,-3.054651431739999895e-03,4.057694226499999890e-03,-2.776259323580000139e-03,1.000000000000000000e+00
9.249977969999999550e-01,-2.628357037509999827e+00,5.205370914339999544e-01,-9.454037754570000729e+00,4.147259518500000242e-03,-9.630154818300000604e-04,-6.682591047139999898e-04,1.000000000000000000e+00
9.299994769999999633e-01,-2.604231188780000039e+00,4.958187566979999628e-01,-9.416233801349999766e+00,4.731510300189999130e-03,2.039831597359999824e-04,-1.250326749869999816e-03,1.000000000000000000e+00
9.350047609999999620e-01,-2.585346455559999868e+00,5.262909057210000130e-01,-9.464463286989998281e+00,-1.343947742129999838e-02,-2.784489421170000152e-03,-6.397972814739999459e-03,1.000000000000000000e+00
9.398189850000000511e-01,-2.566267076559999971e+00,5.453217694049999897e-01,-9.453449141030001002e+00,4.407919477669999635e-03,-2.738630166280000330e-03,-7.680233102290000106e-03,1.000000000000000000e+00
9.448369530000000349e-01,-2.620206172020000057e+00,5.336948618339999451e-01,-9.437961649040000012e+00,5.964453797789999630e-03,1.686017028990000055e-02,-4.437786992640000349e-04,1.000000000000000000e+00
9.497680779999999601e-01,-2.617149414800000073e+00,5.064008313910000059e-01,-9.437298216689999464e+00,-1.420636312100000001e-03,1.750752096999999997e-03,-2.922708401460000216e-03,1.000000000000000000e+00
9.547163290000000302e-01,-2.642059984169999876e+00,5.682049611360000529e-01,-9.440297983029999784e+00,-6.334428908300000554e-04,-2.601137384770000043e-03,1.024449430410000021e-02,1.000000000000000000e+00
9.599750350000000321e-01,-2.577641288010000142e+00,5.351936855569999762e-01,-9.406643550710001023e+00,-5.301926285029999811e-03,1.626540347930000019e-02,-9.656030684709999978e-03,1.000000000000000000e+00
9.647803870000000170e-01,-2.616426361220000274e+00,5.291405960630000127e-01,-9.417438500970000348e+00,-1.004154235120000016e-02,5.307334475220000861e-03,-8.018045686189998605e-03,1.000000000000000000e+00
9.699625269999999633e-01,-2.587245567180000094e+00,5.145172100899999545e-01,-9.441178273000000232e+00,4.591974895449999275e-03,-2.984219230710000344e-03,-6.707147695119998997e-04,1.000000000000000000e+00
9.747360520000000195e-01,-2.594642107179999879e+00,5.289652029640000697e-01,-9.428801021980000030e+00,-3.117827232929999606e-03,-4.556655418129999975e-03,8.237161673610001117e-04,1.000000000000000000e+00
9.799374309999999699e-01,-2.614709912690000415e+00,5.421322891809999822e-01,-9.426027465610001599e+00,-6.745625287289999834e-03,3.705538110810000039e-03,4.121641162780000089e-03,1.000000000000000000e+00
9.848105409999999837e-01,-2.572415662320000074e+00,5.347913153009999920e-01,-9.453163894339999374e+00,1.293436530979999964e-02,1.239852234720000002e-02,-1.851036213340000181e-02,1.000000000000000000e+00
9.897671959999999602e-01,-2.615807937059999588e+00,5.861131044009999513e-01,-9.426539506789998413e+00,5.201428662989999833e-03,-1.038909517229999815e-02,-1.124107092620000095e-02,1.000000000000000000e+00
9.949743519999999508e-01,-2.597102944329999996e+00,5.191413627590000246e-01,-9.464513555879999984e+00,-4.552190192040000451e-03,1.683940412479999899e-03,-8.623211644589999850e-03,1.000000000000000000e+00
9.998089999999999478e-01,-2.600688109340000054e+00,5.324494648830000454e-01,-9.443951829360001327e+00,-6.248521152879999395e-03,-8.173647802319999964e-04,-1.074929721649999989e-02,1.000000000000000000e+00
1.004764294999999974e+00,-2.591138482970000378e+00,5.166676295900000104e-01,-9.468561954480000153e+00,-2.892215736209999711e-03,1.283093541860000006e-02,-2.657048404219999882e-03,1.000000000000000000e+00
1.009765953000000049e+00,-2.622140062690000217e+00,5.527545132219999768e-01,-9.434529336499998919e+00,9.977892972530001334e-03,-1.376731437629999909e-03,5.724813323470000388e-03,1.000000000000000000e+00
1.014826792999999894e+00,-2.595724933980000149e+00,5.526742145269999407e-01,-9.437368943839999247e+00,-6.040941923859999112e-03,-1.925579505040000017e-03,8.564805611969998969e-03,1.000000000000000000e+00
1.019885270000000066e+00,-2.575672910550000250e+00,5.420004429629999843e-01,-9.439288513730000219e+00,1.905491575600000084e-02,-1.112739369270000084e-02,-5.621164105830000687e-03,1.000000000000000000e+00
1.024849590999999949e+00,-2.627854348690000119e+00,5.003340421649999925e-01,-9.443740816960000117e+00,6.873230449859999217e-03,3.803040133790000065e-03,6.450260523710000908e-03,1.000000000000000000e+00
1.029995530999999964e+00,-2.585356684699999796e+00,4.825393326799999882e-01,-9.426547690099999599e+00,6.082169711590000583e-03,-1.766392961140000190e-02,1.137345656750000066e-02,1.000000000000000000e+00
1.035003051999999979e+00,-2.579911571029999795e+00,5.324505973940000247e-01,-9.438370814360000693e+00,1.913757878360000057e-03,-7.921884767710000302e-03,5.372637417170000353e-03,1.000000000000000000e+00
1.039818550999999980e+00,-2.593010998840000081e+00,5.470465473710000026e-01,-9.405925757829999512e+00,6.992810871450000181e-03,-8.352449163790000297e-03,1.157617662099999934e-04,1.000000000000000000e+00
1.044806781999999989e+00,-2.584431971069999889e+00,5.287439248959999727e-01,-9.453885778880000146e+00,-1.112979464229999806e-02,-1.443416066469999960e-02,-3.021627664569999979e-03,1.000000000000000000e+00
1.049786517000000030e+00,-2.581492702740000311e+00,5.032908096120000119e-01,-9.503019519880000487e+00,5.490501411260000075e-03,2.761676209050000202e-03,-6.169949192549999692e-04,1.000000000000000000e+00
1.055006705000000045e+00,-2.618020644680000064e+00,4.799303922899999519e-01,-9.465055992189999046e+00,-7.605242542919999661e-03,-1.075543742630000014e-02,6.242720875889999632e-03,1.000000000000000000e+00
1.059978937999999982e+00,-2.560799166549999839e+00,5.727064372739999465e-01,-9.454536936260000246e+00,4.409945569930000080e-03,2.156818099320000071e-02,-3.090349957350000103e-03,1.000000000000000000e+00
1.065027267000000055e+00,-2.625181914610000167e+00,5.572811968659999726e-01,-9.464177455790000693e+00,1.557360123840000055e-02,3.943126648659999985e-04,3.177577164019999845e-03,1.000000000000000000e+00
1.069833352999999931e+00,-2.616953307700000231e+00,5.345253578419999485e-01,-9.477474744260002026e+00,3.559117205439999744e-03,-2.812095684930000002e-03,1.114498451349999961e-02,1.000000000000000000e+00
1.074893891999999962e+00,-2.581605515470000167e+00,5.432791211290000088e-01,-9.427474157289999823e+00,6.586652249100000307e-03,-1.071315724399999995e-02,1.841941848399999927e-03,1.000000000000000000e+00
1.079825400999999907e+00,-2.606045252459999961e+00,5.404970161300000075e-01,-9.470641683369999342e+00,8.140121353789999195e-04,-1.250886637720000083e-02,9.187061339620002098e-03,1.000000000000000000e+00
1.084813604999999903e+00,-2.543853292440000136e+00,5.476854663289999481e-01,-9.459152321099999483e+00,1.377611514179999906e-02,-2.787666395309999854e-03,-8.391817100350000211e-03,1.000000000000000000e+00
1.089806057999999966e+00,-2.597912799409999973e+00,5.275328320729999465e-01,-9.452928332020000823e+00,1.176529470829999931e-02,8.606966584920000204e-03,-3.941815812139999554e-04,1.000000000000000000e+00
1.094967975999999954e+00,-2.599868317390000350e+00,5.576720958799999961e-01,-9.411057860019999666e+00,8.115102536979999434e-03,-1.116124563849999916e-03,2.806164789940000012e-03,1.000000000000000000e+00
1.099828153999999891e+00,-2.629813373799999798e+00,4.989360850010000070e-01,-9.474291438049998959e+00,1.406605448570000076e-02,7.581448182459999546e-03,7.892265915869998635e-03,1.000000000000000000e+00
1.105016608999999983e+00,-2.574873284609999757e+00,5.566032245390000188e-01,-9.400103919810000264e+00,-8.762076613489999189e-04,8.306049741800001010e-03,-5.304546095430000101e-03,1.000000000000000000e+00
1.109979563000000002e+00,-2.639550631699999705e+00,5.109872093330000142e-01,-9.453120639719999829e+00,9.893352165819999447e-03,-7.519113831219999960e-03,8.534228429199999799e-03,1.000000000000000000e+00
1.114861922000000005e+00,-2.609695591659999980e+00,5.170036200779999369e-01,-9.455977198200001155e+00,1.204387471079999827e-02,-3.997069783509999731e-03,-6.224958226080000261e-03,1.000000000000000000e+00
1.120015248000000074e+00,-2.640292389979999932e+00,4.625713708079999820e-01,-9.417805580710000513e+00,2.669714950029999923e-02,-8.413965813819999917e-03,1.542053185400000083e-03,1.000000000000000000e+00
1.125017383999999954e+00,-2.548131992670000123e+00,5.786883612280000477e-01,-9.437597491900000080e+00,9.112132713200001011e-03,-1.274597831070000027e-02,1.681210007519999853e-03,1.000000000000000000e+00
1.129814934999999965e+00,-2.603418118830000072e+00,5.363188171299999585e-01,-9.411597958250000673e+00,3.520107828079999720e-03,3.852497320619999925e-04,-2.025851048529999851e-03,1.000000000000000000e+00
1.134797374999999997e+00,-2.600975986369999937e+00,5.169748689080000403e-01,-9.430566278089999699e+00,-7.365798112000000210e-03,1.227926462889999785e-02,1.418958790599999902e-02,1.000000000000000000e+00
1.139806209000000070e+00,-2.567601832299999831e+00,4.826081601319999748e-01,-9.426024543010001366e+00,-3.715590573850000022e-03,-7.577206008140000351e-03,9.098285809160000948e-04,1.000000000000000000e+00
1.144824980999999964e+00,-2.701252762369999783e+00,5.350287407859999345e-01,-9.461387532810000778e+00,2.362106461079999803e-03,-1.363328564909999964e-02,3.045401535930000007e-05,1.000000000000000000e+00
1.149804851999999933e+00,-2.669044144949999975e+00,5.836531805610000179e-01,-9.466142618380001039e+00,1.988050900399999932e-02,-4.318812396380000002e-03,-2.846758346999999929e-03,1.000000000000000000e+00
1.155005598000000022e+00,-2.553128193529999646e+00,4.541235681979999828e-01,-9.404189143289999109e+00,-3.424904774870000078e-03,-7.403411436830001141e-04,-5.408327095210000574e-03,1.000000000000000000e+00
1.160006804000000002e+00,-2.686792567609999960e+00,5.636255243909999990e-01,-9.448938385599999989e+00,-1.384972594679999801e-02,5.540506914259999902e-03,-5.477336701010000232e-03,1.000000000000000000e+00
1.165025404999999958e+00,-2.605124630479999759e+00,5.148450903379999666e-01,-9.414168100990000454e+00,-5.427210591729999221e-03,2.770865103230000029e-03,-2.394284820179999867e-03,1.000000000000000000e+00
1.169819755000000017e+00,-2.583129071780000174e+00,5.312876180290000416e-01,-9.434818674839998920e+00,-3.134652972219999743e-03,9.358925744889999218e-03,-6.148646585640000703e-03,1.000000000000000000e+00
1.174849000999999893e+00,-2.643416951740000354e+00,5.219372770880000845e-01,-9.434612923130000439e+00,-1.107855117880000287e-03,2.739346353339999762e-03,-2.423592610280000167e-03,1.000000000000000000e+00
1.179815464000000036e+00,-2.616443896879999897e+00,5.278229741259999885e-01,-9.431777991969999775e+00,7.738812360910000097e-03,4.312631208450000029e-04,-1.975526101890000036e-04,1.000000000000000000e+00
1.184809634000000056e+00,-2.648411106759999800e+00,5.614131821040000414e-01,-9.406425524039999431e+00,-3.656774642880000433e-04,3.698444925249999831e-05,8.879093453290002116e-03,1.000000000000000000e+00
1.189838308999999983e+00,-2.600636379150000010e+00,5.646657541589999996e-01,-9.438938385110001050e+00,-1.393412472680000081e-03,-5.781337618830000372e-03,-1.541971694679999992e-03,1.000000000000000000e+00
1.194889306000000095e+00,-2.627416834049999927e+00,5.577363567549999956e-01,-9.419484327579999317e+00,-3.976547624919999843e-03,1.084508607160000098e-03,-3.828818444159999904e-03,1.000000000000000000e+00
1.199815846999999991e+00,-2.643056009469999967e+00,5.515548551079999529e-01,-9.440169972739999693e+00,1.119991065929999935e-04,9.069025516510001092e-03,9.710112586620000749e-03,1.000000000000000000e+00
1.205017801000000111e+00,-2.562677235379999807e+00,5.706178674970000531e-01,-9.428910912100000985e+00,1.200530119239999992e-02,9.462526999409999820e-03,-8.409152738750000008e-03,1.000000000000000000e+00
1.209833697000000097e+00,-2.640211433700000221e+00,5.468241367920000373e-01,-9.436590945209999859e+00,4.877761472019999898e-03,2.313546137880000044e-03,4.254743456839999924e-03,1.000000000000000000e+00
1.214797337999999893e+00,-2.594753166329999861e+00,5.444546311819999929e-01,-9.432045702989999114e+00,1.604674756529999788e-02,9.207117371259999211e-03,-2.000413369389999856e-03,1.000000000000000000e+00
1.220018752999999956e+00,-2.600155025379999874e+00,5.170035470129999977e-01,-9.438147526999999926e+00,1.072708331049999908e-02,-4.218746908010000303e-03,3.629145212470000323e-04,1.000000000000000000e+00
1.225008920000000057e+00,-2.584295777469999944e+00,5.157167951380000614e-01,-9.448909744030000724e+00,1.058643870060000172e-02,-8.356291800740000414e-03,-4.775578621770000011e-03,1.000000000000000000e+00
1.230028496999999943e+00,-2.617436999570000200e+00,5.636724322730000125e-01,-9.416265365539999266e+00,6.668364163489999726e-03,-7.394766435030000404e-03,-6.606763228770001078e-03,1.000000000000000000e+00
1.234998964000000088e+00,-2.614929985179999861e+00,5.516946654379999426e-01,-9.414590710319998834e+00,-5.715202540160000018e-03,-8.971449919039999749e-03,4.219028167430000087e-03,1.000000000000000000e+00
1.240016798999999947e+00,-2.593819977140000343e+00,5.219602195720000060e-01,-9.425523607749999755e+00,-5.909081548449999881e-03,3.020237898449999563e-03,-9.399617090819999826e-03,1.000000000000000000e+00
1.244973539000000073e+00,-2.644998083449999982e+00,5.052379616240000315e-01,-9.433745492649999065e+00,-1.738747232589999900e-03,-1.802391931409999884e-02,2.927155233919999985e-03,1.000000000000000000e+00
1.249988867999999975e+00,-2.601027424300000224e+00,5.397239128649999884e-01,-9.437379465230000264e+00,-1.780767575839999756e-03,-7.478437386450000578e-03,-1.054744794960000079e-02,1.000000000000000000e+00
1.255014067999999927e+00,-2.598739313359999858e+00,4.993499264989999520e-01,-9.416540090819999875e+00,8.046021684999999420e-04,1.801010454069999940e-03,-9.020343422889999171e-03,1.000000000000000000e+00
1.259982025000000005e+00,-2.602877436079999995e+00,5.383890110000000284e-01,-9.437363683139999182e+00,-2.714951056989999695e-03,-4.934743512419999777e-03,-8.215779671450000295e-04,1.000000000000000000e+00
1.265032482000000069e+00,-2.607490482829999845e+00,5.310434705430000513e-01,-9.473450311049999684e+00,4.919892642649999551e-03,-5.711540579800000739e-03,-5.023356992749999916e-03,1.000000000000000000e+00
1.270008092000000088e+00,-2.613671509550000049e+00,5.459511898819999764e-01,-9.402972753239998482e+00,-7.558491080999999757e-03,-4.301676526670000084e-03,-9.511522017420000891e-03,1.000000000000000000e+00
1.274809172000000101e+00,-2.644773627040000186e+00,5.375322115070000351e-01,-9.428139343199999800e+00,5.697682034220000885e-03,8.339790627359998723e-03,-1.593642868100000193e-02,1.000000000000000000e+00
1.279833229999999933e+00,-2.636861538749999845e+00,5.598248534669999499e-01,-9.445110936269999868e+00,-8.140925317999999841e-03,5.283435806630000162e-03,-3.665976924820000572e-03,1.000000000000000000e+00
1.284822848999999989e+00,-2.601334882809999804e+00,5.671990720289999954e-01,-9.421064290249999473e+00,-8.844712749119999773e-03,8.662378415470000509e-03,-1.368394494059999890e-02,1.000000000000000000e+00
1.289806814000000079e+00,-2.609782685419999915e+00,5.566720154590000247e-01,-9.399580772720000255e+00,4.451813641940000066e-03,1.202625129370000004e-02,-1.822920888659999850e-02,1.000000000000000000e+00
1.295016759999999989e+00,-2.674913036980000047e+00,5.017457355940000419e-01,-9.421998940750000884e+00,-3.947017830799999473e-04,1.097334176299999929e-02,1.299884729090000114e-02,1.000000000000000000e+00
1.299907415000000066e+00,-2.543325176909999819e+00,4.825451048330000048e-01,-9.434304295569999610e+00,3.499800804999999779e-03,-3.663876093920000188e-03,-1.389053277670000003e-02,1.000000000000000000e+00
1.304806828999999890e+00,-2.660535844320000010e+00,4.825313320359999603e-01,-9.438866488920000464e+00,-3.489238442849999918e-04,9.684893302619999346e-05,1.531523279850000030e-02,1.000000000000000000e+00
1.310020905000000013e+00,-2.569548290190000195e+00,4.969426826939999930e-01,-9.431226787820000013e+00,-7.764555513859999931e-03,6.439675576979999976e-03,-1.211237721150000037e-02,1.000000000000000000e+00
1.314881326999999933e+00,-2.605499601280000022e+00,5.303906691899999970e-01,-9.402498705990000261e+00,-1.075687818229999898e-03,-1.180860400200000118e-02,-6.252974271770001154e-03,1.000000000000000000e+00
1.319853490000000074e+00,-2.650293559509999675e+00,5.445773807779999975e-01,-9.436683299660000301e+00,-5.863592959939998954e-03,-2.805653493849999923e-03,-7.379157003020000820e-03,1.000000000000000000e+00
1.324792154000000055e+00,-2.602957807840000193e+00,5.194761476720000104e-01,-9.435222579460001313e+00,-7.878880132919999224e-04,1.074352581049999901e-02,-1.332149840889999826e-02,1.000000000000000000e+00
1.330035419000000108e+00,-2.603885444079999889e+00,5.447320964159999557e-01,-9.400961997939999648e+00,6.739026401190000015e-03,9.198407642540000831e-03,-1.609395258129999937e-02,1.000000000000000000e+00
1.334824502000000024e+00,-2.611064541929999816e+00,5.169783395070000065e-01,-9.440568032139999843e+00,5.311459535729999787e-04,-8.035082370039999325e-03,-7.561695761980000152e-03,1.000000000000000000e+00
1.339780597000000073e+00,-2.600615044109999996e+00,4.966297077549999828e-01,-9.457008294810000493e+00,7.588114123789999922e-03,1.115239318460000024e-02,-6.376625970010000623e-03,1.000000000000000000e+00
1.345047689000000046e+00,-2.627328863509999834e+00,5.240980353190000107e-01,-9.447431488169998559e+00,7.701597642149999971e-03,-5.630414932970000987e-03,4.396432545039999709e-03,1.000000000000000000e+00
1.349782226000000085e+00,-2.581204825709999984e+00,4.943646488990000032e-01,-9.452783955119999248e+00,-1.293643959800000031e-03,6.498964503409999753e-03,-1.530887559060000076e-02,1.000000000000000000e+00
1.354858756999999914e+00,-2.650165841480000228e+00,5.115833485949999870e-01,-9.390639925889999517e+00,4.219972994179999395e-03,2.461533760650000142e-03,-3.895569825539999843e-03,1.000000000000000000e+00
1.359908922000000020e+00,-2.568387429720000004e+00,4.906258642299999861e-01,-9.450712994059999872e+00,7.791570853439998626e-03,-9.394164197149999437e-03,-3.323165234179999497e-03,1.000000000000000000e+00
1.365039697000000052e+00,-2.603979259840000449e+00,5.113196196249999437e-01,-9.412703873659999942e+00,-2.079174853859999672e-03,-3.348454367370000146e-03,-5.121483933179999878e-03,1.000000000000000000e+00
1.369843064999999971e+00,-2.562728381039999892e+00,4.882473350629999986e-01,-9.459610001739999774e+00,-3.164208494129999889e-03,6.908882409330000321e-03,-1.844551600520000223e-02,1.000000000000000000e+00
1.374898637999999895e+00,-2.641910054309999811e+00,4.897507618959999753e-01,-9.428255663060001623e+00,4.378251265729999307e-03,-3.956568427380000030e-03,2.556512132290000069e-03,1.000000000000000000e+00
1.379815440000000004e+00,-2.553437113340000231e+00,5.006159643790000224e-01,-9.399249933330001028e+00,-5.743871442970000310e-03,-1.472284551710000087e-03,-8.608764037489998605e-03,1.000000000000000000e+00
1.384837974000000083e+00,-2.616222947599999848e+00,5.003523815399999464e-01,-9.448058680160000833e+00,5.084171425549999929e-03,-9.186037350449999511e-04,-1.040455512700000015e-02,1.000000000000000000e+00
1.389819966999999989e+00,-2.590211723509999953e+00,5.028535872379999994e-01,-9.425970766989998140e+00,-5.022883880879999707e-03,8.986744098370001016e-03,-1.564904116090000061e-02,1.000000000000000000e+00
1.395027363000000076e+00,-2.627974175669999912e+00,4.519365430150000251e-01,-9.403827908769999411e+00,-1.087957527490000104e-03,-7.323391735549999657e-03,-6.909340620039999305e-03,1.000000000000000000e+00
1.400069197000000099e+00,-2.591613407000000091e+00,4.719996723560000440e-01,-9.417418627220000005e+00,1.609866134820000030e-02,2.471007173880000133e-03,-1.107140444220000228e-02,1.000000000000000000e+00
1.404861461999999950e+00,-2.588395613999999956e+00,4.944746851449999814e-01,-9.434117248570000669e+00,-1.049246825279999927e-02,1.133249420670000111e-02,-1.976204477250000091e-02,1.000000000000000000e+00
1.409809615999999988e+00,-2.596823542870000168e+00,5.356973972959999664e-01,-9.463128238999999553e+00,-7.347710896279999356e-03,8.233726955949999954e-03,-1.897170906890000052e-03,1.000000000000000000e+00
1.414869522999999907e+00,-2.589904264999999928e+00,5.337797271060000792e-01,-9.426173011569998650e+00,1.727255177680000293e-03,-3.722717985509999949e-03,-7.655443623660000002e-03,1.000000000000000000e+00
1.419815137000000060e+00,-2.618672386580000122e+00,5.231815780610000743e-01,-9.411916522680000341e+00,-1.407050713900000020e-02,-5.430305376649999238e-03,3.627290949230000186e-03,1.000000000000000000e+00
1.424808261999999992e+00,-2.581200441800000078e+00,5.217560753029999443e-01,-9.433762443780000950e+00,-1.469129044560000055e-02,2.262103371319999876e-04,2.472271211449999714e-03,1.000000000000000000e+00
1.429811756000000100e+00,-2.554774207169999922e+00,5.503197238229999844e-01,-9.427138641730000046e+00,-1.238818932320000059e-02,2.388976281510000327e-03,-6.421918049450000068e-03,1.000000000000000000e+00
1.434831469999999998e+00,-2.591057526690000223e+00,5.312268642849999889e-01,-9.440852694300000181e+00,4.545063711699999834e-04,-5.536360666160000145e-03,-4.923531785609999885e-03,1.000000000000000000e+00
1.439894873999999936e+00,-2.586283151890000021e+00,5.265545616250000283e-01,-9.437941775289999669e+00,-1.066676154729999902e-02,-1.517041702750000125e-03,-1.443387381730000009e-02,1.000000000000000000e+00
1.444870480999999929e+00,-2.607273040689999988e+00,5.338301421190000395e-01,-9.416875021869998363e+00,-2.253913879390000499e-02,4.648067988460000323e-05,-7.052875123920000246e-03,1.000000000000000000e+00
1.449816173000000097e+00,-2.557920103979999915e+00,5.515879901929999773e-01,-9.416516709950000674e+00,-6.581030786040000316e-03,6.728397682310000710e-03,-1.248651184140000051e-02,1.000000000000000000e+00
1.454929732000000087e+00,-2.626694365000000086e+00,5.098804171349999859e-01,-9.443569552050000482e+00,-3.565622027959999829e-03,2.709910506380000268e-03,-5.198610946540000236e-03,1.000000000000000000e+00
1.460007083999999900e+00,-2.605084298470000004e+00,4.707428041629999615e-01,-9.430181078160000396e+00,-2.323628403250000123e-03,-5.095769651229999607e-03,-8.621854707600001139e-03,1.000000000000000000e+00
1.465079805000000013e+00,-2.626210965389999874e+00,4.768692146210000149e-01,-9.409913950680000028e+00,3.818080760540000073e-03,-3.942477516830000459e-03,-1.804530038499999999e-03,1.000000000000000000e+00
1.470033343000000103e+00,-2.602126617710000200e+00,4.814773294709999707e-01,-9.426685052739999904e+00,-2.192544005810000141e-02,6.360419094560000423e-03,-6.643083877859999251e-03,1.000000000000000000e+00
1.475005871000000024e+00,-2.618753927390000236e+00,5.183957320240000222e-01,-9.413211823180001048e+00,-2.453040704129999874e-02,1.770279742779999957e-02,7.079988252370000498e-03,1.000000000000000000e+00
1.479799354999999927e+00,-2.563138423149999845e+00,5.252861856570000265e-01,-9.448564291589999442e+00,-4.288825439290000442e-04,-9.650231804700001295e-04,-1.608614809809999838e-02,1.000000000000000000e+00
1.485009215000000049e+00,-2.607934427210000017e+00,5.502154231979999865e-01,-9.449104974339999075e+00,-1.799337752160000067e-02,7.024427875880000227e-03,-1.010880712420000188e-02,1.000000000000000000e+00
1.490032427999999909e+00,-2.616533328730000107e+00,4.860957830520000189e-01,-9.437805581689998391e+00,-2.179806120690000112e-02,5.651803221549999215e-04,-1.479322207160000020e-03,1.000000000000000000e+00
1.495041086999999935e+00,-2.589115744969999966e+00,4.978556693530000188e-01,-9.456738830219999059e+00,-8.932322263720000183e-03,4.538300447170000133e-03,-1.102850027379999841e-02,1.000000000000000000e+00
1.500000176999999990e+00,-2.590331842759999947e+00,5.002021228809999664e-01,-9.452544301139999661e+00,-1.202763710170000160e-02,1.345485262570000028e-02,-1.017129607500000081e-02,1.000000000000000000e+00
1.505049764000000012e+00,-2.630868435809999628e+00,5.384039163079999968e-01,-9.445050730510001102e+00,-8.918952196839999985e-03,6.720123812559999910e-03,6.972167175259999473e-04,1.000000000000000000e+00
1.509815442999999924e+00,-2.578739312380000204e+00,5.481096465579999855e-01,-9.422494615310000654e+00,-1.467040833089999774e-02,1.002407446499999945e-02,-1.429036445920000079e-02,1.000000000000000000e+00
1.515057064000000064e+00,-2.601307118020000253e+00,4.862218936500000144e-01,-9.430160619900000540e+00,-1.364818308499999753e-04,-2.344805747269999938e-03,-2.195041999220000151e-02,1.000000000000000000e+00
1.520019532999999923e+00,-2.632767255170000098e+00,4.850990636320000049e-01,-9.414044766880000026e+00,-4.109981004150000186e-03,6.290150340650000824e-04,-3.188137896359999855e-03,1.000000000000000000e+00
1.524868966999999964e+00,-2.575708566390000342e+00,4.416632785419999929e-01,-9.483075633000000337e+00,-2.219627797599999994e-02,2.047036075960000350e-03,-1.092235371470000153e-02,1.000000000000000000e+00
1.529826630000000076e+00,-2.605513337540000141e+00,4.990460847140000267e-01,-9.446710188160000854e+00,-8.782161399719998554e-03,9.759833104909999835e-03,1.139922533179999880e-04,1.000000000000000000e+00
1.535023999999999944e+00,-2.626154266769999968e+00,5.111866774279999470e-01,-9.436002331659999243e+00,-2.551447367300000400e-03,-7.114992476999999066e-03,-1.725652255120000095e-04,1.000000000000000000e+00
1.540049339999999933e+00,-2.584199915880000198e+00,5.253319975610000192e-01,-9.434843224750000701e+00,-2.886406145989999818e-03,6.197009235620000792e-03,-2.210429403929999991e-03,1.000000000000000000e+00
1.544819421999999998e+00,-2.586592656230000120e+00,4.776618263040000034e-01,-9.450828729389998628e+00,6.737239658829999138e-03,-7.295614108439999780e-03,-9.543644264339999975e-03,1.000000000000000000e+00
1.549989233000000022e+00,-2.597141815040000079e+00,4.813248057909999544e-01,-9.428959427409999705e+00,1.627254113549999812e-02,-1.237996015700000042e-02,1.983118243520000032e-03,1.000000000000000000e+00
1.554994320000000041e+00,-2.568173202440000136e+00,5.331972510429999756e-01,-9.475178157749999386e+00,5.244386848060000883e-03,-1.134116947649999908e-02,7.643404882399999767e-03,1.000000000000000000e+00
1.559995811000000066e+00,-2.558524207350000079e+00,6.139039784499999985e-01,-9.499340539109999426e+00,8.090886287390000944e-03,-3.122467920179999856e-02,3.525769338009999976e-03,1.000000000000000000e+00
1.565058118999999914e+00,-2.538189275329999717e+00,5.936331977069999599e-01,-9.488443297519999931e+00,1.331956591460000013e-02,-2.932273223999999970e-02,9.629650041459998644e-03,1.000000000000000000e+00
1.570038776000000080e+00,-2.580504276230000116e+00,5.697053192290000290e-01,-9.525001050060000196e+00,1.710075326260000056e-02,-3.346505016089999784e-02,1.204847171900000000e-02,1.000000000000000000e+00
1.575029427999999898e+00,-2.496760409620000232e+00,5.209386214399999160e-01,-9.503498827830000550e+00,3.488398343319999706e-02,-6.032783538099999870e-02,-1.755906385370000020e-03,1.000000000000000000e+00
1.580038247999999923e+00,-2.521720955609999759e+00,5.418792277359999465e-01,-9.541756954550001169e+00,3.864926472309999916e-02,-5.784304812550000036e-02,1.680569909510000112e-02,1.000000000000000000e+00
1.584922273999999964e+00,-2.534681851729999824e+00,5.506548009960000600e-01,-9.519449845680000521e+00,2.998268790539999895e-02,-8.011317998169999177e-02,5.488808732479998932e-03,1.000000000000000000e+00
1.590044894000000042e+00,-2.581810098130000064e+00,6.011817499229999973e-01,-9.463072124900000048e+00,3.445980697869999859e-02,-9.932190924879999439e-02,6.506713572890000970e-03,1.000000000000000000e+00
1.594838315000000062e+00,-2.635858206920000057e+00,6.347273515750000428e-01,-9.463689380010000818e+00,2.892305329440000156e-02,-1.012043505909999974e-01,-2.205348573629999852e-05,1.000000000000000000e+00
1.599994903000000024e+00,-2.590886846290000101e+00,5.364208527320000197e-01,-9.405250050519999405e+00,3.206054121259999806e-02,-1.025151163340000116e-01,-1.678472757340000038e-02,1.000000000000000000e+00
1.605018528000000000e+00,-2.702493702349999971e+00,3.979893738480000387e-01,-9.349708196039999919e+00,5.169080197809999833e-02,-1.064131185409999958e-01,-1.248437352479999859e-02,1.000000000000000000e+00
1.609840984999999947e+00,-2.729487799990000241e+00,4.513240371389999894e-01,-9.373802188339999120e+00,3.733788058160000117e-02,-1.105799898509999962e-01,2.944453619419999755e-03,1.000000000000000000e+00
1.615048225000000004e+00,-2.642294377449999843e+00,5.391032967490000383e-01,-9.384012616710000643e+00,2.705066092309999642e-02,-7.497553527359999970e-02,-4.655149765310000187e-03,1.000000000000000000e+00
1.620024152999999911e+00,-2.696959741359999718e+00,5.621584475130000369e-01,-9.353953578529999646e+00,2.090899646279999885e-02,-6.372039765119999477e-02,-1.221661269659999986e-02,1.000000000000000000e+00
1.625042102999999960e+00,-2.736149595970000181e+00,4.517550855009999644e-01,-9.339321242060000472e+00,1.106665749099999818e-02,-6.925174593930000233e-02,-1.226936466989999794e-02,1.000000000000000000e+00
1.630021602000000014e+00,-2.708725874729999816e+00,3.979504300770000391e-01,-9.365606022399999731e+00,2.907815948129999911e-02,-6.254624575380000884e-02,-1.886197738350000111e-02,1.000000000000000000e+00
1.635017852000000049e+00,-2.689870367620000202e+00,4.754777967959999962e-01,-9.329954278780000720e+00,1.816896535460000087e-02,-3.343736007809999800e-02,-2.157557569440000239e-02,1.000000000000000000e+00
1.639854874999999934e+00,-2.610339150259999741e+00,5.651644243960000091e-01,-9.378312943760001019e+00,1.272885710930000058e-03,-4.202906042340000259e-02,-2.329025790099999854e-02,1.000000000000000000e+00
1.644831982999999997e+00,-2.790107396129999806e+00,5.994586524580000075e-01,-9.327547217639999388e+00,2.495860308410000061e-02,-5.556278675789999566e-02,-1.169231161479999948e-02,1.000000000000000000e+00
1.649796787000000098e+00,-2.688466053780000031e+00,5.204748033199999568e-01,-9.357422715940000302e+00,3.280272241679999673e-03,-5.049124360079999818e-02,-2.027253992859999812e-02,1.000000000000000000e+00
1.655008398999999963e+00,-2.690490253079999672e+00,4.502872049050000158e-01,-9.362603333450000065e+00,6.718006450680000588e-03,-1.928644627329999944e-02,-3.268242999909999613e-02,1.000000000000000000e+00
1.660048830000000031e+00,-2.729487215469999839e+00,3.956864306679999665e-01,-9.342428560429999251e+00,1.780676771890000185e-03,-1.823027245700000257e-02,-1.648301631210000173e-02,1.000000000000000000e+00
1.665039917000000091e+00,-2.678942438630000034e+00,4.143917521920000291e-01,-9.369550376110000300e+00,-5.737197119739999469e-03,-2.217608690259999932e-02,-1.312661543490000089e-02,1.000000000000000000e+00
1.670026081000000051e+00,-2.681283156540000157e+00,4.055233495489999895e-01,-9.433794592479999963e+00,-4.476230125869999632e-03,-1.724003255370000140e-02,-1.057204883549999960e-02,1.000000000000000000e+00
1.674838384000000069e+00,-2.602077810129999946e+00,5.235897570030000336e-01,-9.382067327859999750e+00,-2.357118949290000487e-02,-8.528131060300000663e-03,-2.905242890120000171e-02,1.000000000000000000e+00
1.680122901000000057e+00,-2.710763518040000264e+00,5.337346458549999673e-01,-9.326083574830001055e+00,-2.850408479570000139e-02,-9.918801486489998986e-03,-1.269980706270000016e-02,1.000000000000000000e+00
1.684850696000000037e+00,-2.725845059580000118e+00,4.918951900460000193e-01,-9.370854444449999932e+00,-2.990471571679999968e-02,-2.655293047429999748e-02,-1.407201401889999863e-02,1.000000000000000000e+00
1.689744606999999954e+00,-2.662756735240000339e+00,4.513342662729999955e-01,-9.363694051299999543e+00,-2.518424391749999811e-02,-2.344882301990000237e-02,-2.170261181890000002e-02,1.000000000000000000e+00
1.694828913999999909e+00,-2.706702844470000091e+00,4.533999300980000036e-01,-9.407323934189999903e+00,-3.082786500450000050e-02,-4.313773475590000454e-03,-1.612735539670000218e-02,1.000000000000000000e+00
1.699827108999999892e+00,-2.618879307329999850e+00,4.736693591340000453e-01,-9.383685868969999788e+00,-3.483010828500000128e-02,1.113450527190000018e-02,-3.316587954759999540e-02,1.000000000000000000e+00
1.705026823000000080e+00,-2.636253343719999975e+00,5.822471131549999956e-01,-9.459981757659999602e+00,-4.092102497820000045e-02,-8.333628997209999514e-03,-1.432976685460000087e-02,1.000000000000000000e+00
1.709839566999999949e+00,-2.530304075040000100e+00,5.317993669439999849e-01,-9.492356671569998738e+00,-2.050951495770000216e-02,-1.868341676890000400e-02,-1.946909539399999806e-02,1.000000000000000000e+00
1.715018837999999990e+00,-2.547648885330000113e+00,5.378679828000000329e-01,-9.348694635090000205e+00,-1.111187692730000037e-02,-1.538306567819999922e-02,-2.527324110269999966e-02,1.000000000000000000e+00
1.720026269000000108e+00,-2.660203251370000022e+00,4.597073962120000190e-01,-9.338875836379999740e+00,-2.504715882240000219e-02,-3.464376553890000099e-02,-1.030726544560000082e-02,1.000000000000000000e+00
1.725006507000000022e+00,-2.625157656949999918e+00,4.441469120520000202e-01,-9.351773896399999231e+00,-5.055744200939999052e-03,-3.060240484770000019e-02,-1.518995873629999833e-02,1.000000000000000000e+00
1.729992562999999928e+00,-2.724600612469999739e+00,5.426150311969999418e-01,-9.407868708589999684e+00,-1.605982705950000089e-02,-4.564619064330000670e-02,-2.185089280830000182e-03,1.000000000000000000e+00
1.735058796999999986e+00,-2.717443141940000029e+00,6.470628823390000006e-01,-9.449270978560001311e+00,-2.331571094690000276e-02,-3.746726363899999940e-02,-1.216187886889999979e-02,1.000000000000000000e+00
1.739755753999999932e+00,-2.661035610540000373e+00,7.515780265629998791e-01,-9.433326390450000432e+00,-1.278109848500000138e-02,-1.808715984229999907e-02,-9.150974452500000231e-03,1.000000000000000000e+00
1.745019778999999938e+00,-2.690964592589999871e+00,7.282141751759999559e-01,-9.389817503589998893e+00,-2.738816663620000091e-02,-2.556410245599999992e-02,2.281494904309999943e-03,1.000000000000000000e+00
1.750013913999999948e+00,-2.660586405470000138e+00,6.399659828800000616e-01,-9.419946684400001047e+00,-1.089193578810000035e-02,1.081773312760000039e-03,-6.209276616569999602e-03,1.000000000000000000e+00
1.754997401000000012e+00,-2.700354352229999755e+00,5.943992501760000380e-01,-9.473702239979999717e+00,-1.869685389099999887e-02,2.367622451860000154e-03,-8.296226151289999920e-03,1.000000000000000000e+00
1.759991378000000051e+00,-2.671912101599999811e+00,6.870549932480000122e-01,-9.474128940960000023e+00,-2.165625803170000141e-03,-5.250247195359999432e-03,-8.261138573290000009e-03,1.000000000000000000e+00
1.765062410999999942e+00,-2.635207341800000158e+00,6.908280089810000524e-01,-9.446965039700000233e+00,-1.402509212490000122e-02,-1.487365737560000095e-02,-2.259737253190000073e-02,1.000000000000000000e+00
1.770001439000000065e+00,-2.780418069029999995e+00,6.295226956039999822e-01,-9.427913133230001463e+00,-5.244805011900000036e-03,-2.189365215600000067e-02,-1.705837063489999694e-02,1.000000000000000000e+00
1.775022295999999944e+00,-2.756472837550000055e+00,5.108184286369999993e-01,-9.403004317420000646e+00,-3.114177845419999723e-03,-1.421906147150000035e-02,-2.710936591029999843e-02,1.000000000000000000e+00
1.780040971000000027e+00,-2.767830974649999831e+00,4.842000324329999716e-01,-9.446373503549999384e+00,1.508278306569999991e-02,-1.257617212829999914e-02,-2.067123167220000224e-02,1.000000000000000000e+00
1.784853025999999954e+00,-2.718458748719999818e+00,5.152477163220000600e-01,-9.430050145260000960e+00,-4.709376022220000506e-03,-1.517013367270000045e-02,-3.668179735540000319e-02,1.000000000000000000e+00
1.789977683000000042e+00,-2.754843190529999930e+00,5.031908198360000029e-01,-9.439006774179999226e+00,1.969440281390000269e-02,1.017328724270000206e-02,-2.205506898459999934e-02,1.000000000000000000e+00
1.794933536999999912e+00,-2.708207403820000359e+00,5.638559721459999174e-01,-9.432699198459999934e+00,1.263311225920000190e-02,3.532126778740000018e-03,-2.398841828109999491e-02,1.000000000000000000e+00
1.799972214000000070e+00,-2.722799700529999534e+00,5.743051777069999586e-01,-9.459233569650001172e+00,-7.208867464210000234e-05,1.798969879750000195e-02,-1.477316208179999847e-02,1.000000000000000000e+00
1.804889232999999926e+00,-2.637200561440000257e+00,6.589098258690000431e-01,-9.418509345069999483e+00,2.614380046729999907e-02,2.001185342670000131e-02,-2.099104039369999869e-02,1.000000000000000000e+00
1.809848920000000083e+00,-2.684188230329999758e+00,6.051074720000000351e-01,-9.455919915049999958e+00,8.706343360250000038e-03,2.364645153279999745e-02,-9.850328788159999280e-03,1.000000000000000000e+00
1.814850566999999915e+00,-2.679096460149999803e+00,6.386620606749999762e-01,-9.447553068719999558e+00,-1.720705069599999916e-03,1.971337944270000128e-02,-2.663926966489999978e-02,1.000000000000000000e+00
1.819968744999999943e+00,-2.725202085500000315e+00,6.509574786249999745e-01,-9.405581474439998146e+00,2.346682362260000317e-03,2.366449497640000024e-02,-2.524973638359999731e-02,1.000000000000000000e+00
1.825021114000000111e+00,-2.748527139250000140e+00,5.794819958229999735e-01,-9.436018698279999839e+00,2.866268530490000133e-02,4.246989265079999937e-02,-3.393501043319999827e-02,1.000000000000000000e+00
1.830010992999999919e+00,-2.720927184659999387e+00,5.994224486329999824e-01,-9.449428799470000584e+00,2.674527652559999941e-02,4.706726223230000422e-02,-3.336335346100000043e-02,1.000000000000000000e+00
1.835027068999999900e+00,-2.733093423270000155e+00,6.640499652360000171e-01,-9.408946566950000090e+00,2.480163052679999758e-02,3.830476850269999567e-02,-3.332566097379999898e-02,1.000000000000000000e+00
1.839866911000000105e+00,-2.710965470350000128e+00,5.614557426039999966e-01,-9.440646942599999036e+00,3.370860591529999811e-02,4.697619751099999658e-02,-4.056913405659999527e-02,1.000000000000000000e+00
1.844870629999999956e+00,-2.706012816379999908e+00,5.497783834880000109e-01,-9.416629522670000085e+00,2.719277143480000256e-02,7.101656496519999362e-02,-5.159850046040000138e-02,1.000000000000000000e+00
1.849841548999999974e+00,-2.728404388670000014e+00,5.018937657630000437e-01,-9.442046288000000231e+00,2.246139571070000091e-02,7.290869951249999426e-02,-3.883595392110000127e-02,1.000000000000000000e+00
1.855016715999999954e+00,-2.687017900789999914e+00,4.914056164310000030e-01,-9.418038220430000607e+00,3.425333276390000320e-02,5.170791596169999754e-02,-4.845636338000000598e-02,1.000000000000000000e+00
1.859842138000000089e+00,-2.669041514599999942e+00,4.887644908050000070e-01,-9.430046053610000811e+00,2.527691051359999899e-02,6.416586786510000695e-02,-4.470399767160000010e-02,1.000000000000000000e+00
1.865039188999999986e+00,-2.630880710770000075e+00,4.740768439559999714e-01,-9.472104741660000826e+00,1.924711652100000170e-02,7.113027572629999906e-02,-5.326056107879999918e-02,1.000000000000000000e+00
1.870021640000000041e+00,-2.668148657410000180e+00,4.659902028080000203e-01,-9.434567914939998801e+00,3.489099815490000200e-02,7.035995274780000586e-02,-3.063214384020000389e-02,1.000000000000000000e+00
1.874872112000000035e+00,-2.616884041859999677e+00,4.596150052210000170e-01,-9.480129058160001065e+00,2.507482096550000053e-02,6.118142232300000094e-02,-2.938917651770000042e-02,1.000000000000000000e+00
1.879841818999999914e+00,-2.593525378109999835e+00,5.110674349620000223e-01,-9.445824637499999454e+00,2.758695185180000051e-02,5.611381679769999326e-02,-4.141321778300000034e-02,1.000000000000000000e+00
1.884836796000000092e+00,-2.641542097779999931e+00,4.732795560989999650e-01,-9.417852926989999318e+00,2.035064622759999789e-02,5.992607399819999819e-02,-3.349949419499999997e-02,1.000000000000000000e+00
1.889833902999999982e+00,-2.633343886010000023e+00,4.766720480809999994e-01,-9.438158048389999166e+00,2.519598789510000061e-02,4.464548081159999682e-02,-2.977647632359999713e-02,1.000000000000000000e+00
1.895040716000000014e+00,-2.606068633340000051e+00,4.732887257859999530e-01,-9.413325804950000375e+00,1.593977957960000108e-02,3.384375199680000196e-02,-3.568838536740000233e-02,1.000000000000000000e+00
1.899880416000000016e+00,-2.666162159769999818e+00,4.861118939370000502e-01,-9.457741869780001309e+00,2.298743464050000129e-02,4.203265160320000110e-02,-2.860593423250000142e-02,1.000000000000000000e+00
1.905021193999999918e+00,-2.602927120440000408e+00,4.589748076210000138e-01,-9.414653254159999207e+00,3.718694299460000019e-02,2.706842310729999992e-02,-3.196975588800000240e-02,1.000000000000000000e+00
1.909809330000000083e+00,-2.610212893529999967e+00,4.378186954110000473e-01,-9.386949254680001076e+00,2.566683292390000218e-02,2.218015678229999857e-02,-3.358691558239999819e-02,1.000000000000000000e+00
1.914813335000000061e+00,-2.671774738959999951e+00,3.901542597750000119e-01,-9.424062887539999878e+00,2.128087542950000272e-02,4.767329618329999713e-02,-3.719048574569999710e-02,1.000000000000000000e+00
1.919999435999999893e+00,-2.659884102409999951e+00,4.186628171069999849e-01,-9.413400623750000307e+00,1.913107559080000006e-02,4.824197664859999901e-02,-2.830849774179999834e-02,1.000000000000000000e+00
1.925042442999999937e+00,-2.600399940049999969e+00,4.544767290169999807e-01,-9.388130573419999791e+00,1.098582986739999809e-02,3.552073612810000003e-02,-3.722947463390000045e-02,1.000000000000000000e+00
1.930034146999999978e+00,-2.601603178359999990e+00,4.445428525669999908e-01,-9.429137122069999322e+00,9.520747698840001036e-03,4.298893734810000505e-02,-3.652286529539999771e-02,1.000000000000000000e+00
1.935021250999999998e+00,-2.600974525069999821e+00,4.145101544070000088e-01,-9.455708902650000525e+00,-5.267669912430000259e-04,2.502049691979999976e-02,-2.667253091930000056e-02,1.000000000000000000e+00
1.939824986999999945e+00,-2.607284146609999631e+00,4.170412803199999852e-01,-9.440081125409999885e+00,6.462670397009999748e-03,2.775968238709999869e-02,-1.600252650680000083e-02,1.000000000000000000e+00
1.944831219000000111e+00,-2.593178172100000012e+00,4.731442392809999675e-01,-9.416654072589999203e+00,-6.844536401329999638e-03,2.528100088239999821e-02,-1.203287579120000152e-02,1.000000000000000000e+00
1.949808814999999917e+00,-2.582541627279999918e+00,4.504296455830000268e-01,-9.429636303760000615e+00,4.242321010680000248e-04,2.223705500360000087e-02,-1.308140344920000024e-02,1.000000000000000000e+00
1.954849716000000015e+00,-2.531412036279999889e+00,4.750287013210000020e-01,-9.468347434949999197e+00,-8.895231410860000507e-03,3.915613144640000404e-02,-3.394244611259999989e-02,1.000000000000000000e+00
1.959819267999999948e+00,-2.619456522700000178e+00,4.704687729950000619e-01,-9.444524076289999570e+00,-7.667152676730000158e-03,1.423165202139999898e-02,-8.708098903299999957e-03,1.000000000000000000e+00
1.964841494000000077e+00,-2.613182264729999815e+00,4.541053384210000377e-01,-9.431072474039998710e+00,-6.370780058209999687e-03,2.956680394709999826e-02,-1.118632405999999899e-02,1.000000000000000000e+00
1.970004273000000028e+00,-2.608795427950000079e+00,4.446643965869999660e-01,-9.425983626469999876e+00,5.439573433250000610e-03,1.223179418589999921e-02,-2.024371176959999935e-02,1.000000000000000000e+00
1.975012640999999958e+00,-2.647132757390000091e+00,4.493000570310000108e-01,-9.438087905760001561e+00,-6.877231411640000007e-03,1.993626542390000006e-02,-7.294307928530000158e-03,1.000000000000000000e+00
1.979889237000000080e+00,-2.609217452759999833e+00,4.255623673630000159e-01,-9.426395714410000792e+00,-1.667767949400000144e-02,3.063688613470000321e-02,-6.533758714799999326e-03,1.000000000000000000e+00
1.984839982000000003e+00,-2.537741823819999798e+00,4.634590768959999663e-01,-9.427909041579999538e+00,9.845641907299999915e-04,3.112733177840000184e-02,-2.054969221350000028e-02,1.000000000000000000e+00
1.989807684000000076e+00,-2.577389359080000109e+00,4.919481258100000254e-01,-9.431880867819998571e+00,5.374821834270000417e-03,7.014781236649999391e-03,-1.107848621899999893e-02,1.000000000000000000e+00
1.994864941999999974e+00,-2.551906250520000086e+00,4.253983724400000055e-01,-9.426528400869999658e+00,-1.740360818799999848e-02,1.400023326279999959e-02,-1.636040396989999965e-02,1.000000000000000000e+00
1.999958944000000072e+00,-2.550278649310000034e+00,4.072357064249999548e-01,-9.457824287370000249e+00,-1.916756853459999910e-02,1.383285224439999989e-02,-1.534557156260000013e-02,1.000000000000000000e+00
2.005022062000000105e+00,-2.550059745870000061e+00,4.276794325819999742e-01,-9.428402962569998991e+00,-2.004055492579999778e-02,3.524018824099999642e-02,-9.959084913129998690e-03,1.000000000000000000e+00
2.009820459000000170e+00,-2.568503165050000092e+00,4.323392410870000035e-01,-9.457038689950000077e+00,-1.353815104809999968e-02,1.196068804709999982e-02,-1.652532257139999877e-02,1.000000000000000000e+00
2.014839767999999864e+00,-2.567524967670000269e+00,4.782113499449999749e-01,-9.506965042639999197e+00,-2.727486379440000400e-02,9.451387450100001003e-03,-1.169410347939999970e-02,1.000000000000000000e+00
2.019871286999999960e+00,-2.585558344749999904e+00,4.928382430500000133e-01,-9.466482225600000078e+00,-9.331548586489999200e-03,1.085091195999999918e-02,1.899907365440000034e-03,1.000000000000000000e+00
2.024833205000000191e+00,-2.519257488110000054e+00,4.895867304410000398e-01,-9.428388934050000003e+00,-1.891486719250000045e-02,-1.384179340679999974e-03,-1.645257882770000124e-02,1.000000000000000000e+00
2.029987520999999795e+00,-2.577590434609999814e+00,4.798592632829999927e-01,-9.458911498080000868e+00,-6.461874116210000220e-03,-1.399789005520000150e-02,-1.250667311250000004e-02,1.000000000000000000e+00
2.035027297000000068e+00,-2.561783793670000087e+00,4.488769362479999581e-01,-9.460250053210000232e+00,-1.800559461120000010e-02,1.151387114079999949e-04,-1.016762200740000018e-02,1.000000000000000000e+00
2.040013002999999880e+00,-2.568027948759999735e+00,5.205656964739999726e-01,-9.434875957979999228e+00,-7.508516777310000022e-03,4.094472154969999549e-03,-1.926891691980000057e-02,1.000000000000000000e+00
2.044842376000000073e+00,-2.574605865840000174e+00,4.873457465809999944e-01,-9.418409976350000434e+00,-1.640368252989999817e-02,-1.377041637900000039e-02,-1.672479510310000139e-02,1.000000000000000000e+00
2.049801371000000039e+00,-2.598295076720000374e+00,4.756283477150000105e-01,-9.415869644219998946e+00,-1.986555755140000101e-02,-5.277320742609998942e-03,-2.415672689679999874e-02,1.000000000000000000e+00
2.055017807000000030e+00,-2.625314893340000122e+00,4.778521612439999844e-01,-9.433779979439998797e+00,-1.838684640819999994e-02,-2.724281139669999796e-02,-1.781572774049999808e-02,1.000000000000000000e+00
2.060012112999999978e+00,-2.590876617159999729e+00,5.803764239119999502e-01,-9.408183181369999204e+00,-1.899249479170000282e-02,-7.361299358310000561e-03,-3.059570491309999973e-02,1.000000000000000000e+00
2.065006202000000179e+00,-2.610399648279999596e+00,5.350033506169999953e-01,-9.419234736729999113e+00,-8.945384994149999103e-03,-1.162109803409999871e-02,-2.222144603730000223e-02,1.000000000000000000e+00
2.070008323999999789e+00,-2.581204241190000026e+00,5.131272170359999496e-01,-9.459411264299999900e+00,-1.314805727449999857e-02,-1.195197179910000018e-02,-1.188962720329999993e-02,1.000000000000000000e+00
2.075011969000000178e+00,-2.556599961289999889e+00,5.666269712300000538e-01,-9.459961299399999746e+00,-9.246650151909998824e-03,-4.378584213550000201e-03,-1.122379302979999854e-02,1.000000000000000000e+00
2.079997751000000061e+00,-2.557486973259999630e+00,4.691636452130000245e-01,-9.455424825010000589e+00,3.379407571630000024e-04,-1.441218703989999989e-02,-1.456065289679999916e-02,1.000000000000000000e+00
2.085029194000000086e+00,-2.582129247080000134e+00,4.837022755120000128e-01,-9.439015541999999925e+00,-1.463303249330000048e-02,-1.687863469120000001e-02,-2.287937328220000094e-02,1.000000000000000000e+00
2.089809048999999863e+00,-2.653961726629999962e+00,4.958497728909999624e-01,-9.426026881089999421e+00,-1.114503480490000066e-02,-2.395696379240000104e-02,-1.458677835759999986e-02,1.000000000000000000e+00
2.095046148999999858e+00,-2.598396783529999698e+00,4.171696924730000089e-01,-9.439103804810001108e+00,-7.116106571630000143e-04,-2.884083613749999914e-02,-2.552763000130000084e-02,1.000000000000000000e+00
2.100004784999999874e+00,-2.602613232179999958e+00,4.016149074009999764e-01,-9.437472404210000221e+00,-1.080856472250000047e-02,-1.401602849360000097e-02,-1.919686608020000282e-02,1.000000000000000000e+00
2.105028960999999921e+00,-2.592072548950000055e+00,4.555765800169999657e-01,-9.382133378829999870e+00,-4.664975218470000795e-03,-1.660936698320000099e-02,-1.222845725719999901e-02,1.000000000000000000e+00
2.109818901000000135e+00,-2.548382752559999798e+00,4.181457344310000046e-01,-9.442963987369999757e+00,-1.507247611880000067e-02,-6.365386769179999862e-03,-2.304861694570000188e-02,1.000000000000000000e+00
2.114837951000000160e+00,-2.561384565220000020e+00,4.873102003429999884e-01,-9.413108362810000074e+00,-5.951919127260001108e-03,-1.921722479159999886e-02,-1.564729586239999720e-02,1.000000000000000000e+00
2.119985976999999799e+00,-2.597419170669999833e+00,4.613040908189999789e-01,-9.413931954149999726e+00,-1.260859053579999750e-02,-1.764010265470000033e-02,-1.388044841589999856e-02,1.000000000000000000e+00
2.125050567000000168e+00,-2.597727798229999774e+00,3.793267954860000124e-01,-9.407094217090000043e+00,-2.730436995629999947e-02,-2.921951375899999731e-02,-1.688609831039999953e-02,1.000000000000000000e+00
2.130030173999999832e+00,-2.506246030840000305e+00,3.337278044800000010e-01,-9.420978365529999010e+00,-6.981905084100000457e-03,-1.422115415329999917e-02,-2.667042054240000015e-02,1.000000000000000000e+00
2.135012426999999935e+00,-2.506267365890000320e+00,4.354988741610000269e-01,-9.478000813959999604e+00,-9.834542870519999772e-03,-2.334712818259999587e-02,-3.263314813379999957e-02,1.000000000000000000e+00
2.140013715999999899e+00,-2.522213415299999983e+00,5.758832772119999444e-01,-9.472025246679999455e+00,-8.516171947119999946e-03,-3.188468143340000144e-02,-2.747092582290000182e-02,1.000000000000000000e+00
2.144797399999999854e+00,-2.585125214030000063e+00,5.215279291019999652e-01,-9.456670441159999996e+00,1.447901013309999940e-03,-3.559107705950000089e-02,-2.238195948299999752e-02,1.000000000000000000e+00
2.149823739999999983e+00,-2.624934077329999838e+00,4.258168901130000017e-01,-9.404401324740000234e+00,-7.509824354200000072e-03,-4.500244185330000424e-02,-2.271627262229999888e-02,1.000000000000000000e+00
2.154823670999999941e+00,-2.634769242640000453e+00,3.783438488639999653e-01,-9.392142731669999023e+00,-9.637652896340000511e-03,-6.285943090920000087e-02,-1.779003255070000025e-02,1.000000000000000000e+00
2.159809732999999898e+00,-2.611469615599999905e+00,4.157993174350000376e-01,-9.464988187650000384e+00,-2.224762924020000365e-02,-3.505293279890000363e-02,-2.820811606940000146e-02,1.000000000000000000e+00
2.165037884999999829e+00,-2.639512053249999823e+00,5.134517362830000042e-01,-9.444685404330000367e+00,-2.420979551969999841e-03,-4.325777292249999989e-02,-1.617797464130000043e-02,1.000000000000000000e+00
2.169997636999999813e+00,-2.540323949270000270e+00,6.069619407600000960e-01,-9.483325223850000540e+00,1.489011454400000203e-03,-4.182694852349999604e-02,-3.752998262640000471e-02,1.000000000000000000e+00
2.174838580999999937e+00,-2.636441852029999922e+00,6.191391756899999876e-01,-9.467881570999999497e+00,-1.191567257049999835e-02,-5.431896075609999458e-02,-3.109810128809999824e-02,1.000000000000000000e+00
2.180012327000000028e+00,-2.539234692730000020e+00,6.642127545820000201e-01,-9.457993798720000456e+00,2.037877030669999964e-02,-4.879468306899999858e-02,-4.423806071280000918e-02,1.000000000000000000e+00
2.185038068999999972e+00,-2.587604463619999962e+00,6.169622700419999939e-01,-9.441814232809999652e+00,3.129209578040000050e-02,-6.231183558700000014e-02,-5.930427834390000763e-02,1.000000000000000000e+00
2.189996253999999976e+00,-2.655544319640000150e+00,5.897025802599999977e-01,-9.438660737219999319e+00,2.812924794850000035e-02,-5.211393535139999950e-02,-4.971975460650000095e-02,1.000000000000000000e+00
2.195026029000000101e+00,-2.585283327199999981e+00,5.655384088079999927e-01,-9.456957441410001053e+00,3.882366418839999778e-02,-5.581958219409999256e-02,-4.507440328599999352e-02,1.000000000000000000e+00
2.199841423000000074e+00,-2.612387022700000117e+00,4.741282088180000520e-01,-9.454998124030000284e+00,4.930303990840000095e-02,-4.628237336869999580e-02,-4.932423681019999784e-02,1.000000000000000000e+00
2.204829281999999946e+00,-2.633419581600000114e+00,4.529904359820000059e-01,-9.436068967160000653e+00,3.878173604609999603e-02,-5.236158892509999718e-02,-5.824008956550000282e-02,1.000000000000000000e+00
2.209824148000000044e+00,-2.689037716179999649e+00,4.335972783240000239e-01,-9.485498476240000088e+00,3.100595064459999925e-02,-4.444751143459999693e-02,-4.818440228700000133e-02,1.000000000000000000e+00
2.214837326000000051e+00,-2.653323428720000265e+00,3.875989858020000289e-01,-9.434304295569999610e+00,3.260156884789999765e-02,-7.049055397509999821e-02,-4.870375245810000531e-02,1.000000000000000000e+00
2.219802077999999845e+00,-2.660439982729999819e+00,4.242995443529999910e-01,-9.447004202669999628e+00,4.067835956810000181e-02,-5.715601891279999819e-02,-3.678282350300000197e-02,1.000000000000000000e+00
2.225003436000000168e+00,-2.594734753890000079e+00,3.949650575900000571e-01,-9.386918275019999314e+00,3.443533182140000315e-02,-6.946538388730000291e-02,-4.142883047459999801e-02,1.000000000000000000e+00
2.230018648999999797e+00,-2.536651398240000077e+00,3.517148947330000497e-01,-9.412191247959999174e+00,3.565659373999999909e-02,-7.624325901269998762e-02,-4.557366669180000496e-02,1.000000000000000000e+00
2.235026994000000045e+00,-2.503214700320000041e+00,2.858235687400000336e-01,-9.454345213080001642e+00,4.146998748180000249e-02,-6.615542620419999353e-02,-5.151117593050000276e-02,1.000000000000000000e+00
2.240031494000000123e+00,-2.482721362870000004e+00,3.251319717009999999e-01,-9.425202705229999367e+00,2.804469503459999791e-02,-8.113013952969999609e-02,-4.007311910390000398e-02,1.000000000000000000e+00
2.245012345000000131e+00,-2.469034198300000149e+00,3.825358937259999426e-01,-9.530340072999999634e+00,2.637640386820000113e-02,-9.781113266939998885e-02,-4.015725851060000101e-02,1.000000000000000000e+00
2.250038725000000017e+00,-2.563967567450000207e+00,5.068023613970000785e-01,-9.502360763710001379e+00,1.435557566579999909e-02,-1.130484789609999957e-01,-3.773092105980000582e-02,1.000000000000000000e+00
2.254834665000000182e+00,-2.606665430190000077e+00,5.452757748390000270e-01,-9.473857138280001422e+00,2.645837701859999821e-02,-1.039557307960000121e-01,-3.698476031419999782e-02,1.000000000000000000e+00
2.259882233999999990e+00,-2.616103120620000055e+00,5.033376444279999973e-01,-9.508234624179999983e+00,1.394533552229999980e-02,-1.274177730080000015e-01,-2.996147982779999788e-02,1.000000000000000000e+00
2.264847747000000133e+00,-2.614166891860000064e+00,5.617058449080000182e-01,-9.515776125599998636e+00,3.455156460400000268e-02,-1.258873790499999978e-01,-4.542632028459999555e-02,1.000000000000000000e+00
2.269830505999999914e+00,-2.637480839690000245e+00,6.030397623480000524e-01,-9.547283024500000437e+00,4.439322277899999947e-02,-1.132932752370000018e-01,-4.567633941769999595e-02,1.000000000000000000e+00
2.274869095000000119e+00,-2.601366739259999949e+00,5.862176607540000584e-01,-9.550693125200000466e+00,4.380368441340000418e-02,-1.357894688840000086e-01,-4.432906955480000327e-02,1.000000000000000000e+00
2.279759501000000022e+00,-2.673700738580000014e+00,4.629936148080000535e-01,-9.520598431189998934e+00,5.636151880030000616e-02,-1.387319415809999956e-01,-3.697331249709999434e-02,1.000000000000000000e+00
2.284797839999999969e+00,-2.686906549370000175e+00,4.237654374759999842e-01,-9.529072245030000943e+00,7.008064538239999752e-02,-1.362601965670000026e-01,-3.665230423209999561e-02,1.000000000000000000e+00
2.289826070999999796e+00,-2.691297770070000261e+00,4.894859004150000081e-01,-9.489331770790000675e+00,6.477634608749999190e-02,-1.535020768639999977e-01,-2.798508852719999718e-02,1.000000000000000000e+00
2.294831383000000002e+00,-2.719755802790000399e+00,4.527876799509999994e-01,-9.505587324540000438e+00,5.748782306909999695e-02,-1.654921621079999960e-01,-4.963789507750000080e-02,1.000000000000000000e+00
2.300041680000000088e+00,-2.769692384609999447e+00,4.953659714289999627e-01,-9.527770514780000255e+00,6.106294691559999849e-02,-1.538104116919999931e-01,-3.882260993120000003e-02,1.000000000000000000e+00
2.305083677999999914e+00,-2.667816356720000392e+00,5.126996392739999742e-01,-9.559612929239998280e+00,7.290593534710000656e-02,-1.632698923349999998e-01,-4.690405353900000546e-02,1.000000000000000000e+00
2.309841608000000157e+00,-2.660385622200000189e+00,4.540678924880000022e-01,-9.587507482859999541e+00,7.073882222180000179e-02,-1.800721287730000231e-01,-4.341237246989999854e-02,1.000000000000000000e+00
2.314819227000000090e+00,-2.660388837070000179e+00,4.286112700720000057e-01,-9.631095280169999384e+00,7.388935238119999360e-02,-1.771256625649999805e-01,-2.556174993519999897e-02,1.000000000000000000e+00
2.320024989000000204e+00,-2.552735979339999961e+00,3.928832098150000229e-01,-9.621167760399998770e+00,6.713379919530000628e-02,-1.895293146370000126e-01,-4.393728822469999962e-02,1.000000000000000000e+00
2.324844065999999820e+00,-2.679897255129999767e+00,3.241428875990000069e-01,-9.605451720350000500e+00,8.668352663519998669e-02,-2.133479416369999937e-01,-1.326241530479999910e-02,1.000000000000000000e+00
2.330047406999999904e+00,-2.570831315740000012e+00,3.927277269919999814e-01,-9.761785606880000188e+00,9.509646892550001340e-02,-2.190617024900000098e-01,-4.299825057390000045e-03,1.000000000000000000e+00
2.335025268999999959e+00,-2.429633915800000210e+00,4.399913267419999774e-01,-9.896127441830000038e+00,1.045009642840000058e-01,-2.494357973339999812e-01,-1.888979040090000422e-02,1.000000000000000000e+00
2.340000840000000082e+00,-2.333997074559999607e+00,5.303237414329999844e-01,-9.977603948029999614e+00,1.020296588539999910e-01,-2.672147750849999670e-01,-4.099138081070000106e-03,1.000000000000000000e+00
2.344919623000000009e+00,-2.286323030850000215e+00,4.711016275379999452e-01,-1.008910851279999932e+01,1.110479533670000046e-01,-2.793500423429999824e-01,-1.729541830719999798e-02,1.000000000000000000e+00
2.350038542000000064e+00,-2.301804531490000194e+00,3.820291132479999852e-01,-1.019571244599999993e+01,1.299100220199999878e-01,-3.674802184100000035e-01,-3.762725042179999695e-03,1.000000000000000000e+00
2.354993659999999878e+00,-2.182004432109999836e+00,3.251051932919999943e-01,-1.027887237520000063e+01,1.431444138290000057e-01,-4.035516679290000464e-01,-8.495790883899999660e-03,0.000000000000000000e+00
2.359919383999999898e+00,-2.203204018130000108e+00,3.319772710189999865e-01,-1.031436454430000005e+01,1.667856723070000047e-01,-4.436070919039999949e-01,-8.426578715439999451e-03,0.000000000000000000e+00
2.364964658999999969e+00,-2.118387699979999983e+00,3.516264857970000102e-01,-1.034113097070000009e+01,1.520993113519999995e-01,-5.031242370610000680e-01,-3.017569193620000135e-03,0.000000000000000000e+00
2.370021797999999791e+00,-1.875254504789999999e+00,5.718358284519999835e-01,-1.074644429420000158e+01,1.830620169640000128e-01,-5.436570644379999928e-01,3.289109468459999741e-02,0.000000000000000000e+00
2.374841470999999871e+00,-1.234451924960000113e+00,6.423825425029999758e-01,-1.111477024160000049e+01,2.663403451440000125e-01,-6.094113588330000164e-01,8.203008770939999861e-02,0.000000000000000000e+00
2.380037023999999946e+00,-1.494806157929999824e+00,9.031832771340000399e-01,-1.108390982390000090e+01,3.827884197240000175e-01,-6.793093085289999555e-01,8.793603628869998967e-02,0.000000000000000000e+00
2.385024888999999870e+00,-1.262757543600000032e+00,1.179657381720000009e+00,-1.117454812619999949e+01,5.081176161770000199e-01,-7.847630381579999703e-01,1.278688013550000058e-01,0.000000000000000000e+00
2.390008919000000009e+00,-1.307753746409999973e+00,1.372987850599999948e+00,-1.157255492619999870e+01,5.782589316370000398e-01,-9.352032542229999912e-01,1.173029318449999997e-01,0.000000000000000000e+00
2.395043462999999928e+00,-1.579224124420000042e+00,1.484364843420000080e+00,-1.160095450670000083e+01,6.356515288349999793e-01,-1.090134620669999999e+00,1.028418540949999904e-01,0.000000000000000000e+00
2.400039313000000174e+00,-2.117564985420000045e+00,2.344565522589999951e+00,-1.249713060849999913e+01,6.893216371539999665e-01,-1.211933612820000006e+00,7.162768393749999185e-02,0.000000000000000000e+00
2.405017694000000095e+00,-1.371797983230000073e-01,2.360046000320000115e+00,-1.235404081890000150e+01,8.152120113369999421e-01,-1.405649662020000301e+00,5.198693275449999679e-02,0.000000000000000000e+00
2.409903309000000160e+00,4.137890370589999978e-01,2.143213221420000369e+00,-1.285522274660000086e+01,9.640321135519999141e-01,-1.569075822829999911e+00,3.136287257079999752e-02,0.000000000000000000e+00
2.414821009000000185e+00,5.438685383889999558e-01,1.489422857459999916e+00,-1.331970722099999982e+01,1.086278796200000007e+00,-1.767201542849999862e+00,-6.676360499109999097e-03,0.000000000000000000e+00
2.419930774000000007e+00,3.605533771620000327e-01,1.494266936489999864e+00,-1.324205231890000078e+01,1.146058440210000029e+00,-2.174632787700000236e+00,-3.195885568859999776e-02,0.000000000000000000e+00
2.424837013999999957e+00,7.203601006750000035e-01,1.751784923120000004e+00,-1.335985452249999916e+01,1.093054294589999920e+00,-2.573085308070000021e+00,-1.246778965000000100e-01,0.000000000000000000e+00
2.429848123000000193e+00,4.012225105500000222e-01,1.583811452210000192e+00,-1.329469786750000004e+01,1.012390613560000041e+00,-3.044348001479999954e+00,-2.634508609769999898e-01,0.000000000000000000e+00
2.435033943000000090e+00,7.293890641739998737e-02,1.483273687179999856e+00,-1.307102822829999944e+01,9.904603362080000029e-01,-3.382560968399999535e+00,-3.682636618610000134e-01,0.000000000000000000e+00
2.440016529000000212e+00,-2.854418394129999981e-01,1.196897708720000120e+00,-1.276057228609999861e+01,9.879871010780000296e-01,-3.714004278180000007e+00,-4.361870288849999944e-01,0.000000000000000000e+00
2.444853396000000068e+00,-9.889978125419999211e-01,1.036879434589999871e+00,-1.251079789929999997e+01,1.097983479500000081e+00,-3.954467058180000105e+00,-4.187640547750000053e-01,0.000000000000000000e+00
2.449823658000000126e+00,-1.783454611370000054e+00,8.074753434170000022e-01,-1.236353579250000045e+01,1.269052982329999857e+00,-4.113392353060000062e+00,-3.433437049390000162e-01,0.000000000000000000e+00
2.454991857000000000e+00,-2.332734215019999890e+00,-7.605318767170000070e-03,-1.218173662529999923e+01,1.464182257649999874e+00,-4.253542900090000245e+00,-2.262542843820000149e-01,0.000000000000000000e+00
2.460003919000000039e+00,-2.321838142470000310e+00,-9.685766635430000937e-01,-1.223598142569999858e+01,1.741613745690000048e+00,-4.385451793669999709e+00,-2.730617858469999715e-02,0.000000000000000000e+00
2.464936551000000087e+00,-3.035624417720000245e+00,-8.176615871929999724e-01,-1.199236906869999864e+01,2.015368700029999793e+00,-4.538653850560000258e+00,1.785113215449999902e-01,0.000000000000000000e+00
2.469992930000000086e+00,-3.664178925869999492e+00,-9.876203136440000474e-01,-1.194647825520000062e+01,2.263438463209999973e+00,-4.593960285189999659e+00,4.008589684960000010e-01,0.000000000000000000e+00
2.474920946000000122e+00,-3.827913444049999558e+00,-2.622183025050000005e+00,-1.206124912820000006e+01,2.528177022930000017e+00,-4.660897731780000441e+00,6.011894941330000464e-01,0.000000000000000000e+00
2.479833778999999794e+00,-4.886166067669999613e+00,-2.865184264420000293e+00,-1.213988368900000125e+01,2.743639230729999934e+00,-4.727967739110000345e+00,7.853682041169999239e-01,0.000000000000000000e+00
2.485038019000000098e+00,-5.855236433009999963e+00,-2.708956760880000036e+00,-1.305660105900000012e+01,2.872536897659999866e+00,-4.659248828890000027e+00,9.485467672349999768e-01,0.000000000000000000e+00
2.489830357999999855e+00,-5.414992665880000722e+00,-3.186497408490000183e+00,-1.271203475739999966e+01,2.923500776290000047e+00,-4.615849018099999590e+00,1.053735613820000250e+00,0.000000000000000000e+00
2.495012562999999961e+00,-6.772032128980000287e+00,-4.482255888940000155e+00,-1.292703009170000072e+01,2.910567283629999835e+00,-4.502155780789999895e+00,1.140917181970000138e+00,0.000000000000000000e+00
2.500011456000000187e+00,-7.468306420669999390e+00,-5.794430374390000082e+00,-1.364798640470000102e+01,2.797318935390000316e+00,-4.372235298159999672e+00,1.233636498449999896e+00,0.000000000000000000e+00
2.505008774000000216e+00,-7.969155755410000097e+00,-5.059815538389999645e+00,-1.408336519619999905e+01,2.595289468769999885e+00,-4.243173599240000371e+00,1.280813574790000020e+00,0.000000000000000000e+00
2.509832145999999931e+00,-7.994478412710000370e+00,-4.417568020450000077e+00,-1.189165243999999966e+01,2.378163814540000143e+00,-4.093121528630000228e+00,1.341680407519999951e+00,0.000000000000000000e+00
2.514796496000000214e+00,-7.766296849069999730e+00,-2.753429524339999990e+00,-1.532212723940000032e+01,2.280933856959999950e+00,-3.918578863140000035e+00,1.270373463629999922e+00,0.000000000000000000e+00
2.519731785999999918e+00,-9.520972525199999481e+00,-1.908037122720000145e+00,-1.526573490559999868e+01,2.405482530590000056e+00,-3.564208507540000070e+00,1.177379250529999810e+00,0.000000000000000000e+00
2.524897096000000118e+00,-9.484958962529999482e+00,-3.454767236889999982e+00,-1.542053968279999943e+01,2.585634946819999946e+00,-3.008429765699999869e+00,1.094598293300000025e+00,0.000000000000000000e+00
2.529723327000000133e+00,-9.318030032230000259e+00,-4.539547801949999517e+00,-1.683567536109999807e+01,2.619998931880000104e+00,-2.342000246050000012e+00,1.036114454270000040e+00,0.000000000000000000e+00
2.534753357000000040e+00,-5.597048438159999861e+00,-5.670574277619999215e+00,-1.573666782549999965e+01,2.324649095540000321e+00,-1.620528459550000022e+00,1.091944694519999981e+00,0.000000000000000000e+00
2.539848591000000155e+00,-8.891989562500000055e-01,-6.525602376460000187e+00,-1.523283216839999987e+01,1.835028290749999957e+00,-1.014153838159999932e+00,1.037071585659999906e+00,0.000000000000000000e+00
2.544846378999999992e+00,2.096644070209999988e+00,-6.474261480800000079e+00,-1.315814420170000076e+01,1.295654892920000023e+00,-5.914813280110000626e-01,9.751260876659999521e-01,0.000000000000000000e+00
2.549823679999999815e+00,2.484541271769999948e+00,-7.060760223519999990e+00,-8.703238091970000312e+00,7.512925863269999116e-01,-4.677190482620000034e-01,9.745032191279999756e-01,0.000000000000000000e+00
2.554849443000000164e+00,8.508275784100000072e-01,-5.549267280809999647e+00,-9.581582184460000207e+00,3.609461784359999648e-01,-6.565940976140000052e-01,9.353325963019999412e-01,0.000000000000000000e+00
2.559856732000000079e+00,-6.717823861189999857e-01,-2.639282043890000207e+00,-1.218723346920000061e+01,1.434896290299999821e-01,-6.035442352290000256e-01,9.127027988429999850e-01,0.000000000000000000e+00
2.564850503999999809e+00,7.208901158980000057e-01,1.104376296089999987e-01,-1.250278527319999888e+01,8.835956454280000094e-02,-4.544066786770000199e-01,8.434032201769999793e-01,0.000000000000000000e+00
2.570021677000000171e+00,1.083363391739999848e+00,1.834506753209999896e+00,-1.112600124519999945e+01,2.658630311490000064e-01,-1.608427762989999843e-01,8.498145937919999726e-01,0.000000000000000000e+00
2.574902389000000014e+00,1.731828176770000116e+00,1.669424912079999990e+00,-9.315067675299999905e+00,4.869908690449999966e-01,1.270436346530000038e-01,8.604635000229999831e-01,0.000000000000000000e+00
2.579838057999999990e+00,1.387210875609999894e+00,9.911218189589999783e-01,-8.503091951720000097e+00,7.548630237579999624e-01,4.158357381819999810e-01,1.081981062889999956e+00,0.000000000000000000e+00
2.584856207000000072e+00,1.894635058700000041e+00,4.251250353909999946e-01,-8.706744054260001420e+00,9.566964507100000903e-01,6.064233779909999900e-01,1.281210422520000058e+00,0.000000000000000000e+00
2.589849037000000020e+00,2.291490058219999959e+00,5.462168550810000411e-01,-8.922440230339999445e+00,1.003684163089999970e+00,6.183689832690000276e-01,1.385388016699999891e+00,0.000000000000000000e+00
2.594899030000000106e+00,1.911084381460000037e+00,1.855886225849999738e-01,-8.637028128480000788e+00,9.722954630850000335e-01,6.476863026620000019e-01,1.390881061550000020e+00,0.000000000000000000e+00
2.599986780000000053e+00,1.916443862659999775e+00,-1.558090954690000141e-01,-8.366107493310000365e+00,8.727228045460000416e-01,6.807870864870000371e-01,1.393117666239999775e+00,0.000000000000000000e+00
2.605036017999999842e+00,1.606433764509999973e+00,-3.419291945819999956e-01,-8.380178104229999647e+00,7.798103690150000045e-01,8.534002900120000179e-01,1.450042366979999775e+00,0.000000000000000000e+00
2.609813484000000017e+00,1.103561107250000006e+00,-1.306759967860000038e-01,-8.595770235419999850e+00,7.025095224380000225e-01,1.036864519120000105e+00,1.567925930020000136e+00,0.000000000000000000e+00
2.614978409999999975e+00,9.385134606470000307e-01,2.870828480859999865e-01,-8.509500065199999241e+00,6.242923736569999660e-01,1.215309619899999971e+00,1.673075079920000041e+00,0.000000000000000000e+00
2.620052086999999919e+00,8.763603713339999102e-01,6.078326226469999982e-01,-8.487811380480000167e+00,5.941714048389999947e-01,1.367227077479999942e+00,1.727284908290000365e+00,0.000000000000000000e+00
2.624839833999999872e+00,8.867251134819998937e-01,1.276467650649999896e+00,-8.381669219569999996e+00,5.979644060130000494e-01,1.524899363519999884e+00,1.716127753260000111e+00,0.000000000000000000e+00
2.630049995999999890e+00,8.508035399469999760e-01,1.681407026300000052e+00,-8.053571822200000341e+00,6.309068799020000062e-01,1.635757923129999902e+00,1.716015338899999909e+00,0.000000000000000000e+00
2.635044355999999866e+00,7.684668367179999793e-01,1.707193063330000093e+00,-7.741982492030000884e+00,7.120247483249999565e-01,1.724822044369999974e+00,1.690424919129999815e+00,0.000000000000000000e+00
2.640042848000000220e+00,7.080692127699999006e-01,1.601434056530000039e+00,-7.613324547929999575e+00,7.891346216200000319e-01,1.877185583109999945e+00,1.674282789229999846e+00,0.000000000000000000e+00
2.644858216999999900e+00,5.512639824030000080e-01,1.473074949250000154e+00,-7.501235461319999409e+00,8.377730846410000876e-01,2.035030364990000340e+00,1.697257161140000026e+00,0.000000000000000000e+00
2.649822835000000154e+00,6.217715700199999418e-01,1.431846136150000115e+00,-7.351780228390000005e+00,8.675526380539999582e-01,2.159542322160000083e+00,1.644639849659999875e+00,0.000000000000000000e+00
2.654904519000000018e+00,6.827440712469999839e-01,1.453516408429999851e+00,-7.172619593029999407e+00,8.816702961920001025e-01,2.237653970719999830e+00,1.576515555379999878e+00,0.000000000000000000e+00
2.659886902999999858e+00,6.881188230879999868e-01,1.398892107180000011e+00,-7.035474391089999280e+00,8.719083070759999776e-01,2.271769046780000245e+00,1.492096304890000003e+00,0.000000000000000000e+00
2.664870468999999797e+00,5.595770161849999980e-01,1.325375912339999962e+00,-6.933919557979999482e+00,8.710502982140000405e-01,2.291849374769999947e+00,1.395639300350000056e+00,0.000000000000000000e+00
2.670047106999999809e+00,2.664012945850000036e-01,1.406852856929999840e+00,-7.097232051349999793e+00,8.378322720530000378e-01,2.333492755890000048e+00,1.331857800479999909e+00,0.000000000000000000e+00
2.674873180000000072e+00,5.014474467669999963e-02,1.688493039039999921e+00,-7.237035658839999108e+00,8.302046060559999940e-01,2.391068458559999943e+00,1.242951512339999898e+00,0.000000000000000000e+00
2.679890834000000055e+00,-2.677267345019999634e-01,2.094579685029999805e+00,-7.319633278019999523e+00,8.179181218150000099e-01,2.467830181120000077e+00,1.145737528800000016e+00,0.000000000000000000e+00
2.684861955000000133e+00,-4.395966648690000089e-01,2.372668604390000269e+00,-7.289760702330000619e+00,8.281685709949999641e-01,2.536113023760000029e+00,1.038774967189999954e+00,0.000000000000000000e+00
2.689858323000000162e+00,-6.464214426300000094e-01,2.551934307569999838e+00,-7.397188226869999106e+00,8.657943010330000355e-01,2.584391593929999953e+00,9.542607069020000443e-01,0.000000000000000000e+00
2.695086878000000130e+00,-6.118860627570000821e-01,2.747968920839999996e+00,-7.405774268910000124e+00,8.986333608630000525e-01,2.634260654449999794e+00,8.744809031489999551e-01,0.000000000000000000e+00
2.700041278000000045e+00,-8.046307676410000553e-01,2.870174327799999592e+00,-7.492514394730000582e+00,9.367337822910000167e-01,2.674186944959999757e+00,8.311820626260000289e-01,0.000000000000000000e+00
2.705030910000000066e+00,-8.295257010529999420e-01,2.866132943450000248e+00,-7.581891883310000857e+00,9.268420934679999501e-01,2.724723100659999897e+00,7.586022019390000759e-01,0.000000000000000000e+00
2.709873700000000163e+00,-1.026415031460000016e+00,2.882177777059999890e+00,-7.711430701900000351e+00,9.346207976340000778e-01,2.745234012600000106e+00,7.135826349259999368e-01,0.000000000000000000e+00
2.714803038999999973e+00,-1.207147446190000029e+00,2.982496346380000052e+00,-7.866282825429999903e+00,8.985383510590000400e-01,2.794395923610000221e+00,6.822709441179999335e-01,0.000000000000000000e+00
2.719928676999999961e+00,-1.398383280880000079e+00,3.128132021019999875e+00,-8.042826556299999652e+00,8.668323159219999408e-01,2.822392702099999706e+00,6.256659030910000086e-01,0.000000000000000000e+00
2.724971743999999862e+00,-1.712208699539999879e+00,3.266924405640000195e+00,-8.195918684430001377e+00,8.250389695170000648e-01,2.850196599959999855e+00,5.934598445889999185e-01,0.000000000000000000e+00
2.730000604000000219e+00,-2.006328862380000189e+00,3.303811244009999815e+00,-8.429097325700000809e+00,7.856380939480001047e-01,2.864133834840000059e+00,5.908848643299999814e-01,0.000000000000000000e+00
2.734971326999999786e+00,-2.387574204840000380e+00,3.451509111880000091e+00,-8.566696116619999302e+00,7.320271730419999345e-01,2.911003112790000458e+00,5.843368768689999326e-01,0.000000000000000000e+00
2.739814865000000044e+00,-2.674901346540000002e+00,3.661545070239999866e+00,-8.729000309730000851e+00,7.072723507879998817e-01,2.921787261959999604e+00,5.946779847149999965e-01,0.000000000000000000e+00
2.744797977000000166e+00,-2.919353953770000398e+00,3.832388543640000034e+00,-8.887249089970000071e+00,6.929321289059999778e-01,2.956637620930000043e+00,5.975819826129999957e-01,0.000000000000000000e+00
2.749783148000000121e+00,-3.299071940529999747e+00,4.004517965189999806e+00,-9.058147508419999383e+00,6.883589029309999940e-01,2.978346824649999558e+00,6.326400637629999713e-01,0.000000000000000000e+00
2.754774583000000110e+00,-3.628495325809999894e+00,4.246151715599999932e+00,-9.186569305680000852e+00,6.817291975020000061e-01,2.986223220829999914e+00,6.523010134699999130e-01,0.000000000000000000e+00
2.760001245999999853e+00,-4.006295788520000123e+00,4.371388745339999993e+00,-9.162353732830000652e+00,7.291867733000000351e-01,2.995798587799999524e+00,6.771242022510000069e-01,0.000000000000000000e+00
2.765023833999999958e+00,-4.291283527490000083e+00,4.437131675829999899e+00,-9.252824277349999349e+00,7.342951893809999131e-01,3.000219583510000287e+00,6.899760365489999714e-01,0.000000000000000000e+00
2.769803806000000090e+00,-4.579117303540000350e+00,4.496513546870000155e+00,-9.216996592639999264e+00,7.741401195529999946e-01,2.991913795469999915e+00,7.379240989690000196e-01,0.000000000000000000e+00
2.774773215999999820e+00,-4.742661559840000152e+00,4.447482389460000185e+00,-9.334570832669999874e+00,7.981491684909999274e-01,2.981246471409999543e+00,7.621092200280000784e-01,0.000000000000000000e+00
2.779848163000000039e+00,-5.025875274869999743e+00,4.363378165100000317e+00,-9.396658747789999211e+00,8.087030053139999675e-01,2.963727474210000157e+00,7.961451411250000110e-01,0.000000000000000000e+00
2.784970246999999954e+00,-5.273094716459999276e+00,4.336885879489999596e+00,-9.404383789080000611e+00,8.005675077439999843e-01,2.931511640550000131e+00,8.226341605189999573e-01,0.000000000000000000e+00
2.789778112000000032e+00,-5.397283990710000090e+00,4.187835720229999836e+00,-9.365176398810000080e+00,7.873185276989999037e-01,2.881141185759999779e+00,8.424736857410000113e-01,0.000000000000000000e+00
2.794789485999999989e+00,-5.575395993799999950e+00,3.994168128349999680e+00,-9.381210418769999393e+00,7.581300735470000163e-01,2.838716506959999997e+00,9.020398855210000066e-01,0.000000000000000000e+00
2.799951040999999918e+00,-5.631039555090000981e+00,3.816745861080000246e+00,-9.558826162780000857e+00,7.223711013789999580e-01,2.798163175579999606e+00,9.669435024259999123e-01,0.000000000000000000e+00
2.804802239999999891e+00,-5.518763421480000098e+00,3.652628481069999822e+00,-9.788485982280000997e+00,6.570726633069999822e-01,2.758645772930000017e+00,1.025047898289999981e+00,0.000000000000000000e+00
2.809751070999999989e+00,-5.615186152399999742e+00,3.469716676480000039e+00,-9.914624052509999785e+00,5.749374032020000413e-01,2.706381797790000654e+00,1.106212139129999938e+00,0.000000000000000000e+00
2.814729723000000128e+00,-5.616874836140000049e+00,3.179410080579999853e+00,-1.007168859139999917e+01,4.624871015550000020e-01,2.653973102570000187e+00,1.173584699629999895e+00,0.000000000000000000e+00
2.819659796999999912e+00,-5.634423352309999800e+00,2.765736048199999964e+00,-1.055789857539999943e+01,3.663282096389999798e-01,2.579260826109999627e+00,1.290245652200000093e+00,0.000000000000000000e+00
2.824747531999999950e+00,-5.849824344830000022e+00,2.618273158130000056e+00,-1.117461242369999930e+01,2.647990584369999678e-01,2.519381761550000043e+00,1.428819060329999946e+00,0.000000000000000000e+00
2.829762808999999990e+00,-6.358119319410000081e+00,2.821466995509999798e+00,-1.169930382180000095e+01,1.931813359259999807e-01,2.489653110499999933e+00,1.546944260600000121e+00,0.000000000000000000e+00
2.834816589999999970e+00,-7.012783835860000536e+00,3.148110102429999557e+00,-1.174143966670000161e+01,1.457590013739999968e-01,2.513527393340000415e+00,1.674757242199999885e+00,0.000000000000000000e+00
2.839867570000000008e+00,-7.358223413180001060e+00,3.299755538879999950e+00,-1.169662320439999981e+01,1.334727257489999874e-01,2.549276828770000058e+00,1.783796310419999864e+00,0.000000000000000000e+00
2.844646793999999979e+00,-7.378079621769999541e+00,3.306546514190000341e+00,-1.161335104690000009e+01,1.306039094920000143e-01,2.662294864650000203e+00,1.890388727190000173e+00,0.000000000000000000e+00
2.849582033999999986e+00,-6.902419088819999438e+00,3.118922878650000285e+00,-1.152631106140000128e+01,1.815915554760000050e-01,2.787063121800000154e+00,1.993499040599999939e+00,0.000000000000000000e+00
2.854537141999999861e+00,-6.572508504540000018e+00,2.798597576579999746e+00,-1.142219602239999965e+01,2.112410366539999862e-01,2.872388362879999768e+00,2.114332675930000072e+00,0.000000000000000000e+00
2.859534662999999810e+00,-6.100044721809999793e+00,2.464660220999999929e+00,-1.121823646130000185e+01,2.588572800160000020e-01,2.894653558729999521e+00,2.207147598270000177e+00,0.000000000000000000e+00
2.864560726000000113e+00,-5.760035352840000122e+00,2.105063377380000045e+00,-1.098905828789999894e+01,2.928951084609999755e-01,2.859312295909999690e+00,2.296214103700000120e+00,0.000000000000000000e+00
2.869579605999999838e+00,-5.584254423039999971e+00,1.827941549479999761e+00,-1.093245903329999891e+01,3.204715549949999631e-01,2.784234762190000545e+00,2.362706899640000024e+00,0.000000000000000000e+00
2.874637034000000035e+00,-5.569563634389999685e+00,1.803228840759999674e+00,-1.092024135670000007e+01,3.525571823120000059e-01,2.689804553989999736e+00,2.397472620009999833e+00,0.000000000000000000e+00
2.879509754999999949e+00,-5.715076267169999724e+00,1.743591679799999961e+00,-1.100913544570000013e+01,3.662692904469999622e-01,2.607392787929999844e+00,2.418768405909999863e+00,0.000000000000000000e+00
2.884755359000000130e+00,-5.891309616910000102e+00,1.678975853630000126e+00,-1.113199025650000173e+01,4.203759133820000327e-01,2.562142372129999845e+00,2.433227300640000035e+00,0.000000000000000000e+00
2.889712036999999789e+00,-6.213447813620000204e+00,1.558119961590000102e+00,-1.107065169839999896e+01,4.578914642329999785e-01,2.509607315059999788e+00,2.451269388200000066e+00,0.000000000000000000e+00
2.894764616999999873e+00,-6.410601201799999593e+00,1.444408826729999706e+00,-1.095135311880000195e+01,4.894682466979999869e-01,2.480007648469999992e+00,2.480299711229999815e+00,0.000000000000000000e+00
2.900043912000000113e+00,-6.450818061369999690e+00,1.451974147420000083e+00,-1.079198907079999969e+01,5.458316802979999993e-01,2.422627449040000158e+00,2.495472192759999874e+00,0.000000000000000000e+00
2.904807823000000067e+00,-6.173426184360000235e+00,1.353617964220000136e+00,-1.065257943109999950e+01,5.957847833630000034e-01,2.369817018509999595e+00,2.487769842150000077e+00,0.000000000000000000e+00
2.909766627999999855e+00,-6.145443952459999082e+00,1.191598871660000114e+00,-1.052291610940000055e+01,6.079555153850000337e-01,2.272201299670000285e+00,2.490355014799999989e+00,0.000000000000000000e+00
2.914800345000000181e+00,-5.970102583119999196e+00,9.678912385619999892e-01,-1.033922426029999997e+01,6.194314956669999539e-01,2.187282323839999876e+00,2.471446514129999716e+00,0.000000000000000000e+00
2.919965150999999981e+00,-6.013489889430000623e+00,6.299900208540000213e-01,-1.048272438419999908e+01,6.382005810740000173e-01,2.046999216079999684e+00,2.478392362590000175e+00,0.000000000000000000e+00
2.924802169999999979e+00,-6.370857220429999579e+00,4.695686092840000159e-01,-1.104365613950000125e+01,6.221334934229999503e-01,1.914271473879999741e+00,2.458587408070000091e+00,0.000000000000000000e+00
2.929967098000000103e+00,-7.283132808619999565e+00,6.382348482390000077e-01,-1.145108543229999931e+01,6.213116645809999561e-01,1.821120977400000118e+00,2.432308673859999715e+00,0.000000000000000000e+00
