t,ax,ay,az,wx,wy,wz,zv
5.223934999999999863e-03,-2.883510779229999876e+00,3.565268250590000187e-01,-9.393312359970000358e+00,4.450745880600000780e-03,6.188173778359999655e-03,1.853133551780000027e-02,1.000000000000000000e+00
1.025673600000000067e-02,-2.795186891349999758e+00,3.517430979139999914e-01,-9.378990989149999180e+00,1.505034696309999996e-02,-2.034411998470000114e-03,8.310692384839999877e-03,1.000000000000000000e+00
1.520824800000000060e-02,-2.796448874110000204e+00,3.625547801120000413e-01,-9.367110581739998665e+00,4.210329614580000240e-03,2.753443550320000132e-04,-1.771227340210000147e-03,1.000000000000000000e+00
2.032868399999999964e-02,-2.822055316790000212e+00,3.184580468950000132e-01,-9.376384606049999348e+00,2.216888591650000018e-03,-4.880955442790000168e-03,2.046335488560000002e-03,1.000000000000000000e+00
2.522869800000000079e-02,-2.822877739090000393e+00,3.876280292329999932e-01,-9.352074925180000164e+00,-5.160111468289999871e-03,-7.133931852880000604e-03,1.054817438129999896e-02,1.000000000000000000e+00
3.020214400000000021e-02,-2.803250955340000239e+00,4.077044564480000188e-01,-9.375597255060000634e+00,-2.150142192840000244e-02,2.842822344970000106e-03,6.332027260210000737e-04,1.000000000000000000e+00
3.534398099999999654e-02,-2.818742246719999844e+00,3.778898945509999718e-01,-9.379331180890000397e+00,1.393221318720000088e-02,5.572467111050000144e-03,5.077833775430000071e-03,1.000000000000000000e+00
4.033846700000000285e-02,-2.801041754859999955e+00,3.554452038350000009e-01,-9.367969244400001116e+00,-1.336395461109999953e-02,1.011953968549999909e-02,-7.602344267070000258e-03,1.000000000000000000e+00
4.534032300000000182e-02,-2.792916900590000306e+00,3.742427702200000206e-01,-9.381019864629999816e+00,-6.658254191279999387e-03,2.996504539619999821e-03,-7.207860704509999779e-03,1.000000000000000000e+00
5.023197499999999815e-02,-2.827874232209999672e+00,3.897407470709999822e-01,-9.385316685039999385e+00,-1.585049368439999870e-02,-8.147742599249999801e-03,7.612309418620000689e-04,1.000000000000000000e+00
5.521388700000000316e-02,-2.816060752549999879e+00,3.506145688080000156e-01,-9.377405765789999847e+00,2.373903989790000139e-04,7.265079766510000245e-04,-5.534712225199999933e-03,1.000000000000000000e+00
6.019383100000000320e-02,-2.831006685009999746e+00,3.587904591420000289e-01,-9.395780211389999081e+00,4.045409150420000051e-03,4.997977986930000199e-03,3.151928540320000135e-03,1.000000000000000000e+00
6.521971499999999755e-02,-2.786813030759999865e+00,3.900407529309999899e-01,-9.360093980980000339e+00,1.911735907200000015e-02,-1.615776796829999961e-03,-1.282640546559999858e-02,1.000000000000000000e+00
7.038581200000000593e-02,-2.873899778059999743e+00,3.578244271220000217e-01,-9.375895361219999558e+00,-7.105827797199999914e-03,-1.028079260139999965e-02,1.043020561340000062e-02,1.000000000000000000e+00
7.524129000000000234e-02,-2.774737977559999624e+00,3.707476581139999561e-01,-9.385008057480000332e+00,-8.394334465270001169e-03,2.364703686909999918e-03,-5.188965238630000552e-03,1.000000000000000000e+00
8.031551400000000451e-02,-2.808386564659999696e+00,3.752630531789999946e-01,-9.412513904049999880e+00,-4.037590231750000022e-03,-9.981478564440000173e-03,-3.043476026510000178e-03,1.000000000000000000e+00
8.520843300000000009e-02,-2.823624173550000283e+00,3.875747646760000498e-01,-9.372650095689998295e+00,1.310573518279999940e-02,1.160977408289999894e-04,-3.341933246699999895e-03,1.000000000000000000e+00
9.024902599999999608e-02,-2.814097928050000252e+00,3.720029554039999686e-01,-9.374491924169999990e+00,-6.977312150409999180e-04,-7.689519785340000191e-03,4.792818333949999503e-03,1.000000000000000000e+00
9.518695300000000470e-02,-2.816356812890000505e+00,3.539830953930000468e-01,-9.399124261120000767e+00,7.313230540600000086e-03,-4.014090634879999807e-03,9.015953168270000526e-03,1.000000000000000000e+00
1.001064750000000003e-01,-2.829955130130000107e+00,3.612030001770000220e-01,-9.397407520330000708e+00,-2.608270850030000153e-03,1.458452828229999873e-02,1.047520712020000126e-02,1.000000000000000000e+00
1.051815910000000048e-01,-2.793516035529999719e+00,3.697872886490000122e-01,-9.362072003049998870e+00,-2.084716688840000036e-04,2.833262318749999939e-03,1.845746301109999561e-04,1.000000000000000000e+00
1.102946790000000066e-01,-2.837963664540000153e+00,3.770895379540000203e-01,-9.355290380089998692e+00,1.223475579170000063e-02,2.546914154659999600e-03,-2.625161549079999771e-03,1.000000000000000000e+00
1.152641940000000004e-01,-2.810916375400000167e+00,3.562335046690000007e-01,-9.413470766379999688e+00,-1.275309082120000201e-02,-1.073795254340000017e-03,-5.680632311850000163e-04,1.000000000000000000e+00
1.203537370000000023e-01,-2.788399130909999801e+00,3.431612571280000523e-01,-9.416634783370000150e+00,1.027839141900000006e-03,1.460054889320000146e-02,-1.559150964020000057e-02,1.000000000000000000e+00
1.253972309999999979e-01,-2.853589103700000074e+00,3.361433777220000363e-01,-9.403424004139999681e+00,6.551202386619998930e-03,1.120909117160000072e-02,1.972821541130000220e-03,1.000000000000000000e+00
1.302774339999999975e-01,-2.801617508920000166e+00,3.793477286770000068e-01,-9.352881565380000595e+00,-1.245271530930000103e-03,-5.240936763579999436e-03,7.846669759599999346e-04,1.000000000000000000e+00
1.352626620000000057e-01,-2.815306134790000137e+00,3.481134727080000268e-01,-9.399587786980001525e+00,2.147688996050000319e-03,1.746588572860000022e-02,-7.165614515540000284e-03,1.000000000000000000e+00
1.402058310000000030e-01,-2.822314844509999698e+00,3.732128791830000014e-01,-9.369867771499999165e+00,-9.970891289410000261e-03,1.732109859590000300e-02,7.945414632560000509e-03,1.000000000000000000e+00
1.452141030000000110e-01,-2.764720441420000174e+00,3.576473535220000000e-01,-9.387256713189998436e+00,5.255334544930000823e-03,6.565614603460000719e-03,-1.317210309210000048e-02,1.000000000000000000e+00
1.503965580000000135e-01,-2.864823906679999865e+00,3.622338775949999756e-01,-9.416450658969999665e+00,-2.118963166140000378e-04,1.777362637220000069e-02,5.155749153350000502e-03,1.000000000000000000e+00
1.553182810000000025e-01,-2.771955068850000092e+00,3.324295813629999929e-01,-9.405620052879999804e+00,8.119544945659999333e-03,1.561358198520000108e-02,-9.145918302239999798e-04,1.000000000000000000e+00
1.602082979999999990e-01,-2.834357749009999594e+00,3.590785919009999994e-01,-9.364254607789998630e+00,-4.808195866640000565e-03,-1.396603230389999867e-02,7.416795473550000760e-03,1.000000000000000000e+00
1.652164869999999952e-01,-2.827715534509999795e+00,3.479803478469999933e-01,-9.420658632060000315e+00,2.269551623610000304e-03,-8.538321591909999939e-03,-1.231824629939999973e-03,1.000000000000000000e+00
1.704077059999999921e-01,-2.817659419920000019e+00,3.433376000750000268e-01,-9.393007239539999276e+00,2.858577761800000418e-03,2.169198356570000222e-02,2.688108477739999721e-03,1.000000000000000000e+00
1.752522890000000055e-01,-2.793372535410000079e+00,3.527880769219999824e-01,-9.402482923899999179e+00,4.489902406930000589e-03,4.927680827680000313e-03,-8.153615519399999914e-03,1.000000000000000000e+00
1.805424770000000068e-01,-2.819642994959999704e+00,3.587438069889999914e-01,-9.393544415160000938e+00,-4.574200138450000216e-03,3.559082048010000360e-03,4.220989532769999636e-03,1.000000000000000000e+00
1.852596230000000121e-01,-2.825276032410000138e+00,4.021924880929999557e-01,-9.340029098069999591e+00,-4.207644611599999779e-03,-1.328557357189999975e-02,-3.890688996759999844e-03,1.000000000000000000e+00
1.904001419999999944e-01,-2.823000196430000219e+00,3.648188891190000116e-01,-9.383698728449999749e+00,5.692162085319999967e-05,1.374590210620000100e-02,4.160238895570000234e-03,1.000000000000000000e+00
1.952375070000000046e-01,-2.799470852279999811e+00,3.851360297540000199e-01,-9.371960944380001379e+00,5.174259655180000160e-03,8.604368194939999081e-04,1.006907317789999855e-03,1.000000000000000000e+00
2.002208619999999994e-01,-2.807852896179999558e+00,3.635630438390000108e-01,-9.386423769500000347e+00,7.727517280729999730e-03,2.630339236929999693e-03,7.420585025100000579e-03,1.000000000000000000e+00
2.052584970000000120e-01,-2.834346935350000152e+00,3.600363675500000138e-01,-9.394997536580000030e+00,1.451016590000000009e-02,-6.753363646569999004e-03,1.082984171809999938e-02,1.000000000000000000e+00
2.102461330000000017e-01,-2.782677830649999962e+00,3.910574191600000304e-01,-9.378884606170000637e+00,7.230024319140000710e-03,-1.079634646890000223e-03,-5.727049894629999971e-03,1.000000000000000000e+00
2.152463990000000049e-01,-2.831213021239999961e+00,3.624596491740000315e-01,-9.377961061580000646e+00,-2.159759402280000355e-03,8.782113902269999411e-03,1.077033206819999998e-02,1.000000000000000000e+00
2.202571369999999917e-01,-2.802116398349999926e+00,3.422227707010000453e-01,-9.386859238310000464e+00,3.468725830320000016e-03,1.114375982429999939e-02,3.712604288009999955e-03,1.000000000000000000e+00
2.253801219999999883e-01,-2.796762762369999766e+00,3.587988616449999668e-01,-9.384211938669999142e+00,-2.548481570559999864e-03,-7.244541309769999757e-03,8.095717057590001015e-03,1.000000000000000000e+00
2.302679310000000090e-01,-2.818382181240000062e+00,3.790575135580000476e-01,-9.385175815269999333e+00,-2.757654525340000242e-03,-3.088957630099999768e-03,1.695795916020000071e-02,1.000000000000000000e+00
2.353963030000000012e-01,-2.782654449779999872e+00,3.555633137889999684e-01,-9.352682827939998944e+00,3.494941163809999526e-03,-9.795174002650000253e-03,5.624920595439999657e-03,1.000000000000000000e+00
2.403712379999999871e-01,-2.840811455189999890e+00,3.827734653419999633e-01,-9.378505835980000427e+00,6.390661466869998995e-03,4.170591011640000130e-03,1.315181329850000080e-02,1.000000000000000000e+00
2.453764830000000063e-01,-2.812501306509999743e+00,3.266457372650000135e-01,-9.397650096910000528e+00,-8.645119145509999603e-03,-7.267832756039999814e-03,1.429597474629999872e-02,1.000000000000000000e+00
2.502639159999999752e-01,-2.782044208920000372e+00,3.791790575790000006e-01,-9.373108360850000764e+00,8.734464645389998765e-04,-7.928225211799999964e-03,2.206841949369999899e-03,1.000000000000000000e+00
2.552479140000000202e-01,-2.822090095849999702e+00,3.685084278190000617e-01,-9.380572705389999655e+00,-7.919538766149999617e-03,-6.502942182119999907e-03,-3.593745408579999880e-03,1.000000000000000000e+00
2.601359349999999848e-01,-2.834848162870000188e+00,3.706084323059999908e-01,-9.394967725960000848e+00,4.289974924180000107e-03,-1.128075923769999989e-02,1.907114312050000107e-02,1.000000000000000000e+00
2.651939409999999886e-01,-2.774021061470000049e+00,3.443320544730000266e-01,-9.414556223530000878e+00,-2.112768590450000202e-03,-4.729654639959999726e-03,1.936047337950000001e-03,1.000000000000000000e+00
2.701623539999999934e-01,-2.831389839110000306e+00,3.301496171999999674e-01,-9.411537752490000130e+00,-2.775153610859999991e-03,1.367024378849999869e-03,4.788021091370000051e-03,1.000000000000000000e+00
2.751726629999999840e-01,-2.807125166430000096e+00,3.743025375840000057e-01,-9.387349652170000169e+00,1.168226078150000000e-02,2.402730984610000359e-03,4.816892091180000751e-03,1.000000000000000000e+00
2.803038529999999917e-01,-2.801346290759999746e+00,3.708755588099999501e-01,-9.369535763060001798e+00,-1.397555228320000037e-02,1.349146245049999892e-03,3.725843038409999523e-03,1.000000000000000000e+00
2.852347789999999939e-01,-2.839509724940000090e+00,3.673614862740000597e-01,-9.370212639410000932e+00,1.117791887370000146e-02,1.131682377310000084e-02,1.352556981149999858e-02,1.000000000000000000e+00
2.902052139999999891e-01,-2.792547775020000511e+00,3.387465094250000086e-01,-9.377220472350000335e+00,-6.625959067610000339e-04,-5.403715651479999195e-03,3.530408721419999439e-04,1.000000000000000000e+00
2.952346200000000032e-01,-2.834077178500000294e+00,3.817320299970000108e-01,-9.362886242050000973e+00,1.327997818589999983e-02,1.369662024079999936e-02,2.630744129420000289e-03,1.000000000000000000e+00
3.002228639999999782e-01,-2.816772407950000279e+00,3.513957823139999825e-01,-9.414045935920000829e+00,3.834095317870000325e-03,-1.751868752760000125e-03,1.833461970090000115e-02,1.000000000000000000e+00
3.052454279999999853e-01,-2.786116865189999903e+00,3.650194897249999793e-01,-9.361001158949999734e+00,-1.195270475000000110e-02,7.874493021519999962e-04,7.002755533899999996e-03,1.000000000000000000e+00
3.102097650000000262e-01,-2.796558179700000313e+00,3.696483916350000176e-01,-9.379843222070000763e+00,5.351506639270000448e-03,7.075669243930000907e-03,-3.873807843769999995e-03,1.000000000000000000e+00
3.152534940000000230e-01,-2.860236871150000137e+00,3.293340265010000212e-01,-9.384171022140000318e+00,2.594941295679999930e-03,-1.183361653239999901e-02,-5.803328007460000458e-03,1.000000000000000000e+00
3.202014790000000111e-01,-2.866437479360000040e+00,3.269644478250000041e-01,-9.366254257180001375e+00,1.559840631670000215e-03,9.573293849829999855e-03,1.617833413180000054e-02,1.000000000000000000e+00
3.253717389999999932e-01,-2.790958752259999898e+00,3.816712397209999774e-01,-9.360005718169999156e+00,-2.979301847519999664e-03,-7.979014888409999631e-03,8.674053475260000770e-03,1.000000000000000000e+00
3.302096219999999804e-01,-2.793925785369999915e+00,3.718791463620000348e-01,-9.386558209540000419e+00,7.481358479710000474e-03,5.158473737539999784e-03,9.275639429690001048e-03,1.000000000000000000e+00
3.352631200000000256e-01,-2.813014808989999782e+00,3.541585250250000039e-01,-9.385514253440000232e+00,1.965488772839999940e-03,2.667175838720000063e-03,3.603503573690000541e-03,1.000000000000000000e+00
3.403556169999999992e-01,-2.831284917429999659e+00,3.590385156189999649e-01,-9.376817152239999231e+00,-2.858838532119999803e-03,2.037342637779999965e-02,5.906249862159999127e-04,1.000000000000000000e+00
3.453790250000000062e-01,-2.771889017869999972e+00,3.456945019320000201e-01,-9.392076680700000679e+00,5.853745387869998748e-04,-5.039342679080000172e-03,-1.453764364120000048e-02,1.000000000000000000e+00
3.502270430000000156e-01,-2.861848982520000195e+00,3.661113766149999837e-01,-9.371779742599999352e+00,-5.062635987999999747e-03,1.605722680689999904e-02,1.334929466250000044e-02,1.000000000000000000e+00
3.553642390000000262e-01,-2.778757442340000328e+00,3.548559692380000019e-01,-9.421579254030000072e+00,-1.740527804940000031e-03,2.986547304320000176e-03,1.578859612350000038e-02,1.000000000000000000e+00
3.603429360000000026e-01,-2.790427714129999792e+00,3.660472253379999930e-01,-9.385640510169999118e+00,-1.593045890330000011e-03,-1.241320278500000068e-02,-6.919745355839999326e-04,1.000000000000000000e+00
3.652427100000000260e-01,-2.771628905629999640e+00,3.757073263480000258e-01,-9.345605436900001450e+00,9.521619416770000718e-03,-1.083480310630000184e-03,2.050560899080000003e-03,1.000000000000000000e+00
3.702217609999999826e-01,-2.849316833209999622e+00,3.731659713019999658e-01,-9.389168099769999998e+00,7.436350453640000122e-03,-7.089341059329999986e-03,1.381928287449999890e-02,1.000000000000000000e+00
3.752324790000000077e-01,-2.791474008309999810e+00,3.481785738329999935e-01,-9.377921314089999072e+00,-1.420593587680000092e-03,-3.904883749779999857e-03,1.115725934509999989e-02,1.000000000000000000e+00
3.803380559999999799e-01,-2.765621774169999991e+00,3.658728916839999457e-01,-9.395880164630000309e+00,2.619024831800000151e-03,7.882035337390000396e-03,-5.785534158349999942e-03,1.000000000000000000e+00
3.852076280000000241e-01,-2.875632885459999954e+00,3.854295328080000194e-01,-9.351899568610001268e+00,-3.734107129280000298e-03,1.520340517160000127e-02,1.284500956539999864e-02,1.000000000000000000e+00
3.903977129999999796e-01,-2.760725234300000164e+00,3.411423185210000208e-01,-9.360393256189999178e+00,5.641053896399999407e-03,1.082920934999999916e-04,1.792270690199999905e-03,1.000000000000000000e+00
3.952087590000000206e-01,-2.783041695529999693e+00,3.899862097319999887e-01,-9.361262440239999094e+00,-7.479755673560000567e-03,-4.711518529800000354e-03,-9.682519361379999384e-03,1.000000000000000000e+00
4.002208709999999781e-01,-2.860130488170000262e+00,3.635848538120000084e-01,-9.396286407350000758e+00,2.079354599119999977e-03,-5.145487375559999787e-04,8.120143786070000563e-03,1.000000000000000000e+00
4.052279369999999825e-01,-2.767515040569999751e+00,4.005169926290000348e-01,-9.379376189080000259e+00,-1.713308133179999859e-02,2.673667622730000176e-03,-8.769990876319999282e-03,1.000000000000000000e+00
4.102562060000000121e-01,-2.830198291240000330e+00,3.253957006709999877e-01,-9.403674764030000688e+00,-6.556065287440000430e-03,2.480230526999999997e-03,2.596866805110000127e-03,1.000000000000000000e+00
4.152455620000000125e-01,-2.827377388599999986e+00,3.494516259759999910e-01,-9.380635833750000430e+00,-2.965472638610000197e-03,4.167292267080000001e-03,2.995495218780000121e-03,1.000000000000000000e+00
4.203533400000000197e-01,-2.806493006000000179e+00,3.719491063250000007e-01,-9.380454631960001066e+00,-1.065016491340000163e-03,-1.911193714479999953e-03,7.572819944469999336e-03,1.000000000000000000e+00
4.253649489999999922e-01,-2.784737393529999938e+00,3.669040978950000031e-01,-9.412692767750000300e+00,-6.281425710770000351e-03,-7.441120222210000253e-03,2.190544269980000160e-03,1.000000000000000000e+00
4.302183729999999873e-01,-2.789826825620000506e+00,3.587645209839999683e-01,-9.395615960739998940e+00,6.497161462899999143e-03,1.822791434820000139e-02,-6.127301137890000561e-03,1.000000000000000000e+00
4.352042329999999959e-01,-2.785757676489999835e+00,3.828777294340000026e-01,-9.347626713589999525e+00,2.806136850269999681e-03,-1.321702264249999953e-02,-3.445683978499999942e-03,1.000000000000000000e+00
4.402170469999999725e-01,-2.801389545379999735e+00,3.578582928589999490e-01,-9.367823698449999625e+00,-9.542359039189999810e-04,1.849150843920000301e-02,-1.193703524769999975e-02,1.000000000000000000e+00
4.453758589999999851e-01,-2.830893287769999933e+00,3.564327900999999521e-01,-9.389669035029999833e+00,5.509440088639999634e-04,-7.030313834550000127e-03,1.279493328180000139e-03,1.000000000000000000e+00
4.503782760000000218e-01,-2.820347928349999922e+00,3.885412716209999950e-01,-9.397741282330001056e+00,-1.569991745049999915e-02,7.819207385180000636e-03,2.213183324779999630e-04,1.000000000000000000e+00
4.553600569999999848e-01,-2.813651353320000048e+00,3.442736022840000021e-01,-9.422800904780000764e+00,1.278324890879999932e-02,2.222566632550000264e-03,1.450134441259999952e-03,1.000000000000000000e+00
4.602056970000000247e-01,-2.795751539499999883e+00,3.553890897339999633e-01,-9.380751569079999186e+00,-4.433178808540000002e-03,1.310340594499999963e-04,-1.300695165989999846e-02,1.000000000000000000e+00
4.652303979999999894e-01,-2.825290937709999728e+00,3.663750325199999769e-01,-9.340802420530000205e+00,-8.343927562240000331e-03,-4.712145309899999808e-04,-3.106188727540000211e-03,1.000000000000000000e+00
4.702104619999999957e-01,-2.822326827209999500e+00,3.145851509850000061e-01,-9.418889284299998721e+00,2.796158660199999681e-03,1.960969716309999764e-02,4.795391578229999665e-04,1.000000000000000000e+00
4.752343099999999931e-01,-2.808698114829999870e+00,3.862416894410000134e-01,-9.382635483130000509e+00,6.202878430489999761e-03,-5.906423088160000189e-03,8.046706207100000601e-04,1.000000000000000000e+00
4.801828949999999985e-01,-2.812269543579999809e+00,3.566544334940000005e-01,-9.369040088500000252e+00,-7.076546899039999746e-04,-1.304843695829999931e-03,-1.586692989799999998e-03,1.000000000000000000e+00
4.852834489999999779e-01,-2.813783747530000046e+00,3.473335378440000065e-01,-9.344092694249999553e+00,5.436489358540000719e-03,-3.704817965630000012e-03,-1.973903272299999928e-04,1.000000000000000000e+00
4.904149879999999961e-01,-2.798392993920000293e+00,3.336261342040000022e-01,-9.407803242139999966e+00,1.176848169420000208e-02,-1.900262013080000062e-02,3.513814881440000069e-03,1.000000000000000000e+00
4.952851600000000021e-01,-2.790955537390000352e+00,3.561453879940000289e-01,-9.417484093680000612e+00,1.328181196000000064e-02,1.080051902679999773e-02,2.996323164550000317e-03,1.000000000000000000e+00
5.002321360000000494e-01,-2.768746628190000170e+00,3.887856748359999615e-01,-9.354652082190000328e+00,-1.557810418310000104e-02,-3.565059043469999932e-03,-6.048974581060000827e-03,1.000000000000000000e+00
5.052663490000000035e-01,-2.832551576370000213e+00,3.258442481559999937e-01,-9.356804876310000907e+00,-6.680642254650000830e-04,-1.268904097379999936e-02,4.453440196809999637e-04,1.000000000000000000e+00
5.101967840000000143e-01,-2.832074314240000223e+00,3.672563453989999838e-01,-9.379926808700000507e+00,-5.623573437330000105e-03,7.188181392850000011e-03,9.445045143370000770e-03,1.000000000000000000e+00
5.152763150000000403e-01,-2.792373879759999955e+00,3.932552945300000213e-01,-9.400335390480000441e+00,-1.338131353259999941e-02,1.962580159309999794e-02,-2.831686753780000149e-03,1.000000000000000000e+00
5.202673169999999514e-01,-2.809719566829999682e+00,3.349289238989999751e-01,-9.394691831630000323e+00,-1.223780098369999913e-03,9.982592426240000094e-03,6.684555206449999468e-03,1.000000000000000000e+00
5.254295129999999592e-01,-2.817679878189999876e+00,3.494095403999999960e-01,-9.386527814400000835e+00,-4.514571279290000190e-03,1.865311292930000057e-03,8.674720302220000241e-04,1.000000000000000000e+00
5.302931109999999837e-01,-2.793134050479999964e+00,3.539914613629999707e-01,-9.397927744810001371e+00,-5.348805570969998808e-04,2.375740325080000128e-03,-6.462022662160000000e-03,1.000000000000000000e+00
5.352633230000000131e-01,-2.791336061140000435e+00,4.170063186049999815e-01,-9.390759752879999311e+00,-8.606514893469998512e-03,6.600725464520000585e-03,-1.978575252000000072e-03,1.000000000000000000e+00
5.402584620000000504e-01,-2.817430871860000074e+00,3.826453454500000073e-01,-9.383937797899999822e+00,1.199335977440000103e-02,5.325643345709999386e-03,5.166525486860000169e-03,1.000000000000000000e+00
5.452837480000000125e-01,-2.793177305089999951e+00,3.541450810220000411e-01,-9.381158980840000439e+00,6.684435065839999975e-03,-1.045768149199999969e-02,-3.336186753589999963e-03,1.000000000000000000e+00
5.504197250000000263e-01,-2.812411290140000020e+00,3.373327701699999626e-01,-9.387832467249999979e+00,-1.000716537239999988e-02,1.402479968970000122e-02,1.246258616450000162e-02,1.000000000000000000e+00
5.554018149999999654e-01,-2.787684552900000057e+00,3.742547529190000111e-01,-9.398857134620000053e+00,1.613353961150000180e-03,1.698467135429999886e-02,-4.798118956390000703e-03,1.000000000000000000e+00
5.602441729999999565e-01,-2.774169530029999997e+00,4.087519927390000363e-01,-9.374555052530000765e+00,-1.375893224029999841e-02,1.079019857569999893e-03,6.481772288680000705e-04,1.000000000000000000e+00
5.652676210000000534e-01,-2.784960388629999617e+00,3.693540483309999956e-01,-9.401025126309999536e+00,1.152275502679999883e-02,-1.578443124889999938e-02,-3.559449687599999736e-04,1.000000000000000000e+00
5.702998969999999446e-01,-2.779932331339999951e+00,3.660050301640000447e-01,-9.373703404139998696e+00,-1.649831794199999729e-02,-1.197459641840000014e-04,-1.472645439210000040e-03,1.000000000000000000e+00
5.752674269999999979e-01,-2.780644571259999864e+00,4.089698367409999591e-01,-9.352840648849999994e+00,-5.805771797899999913e-03,-5.544028244910000590e-03,3.037385176869999634e-03,1.000000000000000000e+00
5.802221530000000183e-01,-2.801230263170000345e+00,3.471294301060000032e-01,-9.361245489099999872e+00,-7.676385808739999428e-03,-1.239501032979999952e-02,5.932616535569999738e-03,1.000000000000000000e+00
5.852527290000000271e-01,-2.824825366029999785e+00,3.623992607570000191e-01,-9.388449137849999460e+00,-2.942386548970000060e-03,1.287964545190000039e-02,1.484626717870000077e-02,1.000000000000000000e+00
5.903060700000000161e-01,-2.787557127129999923e+00,3.695535894910000341e-01,-9.397278925510001102e+00,8.900940883899999560e-06,5.471440032120000393e-03,-8.618149906400000490e-03,1.000000000000000000e+00
5.952926600000000290e-01,-2.870769663339999944e+00,3.530245525590000044e-01,-9.380626481400000216e+00,4.278313135730000215e-04,-3.345389850439999826e-04,1.328255794939999998e-02,1.000000000000000000e+00
6.002614530000000004e-01,-2.764398369859999871e+00,3.804329300970000216e-01,-9.368169735409999532e+00,-4.814274609090000122e-03,7.459586486219999847e-03,-1.087816804650000059e-02,1.000000000000000000e+00
6.052697479999999963e-01,-2.826916493090000149e+00,3.729920395069999950e-01,-9.403862980079999545e+00,1.907483325339999914e-03,-4.930907860399999509e-03,-3.885757410900000323e-03,1.000000000000000000e+00
6.102917220000000365e-01,-2.817443731350000036e+00,3.787976205129999774e-01,-9.417239178999999183e+00,2.843589754779999885e-04,4.953429102899999797e-03,1.966573763639999865e-03,1.000000000000000000e+00
6.151754790000000250e-01,-2.815513055540000309e+00,3.672058938530000094e-01,-9.380310839579999893e+00,-1.264240499589999907e-02,-6.669044960289999486e-04,9.231425821779999652e-03,1.000000000000000000e+00
6.203566160000000274e-01,-2.778621541000000139e+00,3.467878501269999747e-01,-9.406187623630000161e+00,-2.456988906489999611e-03,8.858677931129998323e-03,-6.177817005659999756e-03,1.000000000000000000e+00
6.252060379999999640e-01,-2.806408250330000076e+00,3.623338673699999513e-01,-9.390061249219998629e+00,1.106093404809999997e-04,1.133423764260000147e-02,6.621067877860000415e-04,1.000000000000000000e+00
6.302547520000000292e-01,-2.775292688840000022e+00,3.659270330239999813e-01,-9.378753673260000312e+00,8.925167843700001699e-03,2.745224628600000279e-04,2.052760683000000135e-03,1.000000000000000000e+00
6.352292569999999916e-01,-2.827413628959999592e+00,3.836764785960000146e-01,-9.405207964949999777e+00,-5.602273158729999258e-03,1.100500347089999886e-03,1.060548610989999960e-02,1.000000000000000000e+00
6.402185009999999954e-01,-2.817243532600000044e+00,3.806564366549999856e-01,-9.340839829930001059e+00,4.798701498660000279e-03,-4.180787131189999881e-03,1.525999233129999785e-02,1.000000000000000000e+00
6.453749810000000142e-01,-2.802492538190000104e+00,4.029510513759999579e-01,-9.378973453489999557e+00,-1.030822983010000037e-03,-2.040592022240000133e-03,8.861927315589998924e-03,1.000000000000000000e+00
6.502629800000000460e-01,-2.829044737290000278e+00,3.708128688369999870e-01,-9.386727136360001111e+00,-8.457575924689998345e-03,1.302942400799999819e-03,9.626016020770001430e-03,1.000000000000000000e+00
6.553421470000000415e-01,-2.838517791300000148e+00,3.507215363139999931e-01,-9.373347430309999950e+00,1.482347724959999925e-04,1.478438451889999873e-02,1.324566826220000167e-02,1.000000000000000000e+00
6.603481490000000509e-01,-2.792021413060000068e+00,3.409936672980000139e-01,-9.390496133510000121e+00,9.075496345760001096e-03,-1.313220011069999877e-03,2.202225383369999737e-03,1.000000000000000000e+00
6.652435410000000493e-01,-2.765678180529999697e+00,3.695054029680000518e-01,-9.386502679960001316e+00,9.153137914840001055e-03,6.531881168479999715e-03,-1.227030344310000090e-02,1.000000000000000000e+00
6.703763999999999834e-01,-2.853651647540000003e+00,3.539857622739999710e-01,-9.403542662080001335e+00,-3.507487941529999903e-03,3.434177255260000266e-03,5.147505085919999550e-03,1.000000000000000000e+00
6.752491480000000212e-01,-2.778272289169999798e+00,3.518730444370000154e-01,-9.370300902220000339e+00,5.848709493880000811e-03,-4.506424069399999829e-03,-1.278783380989999968e-02,1.000000000000000000e+00
6.802016020000000163e-01,-2.813632064100000107e+00,3.157404219669999734e-01,-9.421386946329999290e+00,-9.017175063490000253e-03,6.372950039800000591e-03,-1.184394769370000072e-02,1.000000000000000000e+00
6.852433709999999900e-01,-2.830345883019999675e+00,3.589023585519999782e-01,-9.376738241789999151e+00,-8.581097354180000636e-04,-2.885947469619999824e-03,4.140104632820000748e-03,1.000000000000000000e+00
6.902528420000000331e-01,-2.787667601759999947e+00,3.504600723659999639e-01,-9.384249932589998622e+00,-1.212082896379999830e-02,1.629663445059999910e-02,5.605586338789999602e-03,1.000000000000000000e+00
6.952380310000000341e-01,-2.761224123729999480e+00,4.159349995790000420e-01,-9.377595150880001285e+00,-4.539406858380000062e-03,3.393718274310000057e-03,-5.864198785280000034e-03,1.000000000000000000e+00
7.001785839999999927e-01,-2.776605524999999908e+00,3.802013132989999766e-01,-9.385531204580001230e+00,6.764320423830000274e-04,1.897748000919999983e-02,-1.223416067659999912e-02,1.000000000000000000e+00
7.053027120000000538e-01,-2.831993942479999582e+00,3.600366598110000260e-01,-9.390537634560001123e+00,-5.842228885740000099e-03,7.678914815189999063e-03,-4.570536315439999685e-03,1.000000000000000000e+00
7.105906619999999840e-01,-2.830219626289999901e+00,3.025443105839999980e-01,-9.434406586899999780e+00,6.582745816560000261e-03,-1.894466206430000035e-02,4.704150371249999317e-03,1.000000000000000000e+00
7.151976370000000527e-01,-2.758656611330000175e+00,3.694743502419999825e-01,-9.376709600219999885e+00,-5.930278450250000243e-03,1.359750330450000023e-02,3.135972656309999728e-03,1.000000000000000000e+00
7.203325069999999553e-01,-2.818555784240000417e+00,3.696257779439999780e-01,-9.384472050910000362e+00,-1.540398504590000106e-02,-1.043256465349999898e-02,9.858231060209999598e-04,1.000000000000000000e+00
7.252388410000000230e-01,-2.776308587880000012e+00,3.841636045260000132e-01,-9.337986194069999968e+00,-5.947285331790000060e-03,7.192781195039999430e-03,-2.998381154610000199e-03,1.000000000000000000e+00
7.302255479999999466e-01,-2.777163743409999608e+00,3.552105548289999915e-01,-9.391023956769998904e+00,-2.668379573149999920e-03,6.836350075899999545e-03,-1.417948305609999932e-02,1.000000000000000000e+00
7.352453199999999800e-01,-2.834567592359999999e+00,3.946612523380000348e-01,-9.366381682949999288e+00,5.899257026609999559e-03,-3.007590072229999849e-03,6.096132565290000339e-03,1.000000000000000000e+00
7.402285119999999496e-01,-2.798300639459999850e+00,3.554326000819999498e-01,-9.375309085770000550e+00,8.185513317579998921e-03,4.169235005969999970e-03,2.055287361149999922e-03,1.000000000000000000e+00
7.453813150000000443e-01,-2.749586000649999917e+00,3.301827157519999778e-01,-9.398373735010000729e+00,5.765123292800000861e-03,1.232611481099999892e-02,-1.669070310889999784e-02,1.000000000000000000e+00
7.503784199999999904e-01,-2.855504874190000209e+00,3.650982905819999957e-01,-9.363860055520000003e+00,5.931622348729999848e-03,6.089333444829999817e-03,1.209866721180000030e-03,1.000000000000000000e+00
7.552099839999999453e-01,-2.789617274530000302e+00,3.852985268399999885e-01,-9.364154654550000956e+00,1.304459851240000016e-02,1.066402625289999961e-02,-1.187559403479999942e-02,1.000000000000000000e+00
7.602172160000000289e-01,-2.831946303949999688e+00,3.492931474790000324e-01,-9.402015306390000049e+00,-1.063255965710000091e-02,-1.186900492760000099e-02,-4.340307787060000352e-03,1.000000000000000000e+00
7.651720730000000081e-01,-2.799611429800000106e+00,3.268024987290000238e-01,-9.377630222189999643e+00,1.305764541030000024e-02,-1.109971106050000079e-02,1.198071986439999985e-03,1.000000000000000000e+00
7.701603129999999853e-01,-2.784446009370000308e+00,3.768202925580000362e-01,-9.376402726220000261e+00,1.956433523449999969e-03,2.474684733899999798e-04,-7.902452722189999557e-03,1.000000000000000000e+00
7.751562229999999776e-01,-2.816836705360000082e+00,3.470033925739999803e-01,-9.386839949089999635e+00,-7.274978328500000292e-03,1.264895079659999989e-03,-1.968843629579999747e-03,1.000000000000000000e+00
7.801174039999999588e-01,-2.820675260609999846e+00,3.491942536819999665e-01,-9.406097022739999147e+00,2.402621787039999762e-03,5.124046467240000319e-03,8.964113891120001690e-03,1.000000000000000000e+00
7.851548210000000028e-01,-2.814807245359999932e+00,3.839495964490000079e-01,-9.383175581359999740e+00,9.226994588970000022e-03,-1.662664930339999812e-03,8.072445169089999956e-03,1.000000000000000000e+00
7.903403549999999944e-01,-2.818528896229999692e+00,3.542713377499999705e-01,-9.369157577399999326e+00,-2.272285986689999860e-03,7.293933071199999729e-03,1.800651289519999976e-02,1.000000000000000000e+00
7.951822090000000287e-01,-2.736910935730000105e+00,3.864474411469999704e-01,-9.360001626519999007e+00,-8.114389143879999558e-03,-6.475672125819999410e-03,-1.095724292099999921e-02,1.000000000000000000e+00
8.001859860000000157e-01,-2.828968457179999785e+00,3.551878680730000126e-01,-9.395756830510000768e+00,8.242174051699999865e-03,-2.169280545789999994e-03,1.036825031039999984e-02,1.000000000000000000e+00
8.052004379999999628e-01,-2.749685077109999654e+00,3.408081181300000040e-01,-9.403152785979999706e+00,4.318072460590000224e-03,-4.560039378699999417e-03,-2.758998656649999919e-03,1.000000000000000000e+00
8.101133139999999733e-01,-2.801953901270000546e+00,3.814253021360000107e-01,-9.392065574780000148e+00,3.937863744800000100e-03,-2.825073897839999959e-05,-4.771659150719999884e-04,1.000000000000000000e+00
8.151379389999999781e-01,-2.804732426069999729e+00,3.481722902230000027e-01,-9.389214861519999289e+00,-2.032745862380000174e-03,-3.427205374460000342e-03,-7.087653502820000012e-04,1.000000000000000000e+00
8.201282290000000419e-01,-2.825582321879999803e+00,3.660706792780000218e-01,-9.394478481140000170e+00,8.893662132320000538e-03,2.533060265699999935e-03,-4.810606129470000082e-03,1.000000000000000000e+00
8.253694630000000254e-01,-2.785236282960000143e+00,3.639487186879999947e-01,-9.343477777220000391e+00,5.353965796529999537e-03,-4.406471736729999401e-03,-3.197195939720000064e-03,1.000000000000000000e+00
8.302062540000000324e-01,-2.815968105830000123e+00,3.623994799520000032e-01,-9.388550260139998827e+00,1.137069985270000062e-02,1.006421726200000012e-02,9.740719571709998900e-03,1.000000000000000000e+00
8.351275900000000307e-01,-2.814560577119999962e+00,3.925190526780000244e-01,-9.362439082799999923e+00,8.192454697559999619e-05,9.501338005069999773e-03,-3.272658213969999825e-04,1.000000000000000000e+00
8.401340139999999845e-01,-2.819493065090000083e+00,3.887699292769999926e-01,-9.370475674260001497e+00,-1.415793690830000062e-02,7.740028202530000075e-03,7.937964051959999282e-03,1.000000000000000000e+00
8.451576720000000265e-01,-2.744874754220000046e+00,3.681295115039999732e-01,-9.413644369380000043e+00,1.619459013449999971e-03,8.425790816550000201e-03,-1.536081172529999914e-02,1.000000000000000000e+00
8.501350659999999948e-01,-2.826123881409999594e+00,3.350518196260000026e-01,-9.394973571179999539e+00,8.529065176839999846e-03,-1.208529807629999883e-02,-6.631893105800000521e-03,1.000000000000000000e+00
8.551289800000000385e-01,-2.853260602400000234e+00,3.674870123499999752e-01,-9.372702702659999829e+00,-8.631393313410000434e-03,-1.008996088059999942e-02,-2.069449052209999893e-03,1.000000000000000000e+00
8.603020049999999808e-01,-2.832902874020000183e+00,3.647426820780000356e-01,-9.405552832859999768e+00,1.015029475089999911e-02,-3.099066438150000369e-03,3.634858410810000093e-03,1.000000000000000000e+00
8.652010180000000439e-01,-2.778331033619999779e+00,3.574461318609999938e-01,-9.411176517959999543e+00,4.651910625399999569e-03,2.278647385540000236e-02,-2.687826752659999794e-03,1.000000000000000000e+00
8.701655080000000320e-01,-2.759511182340000257e+00,3.813541731279999625e-01,-9.390378060079999756e+00,-2.580378903080000029e-03,-1.145517639820000169e-02,-9.842681698499999854e-03,1.000000000000000000e+00
8.752034629999999593e-01,-2.847070515579999572e+00,3.672485274189999926e-01,-9.387888581360000373e+00,-1.121810451150000165e-02,5.591928493230000812e-04,6.790913175790000596e-03,1.000000000000000000e+00
8.801610029999999973e-01,-2.751040291109999814e+00,3.706536596869999811e-01,-9.382468894400000536e+00,5.312392022459999771e-05,8.467341773210000991e-03,4.391171038149999789e-03,1.000000000000000000e+00
8.852049090000000398e-01,-2.771715414870000060e+00,3.384707977570000081e-01,-9.407277756960001014e+00,6.111705675719999314e-03,1.385755604129999949e-03,-8.508997038010000444e-03,1.000000000000000000e+00
8.902253549999999960e-01,-2.808277259070000031e+00,3.565457124229999830e-01,-9.386683881739999791e+00,-7.810734678060000241e-03,-9.660119190809999742e-03,-1.052012387660000020e-02,1.000000000000000000e+00
8.953073480000000028e-01,-2.805663569440000060e+00,3.643757849939999738e-01,-9.430629990970000875e+00,1.235881727190000015e-02,-1.212931936609999836e-03,2.609019633380000106e-03,1.000000000000000000e+00
9.001724610000000348e-01,-2.766354180100000004e+00,3.947119596120000073e-01,-9.366098774350000156e+00,2.649581059810000080e-03,3.484045853840000290e-03,-1.006318721919999964e-02,1.000000000000000000e+00
9.051818910000000162e-01,-2.833477166779999834e+00,3.913320713830000241e-01,-9.360183997350000951e+00,2.552466001360000417e-03,2.265695249660000000e-03,-8.053458295759999275e-03,1.000000000000000000e+00
9.101923459999999855e-01,-2.798289241280000006e+00,3.468087102519999965e-01,-9.403902727569999342e+00,-2.045666612679999941e-02,8.235805667939999006e-03,-4.892060998829999771e-03,1.000000000000000000e+00
9.151758690000000307e-01,-2.809357747780000025e+00,3.661210942909999821e-01,-9.376265948099998582e+00,-4.592595156279999889e-03,1.244677463550000057e-03,-1.989441458140000108e-03,1.000000000000000000e+00
9.201306249999999798e-01,-2.804046197369999938e+00,3.983430461240000109e-01,-9.371218017060000349e+00,-5.730234552169999676e-03,-1.211723033339999825e-02,-1.067216880620000183e-02,1.000000000000000000e+00
9.252113619999999816e-01,-2.822052394179999979e+00,3.634891018199999380e-01,-9.406032140810001607e+00,1.105448044839999790e-02,3.566153580320000245e-03,-1.970264129339999865e-03,1.000000000000000000e+00
9.301957459999999900e-01,-2.792044501669999956e+00,3.766966661779999614e-01,-9.386239060580001237e+00,-4.209555918349999911e-04,-4.269009456039999859e-03,-1.721369917499999957e-03,1.000000000000000000e+00
9.351778210000000202e-01,-2.790335944190000195e+00,3.720023343500000190e-01,-9.377923067660001166e+00,-2.483672462399999937e-03,2.061408711599999662e-03,-1.150209456679999933e-03,1.000000000000000000e+00
9.403169319999999942e-01,-2.749603244049999784e+00,3.826799418390000040e-01,-9.372634313600000766e+00,-8.231320418420000340e-03,1.842417009169999842e-02,-1.087941974400000004e-02,1.000000000000000000e+00
9.451822690000000193e-01,-2.787120781530000091e+00,3.528722115420000471e-01,-9.383001978360001161e+00,2.496698405589999840e-03,-2.479964634400000281e-03,-4.181798547510000470e-03,1.000000000000000000e+00
9.501991459999999945e-01,-2.782386446489999887e+00,3.768376090189999861e-01,-9.359538100660001803e+00,3.889497369530000356e-03,-1.472397334870000074e-02,3.993236925450000321e-03,1.000000000000000000e+00
9.551646409999999809e-01,-2.796281408590000073e+00,3.541040183590000168e-01,-9.394944929610000273e+00,4.276093561199999574e-03,1.611991599200000153e-02,-5.384535063060000119e-03,1.000000000000000000e+00
9.601681429999999740e-01,-2.818502592749999813e+00,3.911325667549999663e-01,-9.372844741479999797e+00,7.427487988019999994e-03,1.449827337640000047e-03,1.781810540709999986e-03,1.000000000000000000e+00
9.653108559999999949e-01,-2.792800288480000059e+00,3.827716387110000062e-01,-9.367479999580000438e+00,8.606343530120000654e-03,-7.249164395029999812e-03,7.373197469859999603e-03,1.000000000000000000e+00
9.701737329999999826e-01,-2.765911697029999949e+00,3.947578080479999807e-01,-9.356835855970000893e+00,-9.638757444919999681e-03,-1.229484844950000030e-02,-6.306087598200000536e-04,1.000000000000000000e+00
9.751958059999999984e-01,-2.805963429169999745e+00,3.528321352600000127e-01,-9.400020917699999146e+00,2.020300179720000214e-02,9.637961629780000729e-04,3.990591503680000632e-04,1.000000000000000000e+00
9.801586359999999720e-01,-2.788862656769999671e+00,3.551913021390000202e-01,-9.396844625750000901e+00,-2.529522171240000130e-04,-1.280468888580000089e-02,-5.558712873609998953e-04,1.000000000000000000e+00
9.851602069999999545e-01,-2.820554556840000338e+00,3.324633740349999811e-01,-9.417722578610000284e+00,4.203439457340000076e-04,8.515282534060000103e-03,7.111175451430000981e-03,1.000000000000000000e+00
9.902152669999999546e-01,-2.787596874609999720e+00,3.806154835899999700e-01,-9.359083927149999482e+00,-6.013085599989999135e-03,1.281135529279999949e-02,-1.130691170690000143e-02,1.000000000000000000e+00
9.951280679999999768e-01,-2.878463724979999583e+00,3.696719186410000191e-01,-9.388681193039998263e+00,-3.281638026240000106e-03,-9.072322864089999274e-04,1.403222791849999956e-02,1.000000000000000000e+00
1.000175468999999984e+00,-2.798921401700000366e+00,3.541441311739999542e-01,-9.391296928500000973e+00,7.506107445810000604e-03,2.496046246960000221e-03,4.784285090860000179e-03,1.000000000000000000e+00
1.005178171999999925e+00,-2.792665556179999786e+00,3.670616630770000000e-01,-9.406024542029999935e+00,5.986825563010000906e-03,4.617844708260000416e-03,-2.077537588779999975e-03,1.000000000000000000e+00
1.010200328000000036e+00,-2.801530122900000030e+00,3.339415933619999666e-01,-9.384334103749999656e+00,-1.389196608220000066e-02,-3.648179117590000329e-03,-4.052069503809999952e-03,1.000000000000000000e+00
1.015204301999999892e+00,-2.802429994350000175e+00,3.311685484520000000e-01,-9.418516359330000753e+00,3.721591550859999764e-03,3.812615759669999316e-04,8.392684161659998837e-03,1.000000000000000000e+00
1.020173946000000109e+00,-2.783958810370000148e+00,3.824426624849999734e-01,-9.408982222789999739e+00,-3.508317749950000050e-03,5.447675473989999941e-03,5.144644994290000460e-03,1.000000000000000000e+00
1.025223980999999895e+00,-2.818819111349999851e+00,3.791063211360000129e-01,-9.391593281089999579e+00,6.254874169830000434e-03,5.125950090589999689e-03,8.077310398220001117e-03,1.000000000000000000e+00
1.030394143999999956e+00,-2.783316420820000303e+00,3.717330158889999847e-01,-9.418972870930000241e+00,4.796217661350000126e-03,-5.558689590540000051e-03,-7.191830780360000328e-03,1.000000000000000000e+00
1.035261991000000048e+00,-2.819032754100000204e+00,3.898778905190000144e-01,-9.383360874800001028e+00,7.243994623419999996e-04,-5.944046657529999771e-03,-3.441016422579999939e-03,1.000000000000000000e+00
1.040313044999999992e+00,-2.813091673619999789e+00,3.469909714839999881e-01,-9.394716381549999440e+00,1.203511026690000027e-03,-1.646355353300000060e-02,-7.357671856880000638e-03,1.000000000000000000e+00
1.045306555000000026e+00,-2.839925904530000267e+00,3.888742664350000044e-01,-9.361882033440000583e+00,-1.078487606720000130e-03,-9.696418419480000699e-04,7.068217266350000985e-03,1.000000000000000000e+00
1.050202722000000088e+00,-2.813302978280000310e+00,3.232571177399999884e-01,-9.387446098290000762e+00,6.107025546950000240e-05,1.696744374929999924e-02,4.295841790740000284e-03,1.000000000000000000e+00
1.055160732000000046e+00,-2.857033398930000079e+00,3.671992814500000257e-01,-9.404977663320000403e+00,1.692202128470000205e-02,-5.457161460069999762e-03,1.195411756630000016e-02,1.000000000000000000e+00
1.060317839999999956e+00,-2.861430464850000188e+00,3.541533739259999924e-01,-9.404598308620000680e+00,1.049447245899999895e-02,-5.577127449209999359e-03,1.686827652160000079e-02,1.000000000000000000e+00
1.065328397999999899e+00,-2.775113240620000532e+00,3.602570245639999946e-01,-9.375591994360000569e+00,7.142286282029999475e-03,-6.241639144720000087e-03,-8.716838434340000788e-03,1.000000000000000000e+00
1.070156780000000030e+00,-2.786760131529999907e+00,3.515017634390000256e-01,-9.408884607630000119e+00,-7.439502049239999845e-03,4.797915928070000009e-03,-8.351075463000000657e-03,1.000000000000000000e+00
1.075174167999999986e+00,-2.832531118099999912e+00,3.695916930110000331e-01,-9.395977195269999527e+00,6.228790618479999527e-03,-4.976326599719999239e-04,-4.003099165859999760e-03,1.000000000000000000e+00
1.080171517999999997e+00,-2.777379431980000035e+00,3.646298328199999994e-01,-9.388776470110000716e+00,-4.732220433650000113e-03,-3.185277571900000260e-03,-7.063930854200000178e-03,1.000000000000000000e+00
1.085159229000000058e+00,-2.819515569180000014e+00,3.673146149250000048e-01,-9.365295641279999472e+00,-2.389850094909999785e-03,6.955098360780000979e-04,-3.227106295530000196e-03,1.000000000000000000e+00
1.090314661000000074e+00,-2.816043509160000013e+00,3.492274983640000219e-01,-9.392244438480000568e+00,3.796878270800000104e-03,-1.359154749659999967e-02,4.830865655090000091e-04,1.000000000000000000e+00
1.095140192999999984e+00,-2.802653866229999569e+00,3.824863554959999634e-01,-9.393937213870000136e+00,1.313089043829999882e-03,-4.121230449530000062e-03,1.907515805210000057e-03,1.000000000000000000e+00
1.100174763999999916e+00,-2.821773869499999865e+00,3.478513511729999785e-01,-9.419285590139999442e+00,1.577771268779999680e-02,3.686273703349999663e-03,1.779862679540000119e-03,1.000000000000000000e+00
1.105312295000000056e+00,-2.786419939790000466e+00,3.622367271390000143e-01,-9.392903194649999676e+00,1.645783707499999873e-02,-1.742788031699999893e-02,2.524778246879999933e-04,1.000000000000000000e+00
1.110177289999999983e+00,-2.803104240350000165e+00,3.743384491470000408e-01,-9.379140626760001709e+00,-6.923453416679999951e-03,-7.684053853150000016e-03,-5.459672305729999092e-03,1.000000000000000000e+00
1.115169542000000069e+00,-2.788314375230000142e+00,3.481870128679999676e-01,-9.374379111439999690e+00,-2.840007189659999372e-03,7.740212604399999453e-03,-1.526001095770000010e-02,1.000000000000000000e+00
1.120018036999999911e+00,-2.812560927739999883e+00,3.636765506840000106e-01,-9.368747827560000019e+00,2.679550088940000165e-04,-1.091103069479999917e-02,-9.513076394799998767e-03,1.000000000000000000e+00
1.125128303999999968e+00,-2.813110086060000015e+00,3.421196756529999994e-01,-9.380860290150000225e+00,-9.693406522270001449e-03,-4.340090323239999444e-03,2.419580705460000047e-03,1.000000000000000000e+00
1.130342042999999963e+00,-2.801066597040000161e+00,3.625973040789999824e-01,-9.358986896519999377e+00,-5.311887245630000226e-03,2.380547346550000287e-03,-1.349824247880000066e-03,1.000000000000000000e+00
1.135194298000000046e+00,-2.847868095699999991e+00,3.603035671190000233e-01,-9.365009225549998817e+00,-5.283094476909999671e-03,1.402364484970000137e-02,-8.047660812739998448e-04,1.000000000000000000e+00
1.140172146000000053e+00,-2.780847108090000130e+00,3.813720375779999783e-01,-9.390040790949999661e+00,-1.316193677479999755e-02,3.982110880319999699e-03,-1.660198532040000133e-02,1.000000000000000000e+00
1.145129161000000062e+00,-2.874671931479999998e+00,3.622797990959999437e-01,-9.402631392460000015e+00,-4.030620679260000193e-03,-1.265878323470000233e-02,8.553495630620000165e-03,1.000000000000000000e+00
1.150169248999999949e+00,-2.833499086349999807e+00,3.695418259880000611e-01,-9.386126832380000451e+00,1.761038973930000029e-02,-6.441770121460000352e-03,1.523995771999999901e-02,1.000000000000000000e+00
1.155128165999999901e+00,-2.802355760070000201e+00,3.746258147209999834e-01,-9.346905998099998669e+00,-2.407022751869999835e-03,-1.581704616550000039e-02,7.975203916430001483e-03,1.000000000000000000e+00
1.160131255000000028e+00,-2.831384578409999797e+00,3.707700526079999448e-01,-9.390297396060001134e+00,3.416291903699999501e-03,-1.741446740929999959e-02,2.930603455749999746e-03,1.000000000000000000e+00
1.165157001999999942e+00,-2.806061921109999968e+00,3.886076148550000053e-01,-9.374851989650000661e+00,-7.385115139189999192e-03,6.360864266749999621e-03,4.664482548829999853e-03,1.000000000000000000e+00
1.170158166000000000e+00,-2.790672336540000575e+00,3.636649333110000271e-01,-9.368836090360000313e+00,5.796934943649999401e-03,2.380923181770000160e-02,7.990349549800000338e-04,1.000000000000000000e+00
1.175154362000000008e+00,-2.766730612200000383e+00,3.809694846589999906e-01,-9.425417224760000323e+00,1.624167338010000169e-02,-5.029825493689999392e-03,-8.504849858580000588e-03,1.000000000000000000e+00
1.180096695999999890e+00,-2.838376629259999895e+00,3.503978207850000359e-01,-9.384625195650000862e+00,-2.015186659990000212e-02,-7.008353248239999889e-03,1.852938719090000200e-02,1.000000000000000000e+00
1.185173969999999910e+00,-2.740157370309999507e+00,3.358278454999999441e-01,-9.417983275370000129e+00,-2.715394366530000242e-03,-1.832832768559999881e-02,-3.462702967229999880e-03,1.000000000000000000e+00
1.190167932999999900e+00,-2.807853188440000203e+00,3.789944582590000222e-01,-9.395586150119999758e+00,1.005432009700000032e-02,1.471073366699999878e-02,-1.251246780160000099e-02,1.000000000000000000e+00
1.195125892000000078e+00,-2.819988447390000097e+00,3.812434427629999845e-01,-9.393246893520000640e+00,6.056840065869999526e-03,4.737023264170000039e-03,5.996374879029999459e-03,1.000000000000000000e+00
1.200231948000000104e+00,-2.817930345820000237e+00,3.433215257230000095e-01,-9.388573641010001580e+00,-9.060330688949999600e-03,4.173934459690000279e-03,9.118942543860001845e-03,1.000000000000000000e+00
1.205241682999999897e+00,-2.802967169960000060e+00,3.587415054339999632e-01,-9.397920730550000101e+00,-3.225929569449999951e-03,-8.050578646359999452e-03,-7.644332945350000314e-04,1.000000000000000000e+00
1.210315075000000018e+00,-2.824905445529999781e+00,3.801906092409999549e-01,-9.393314113539998900e+00,5.912228021770001007e-03,-5.453203339129999690e-04,7.205449510369999573e-04,1.000000000000000000e+00
1.215286864000000078e+00,-2.754721609969999818e+00,3.908520327810000028e-01,-9.381462347699999427e+00,7.046238984909999718e-03,-3.541712183510000410e-03,-1.273233257229999804e-02,1.000000000000000000e+00
1.220251967000000048e+00,-2.793007501489999989e+00,3.721071829640000272e-01,-9.356867420149999504e+00,2.323946449909999792e-03,5.433103069659999881e-03,-1.715389639139999756e-02,1.000000000000000000e+00
1.225270481999999994e+00,-2.864102314409999739e+00,3.481429910629999513e-01,-9.388122390110000381e+00,-1.356790307909999877e-03,1.907983981070000140e-02,1.011337852109999921e-03,1.000000000000000000e+00
1.230409655000000102e+00,-2.765363707759999734e+00,3.682663626919999711e-01,-9.383429848380000493e+00,-9.751527570190000535e-03,2.162065589800000413e-03,-1.147449389100000001e-02,1.000000000000000000e+00
1.235234720000000008e+00,-2.838967580889999898e+00,4.111795852119999872e-01,-9.381903077210001385e+00,-1.500498619859999929e-04,2.469348954039999895e-03,2.331499010320000394e-03,1.000000000000000000e+00
1.240251133999999977e+00,-2.795688703389999752e+00,3.252442729689999923e-01,-9.402499875030001064e+00,7.068513426930000260e-03,7.021020166579999139e-03,1.041775569320000164e-02,1.000000000000000000e+00
1.245238190000000023e+00,-2.791544443199999836e+00,4.102241111190000344e-01,-9.357828374139998573e+00,-5.393658764660000209e-03,-1.657045818869999979e-02,-3.588385879989999631e-03,1.000000000000000000e+00
1.250282746999999972e+00,-2.793515451010000206e+00,3.838606395240000135e-01,-9.378079719530001412e+00,-7.572837639600000365e-03,4.962272010740000246e-03,-1.378561556339999959e-02,1.000000000000000000e+00
1.255246644000000078e+00,-2.825027026079999892e+00,3.347267889230000071e-01,-9.411731229239999053e+00,4.310549236829999513e-03,-8.806473575530000819e-03,2.612012438480000066e-03,1.000000000000000000e+00
1.260247375999999919e+00,-2.784180051909999953e+00,3.810898231040000250e-01,-9.414472636900001135e+00,-9.500743821259999972e-03,-6.252272985879999724e-03,-1.438824343499999934e-03,1.000000000000000000e+00
1.265266948000000058e+00,-2.781463486429999854e+00,3.755535605579999880e-01,-9.360047803749999673e+00,-7.035925053060000135e-03,-1.012326776979999982e-02,1.697533763950000033e-03,1.000000000000000000e+00
1.270389871999999976e+00,-2.771009312429999927e+00,3.502751807859999511e-01,-9.402273080539998773e+00,8.178552612659999513e-03,1.002609543500000006e-02,-9.913261979819999042e-03,1.000000000000000000e+00
1.275230220000000081e+00,-2.828732602599999701e+00,3.492497832609999797e-01,-9.384301955039999754e+00,8.158905431630000121e-03,2.393466187639999802e-03,6.702568847689999686e-03,1.000000000000000000e+00
1.280208148000000046e+00,-2.807380310230000120e+00,3.746497801190000199e-01,-9.347837725999999847e+00,-1.154426252470000048e-03,1.517350599170000022e-02,-2.557896776119999906e-03,1.000000000000000000e+00
1.285231945000000042e+00,-2.802509781590000415e+00,3.525815945649999894e-01,-9.415097490800000912e+00,-3.908987622709999936e-03,-1.716079749169999863e-02,-3.598111215980000135e-03,1.000000000000000000e+00
1.290239791000000080e+00,-2.812636623319999973e+00,3.575658857840000038e-01,-9.393350353889999838e+00,9.345008060340000491e-03,2.789812861010000297e-03,-4.894426092510000860e-03,1.000000000000000000e+00
1.295373837000000083e+00,-2.787334424290000001e+00,3.504666482380000003e-01,-9.384102048560000853e+00,7.937915623189999853e-03,1.213324023410000067e-03,-1.303582452239999967e-02,1.000000000000000000e+00
1.300252457000000028e+00,-2.829431106259999940e+00,3.921664033150000228e-01,-9.379405999690000328e+00,-6.561755202709999672e-03,4.887674935159999623e-03,-3.635256551210000291e-03,1.000000000000000000e+00
1.305253419000000026e+00,-2.803441217220000059e+00,3.792489079449999911e-01,-9.355763842820000065e+00,-2.805294934659999413e-03,-3.977702464909999881e-03,-2.068394795059999916e-03,1.000000000000000000e+00
1.310310609000000071e+00,-2.846104593159999752e+00,3.456085041489999621e-01,-9.402661203070000084e+00,-1.599806919689999996e-02,1.466654613610000185e-02,1.114833727479999821e-02,1.000000000000000000e+00
1.315315860999999975e+00,-2.824455948190000232e+00,3.852780685739999877e-01,-9.355181659019999429e+00,-1.818202203140000146e-03,2.992736874149999962e-03,1.250091008839999962e-02,1.000000000000000000e+00
1.320284385999999976e+00,-2.785020594390000159e+00,3.538592132850000294e-01,-9.404406585439998523e+00,-1.296155061570000190e-02,-1.127937994900000095e-02,3.179270774129999786e-03,1.000000000000000000e+00
1.325305385000000058e+00,-2.784250779059999736e+00,3.504883851449999699e-01,-9.376136184239998173e+00,-1.853768900040000250e-02,-1.904019154609999838e-04,1.867203973229999959e-04,1.000000000000000000e+00
1.330277181000000031e+00,-2.801494759319999694e+00,3.753564670830000227e-01,-9.397205275760001086e+00,-4.901689244430000418e-04,-1.212727464740000032e-02,-4.209249280389999390e-03,1.000000000000000000e+00
1.335279176000000012e+00,-2.826179995509999987e+00,3.575372442109999715e-01,-9.394682479280000109e+00,-6.086876615880000389e-03,-9.340796619649999882e-03,3.837832715360000192e-03,1.000000000000000000e+00
1.340272123999999954e+00,-2.765165554840000262e+00,3.648336848290000267e-01,-9.375687271429999470e+00,1.836214214559999877e-02,-8.321636356410000782e-03,-1.852655783300000136e-02,1.000000000000000000e+00
1.345283771000000073e+00,-2.855983013099999912e+00,3.518107563229999624e-01,-9.366219770380000753e+00,-1.490994705819999712e-03,-5.216449499130000091e-03,8.369363844390000085e-03,1.000000000000000000e+00
1.350319755999999982e+00,-2.793070337590000118e+00,3.745660838909999901e-01,-9.354045932989999201e+00,-2.407819963989999649e-03,-4.778526723379999952e-03,-3.927978221329999839e-03,1.000000000000000000e+00
1.355280349999999912e+00,-2.810592550279999990e+00,3.658281026940000125e-01,-9.392779276010001510e+00,9.854458272459998974e-03,-5.427861120550000508e-03,3.562612459059999806e-03,1.000000000000000000e+00
1.360275990000000101e+00,-2.806484238170000367e+00,3.699348804259999790e-01,-9.341907166900000448e+00,3.373885992909999958e-03,-7.234499789769999537e-03,-4.966751672329999985e-03,1.000000000000000000e+00
1.365199706000000068e+00,-2.824005574080000081e+00,3.410597913359999511e-01,-9.380980701660000420e+00,1.482566539200000019e-02,9.172593709079999730e-04,-6.075136363510000824e-03,1.000000000000000000e+00
1.370271223999999899e+00,-2.804501247659999752e+00,3.577229029760000123e-01,-9.364297862409999951e+00,-6.119221914560000856e-03,3.104917937889999612e-03,1.943601295349999761e-03,1.000000000000000000e+00
1.375260600000000055e+00,-2.770436773240000150e+00,3.764609942589999814e-01,-9.400088137719999182e+00,8.021286688750000476e-03,-4.868342075499999810e-04,-9.741820394989999035e-03,1.000000000000000000e+00
1.380241180999999928e+00,-2.811974360020000230e+00,3.741143946000000109e-01,-9.395368123460000831e+00,1.140100648629999820e-04,5.248281173410000375e-03,9.583695791660000289e-04,1.000000000000000000e+00
1.385282456999999967e+00,-2.808600207420000050e+00,3.657696505049999880e-01,-9.405481521189999583e+00,3.657573834059999786e-03,-2.234195359050000253e-03,9.416253305970000230e-05,1.000000000000000000e+00
1.390266328000000051e+00,-2.774313030149999637e+00,3.825635123849999708e-01,-9.385576212760000203e+00,8.505999110639999097e-03,-4.953876137729999567e-03,-1.381446234879999888e-02,1.000000000000000000e+00
1.395424540000000047e+00,-2.805015919190000151e+00,3.741430361729999876e-01,-9.389578434139998819e+00,-1.284736208619999964e-05,-7.815018761899999869e-04,-3.603904973719999384e-03,1.000000000000000000e+00
1.400292834999999902e+00,-2.830641066570000142e+00,3.313170900769999982e-01,-9.408272028689999900e+00,8.506199344989999120e-03,1.135568367319999931e-03,-2.668210770929999812e-03,1.000000000000000000e+00
1.405311702999999968e+00,-2.820313441559999745e+00,3.778543848459999799e-01,-9.387401674619999525e+00,2.397708594800000183e-03,-7.033125497399999107e-03,-2.315698424350000166e-03,1.000000000000000000e+00
1.410278080000000100e+00,-2.845668247570000364e+00,3.837884145380000001e-01,-9.390886594130000375e+00,1.043846830730000164e-03,-7.114201784129999331e-03,8.568573743099999404e-03,1.000000000000000000e+00
1.415251730000000041e+00,-2.787219273469999870e+00,4.063041977279999717e-01,-9.395021501980000522e+00,7.334669353439999531e-04,-2.950130729000000149e-03,-3.458677092570000122e-03,1.000000000000000000e+00
1.420247760000000081e+00,-2.838484473550000331e+00,3.301670067260000230e-01,-9.381875020160000744e+00,4.929452203210000008e-03,4.840416833760000440e-03,1.980795897540000433e-02,1.000000000000000000e+00
1.425244670000000102e+00,-2.776782635130000010e+00,3.575571179550000034e-01,-9.387385892530000220e+00,7.224580738689999337e-03,-1.349476631730000056e-02,2.393040340389999965e-04,1.000000000000000000e+00
1.430382000999999903e+00,-2.826416142350000271e+00,3.662437708230000255e-01,-9.356073054899999519e+00,-1.441976753989999971e-03,-7.998271845280000014e-03,-6.718377117069998863e-03,1.000000000000000000e+00
1.435262333999999917e+00,-2.833504347049999872e+00,3.599669555760000028e-01,-9.385282198249999652e+00,2.779540140180000035e-03,-5.850320681930000315e-03,8.257389999929999874e-04,1.000000000000000000e+00
1.440202997999999956e+00,-2.819827996129999903e+00,3.826512272010000326e-01,-9.366964451270000325e+00,-1.391716673970000082e-02,-1.172197423879999846e-02,1.198195666070000012e-02,1.000000000000000000e+00
1.445163197000000066e+00,-2.795089276200000139e+00,3.575562046400000416e-01,-9.385508408219999765e+00,1.003003120420000067e-02,-5.557173863049999843e-04,4.190099891280000405e-03,1.000000000000000000e+00
1.450203107000000102e+00,-2.815705070980000002e+00,3.885433174469999917e-01,-9.384134197259999866e+00,1.411516568619999639e-03,-9.979300200940000726e-03,-1.542319078000000017e-04,1.000000000000000000e+00
1.455165370000000014e+00,-2.839721614129999683e+00,3.553614345419999765e-01,-9.369600060469998937e+00,4.467524588109999563e-03,-3.813753835860000160e-03,8.104281499979999748e-03,1.000000000000000000e+00
1.460171133000000010e+00,-2.795858506999999715e+00,3.648345981449999664e-01,-9.374464451639999751e+00,-1.184698101129999862e-02,-5.929644219580000424e-03,-5.930396728220000031e-03,1.000000000000000000e+00
1.465168792999999914e+00,-2.807595122029999946e+00,3.479261334420000185e-01,-9.390784887320000607e+00,1.012967061250000071e-02,-4.929422866549999869e-04,2.327879425139999740e-03,1.000000000000000000e+00
1.470202111000000089e+00,-2.806282870380000016e+00,3.373276556029999873e-01,-9.385442941770000047e+00,-1.530931098390000055e-03,-9.719992987809998944e-03,1.296790316700000131e-03,1.000000000000000000e+00
1.475137227000000051e+00,-2.812709980820000233e+00,3.548511469319999834e-01,-9.423644954389999384e+00,3.560197073970000018e-03,1.449071569369999842e-03,1.802701503040000149e-03,1.000000000000000000e+00
1.480163341999999993e+00,-2.820382122879999898e+00,3.597012903769999936e-01,-9.412945865720001137e+00,-5.192443495619999695e-05,-2.564677502960000053e-03,6.275421474129999795e-03,1.000000000000000000e+00
1.485137821999999996e+00,-2.828845707590000202e+00,3.683176910200000043e-01,-9.381822997709999612e+00,2.484475728119999935e-03,-5.234805867080000175e-03,1.212877035139999990e-02,1.000000000000000000e+00
1.490161630000000015e+00,-2.775230437250000293e+00,3.287112184270000181e-01,-9.416566394310001087e+00,-1.203075051309999977e-02,1.410119468349999884e-03,-1.799742924049999937e-03,1.000000000000000000e+00
1.495302906999999903e+00,-2.753116805120000343e+00,3.562318607010000471e-01,-9.387654188080000850e+00,7.748974952850000777e-03,-1.757539226670000064e-03,-1.453419215979999922e-02,1.000000000000000000e+00
1.500169907999999941e+00,-2.797557127609999750e+00,3.802373344600000205e-01,-9.369456852609999942e+00,5.550333764399999203e-03,-7.552409544590000211e-03,-1.292782463129999761e-02,1.000000000000000000e+00
1.505295915999999901e+00,-2.805660354570000070e+00,3.680723379570000064e-01,-9.394832116879999973e+00,1.365224272009999892e-02,5.749630741779999769e-03,-4.847999662160000122e-06,1.000000000000000000e+00
1.510207604999999953e+00,-2.782309874120000082e+00,3.763208551359999987e-01,-9.407738360210000650e+00,1.100515108560000052e-02,-4.892276599999999427e-03,-3.819095902139999638e-03,1.000000000000000000e+00
1.515150280000000071e+00,-2.840915792350000135e+00,3.685905896780000135e-01,-9.359690076350000609e+00,5.964376498009999958e-03,3.198033431540000214e-03,-3.369736019520000112e-03,1.000000000000000000e+00
1.520172338999999928e+00,-2.797326825990000376e+00,3.613136209449999692e-01,-9.364050609650000467e+00,-5.703438539060000541e-03,-7.786136120560001143e-04,-1.056972704829999866e-02,1.000000000000000000e+00
1.525200987999999924e+00,-2.847345825390000140e+00,3.573651025139999993e-01,-9.411490406220000438e+00,5.835380405189998995e-03,8.196057751769999795e-05,3.363152965899999635e-03,1.000000000000000000e+00
1.530341769000000074e+00,-2.823081152709999486e+00,3.635512803360000378e-01,-9.386313294860000767e+00,2.075312659140000123e-03,1.619872637089999961e-04,1.960668247189999852e-03,1.000000000000000000e+00
1.535176753000000005e+00,-2.811489791380000103e+00,3.564485721909999572e-01,-9.380434173699999434e+00,1.058552134779999938e-02,-2.468867693100000160e-03,-2.961945487190000264e-03,1.000000000000000000e+00
1.540291435999999958e+00,-2.818426020380000008e+00,3.874202317010000396e-01,-9.368038802499999207e+00,1.613062992689999822e-02,-1.428864337499999825e-02,4.464696161449999839e-03,1.000000000000000000e+00
1.545328720999999961e+00,-2.831738506420000245e+00,3.969130863859999803e-01,-9.380535295979999688e+00,5.907125771049999939e-03,-1.111191604289999899e-02,6.539127323779998953e-03,1.000000000000000000e+00
1.550164955000000067e+00,-2.797038948959999605e+00,3.662039137370000086e-01,-9.354161083799999332e+00,4.939617123449999668e-03,-1.565316133199999918e-02,-7.463560439649999725e-03,1.000000000000000000e+00
1.555169306999999890e+00,-2.845446713780000358e+00,3.078788582790000228e-01,-9.356309201739998471e+00,1.149168238040000010e-04,6.644827313720000350e-03,6.392575334760000269e-03,1.000000000000000000e+00
1.560171484999999914e+00,-2.816023050889999713e+00,3.791993331819999979e-01,-9.359382033319999294e+00,1.967354305090000116e-02,-1.925091259180000030e-03,8.269194513560000626e-03,1.000000000000000000e+00
1.565164336000000045e+00,-2.788758611870000514e+00,4.040559073449999650e-01,-9.369394893289999970e+00,-4.655758384620000204e-03,-7.968009449539998831e-03,1.315267290919999851e-03,1.000000000000000000e+00
1.570208304999999971e+00,-2.824703200950000159e+00,3.935560675750000015e-01,-9.356617244780000675e+00,9.449492208659999309e-03,-4.549106117340000373e-03,-8.017362561080000919e-04,1.000000000000000000e+00
1.575171595999999896e+00,-2.821614295030000275e+00,3.230524254809999940e-01,-9.393159799760001150e+00,-2.089445246379999840e-03,-2.212982159109999972e-03,-3.295089118179999818e-03,1.000000000000000000e+00
1.580168414999999937e+00,-2.802921869519999998e+00,3.064247139479999715e-01,-9.379486079189998549e+00,-5.681223701690000594e-04,-4.430243745449999847e-03,-2.015626057980000104e-03,1.000000000000000000e+00
1.585121723999999954e+00,-2.812408075270000030e+00,3.959473100929999934e-01,-9.348739058750000552e+00,1.493022870270000087e-02,3.525058971719999788e-03,-2.439348958429999898e-03,1.000000000000000000e+00
1.590199652999999991e+00,-2.799752591829999471e+00,3.811572257840000200e-01,-9.406057859780000641e+00,5.559020675719999506e-03,-1.511978264900000132e-02,-6.468301173300000304e-03,1.000000000000000000e+00
1.595305235000000099e+00,-2.836826477209999364e+00,3.850921540799999709e-01,-9.372094799899999273e+00,3.781513078140000158e-05,-4.066519904880000025e-04,-1.885421341289999922e-03,1.000000000000000000e+00
1.600171892000000096e+00,-2.832126336690000468e+00,3.038478126649999944e-01,-9.413291318160000642e+00,-9.002309292549999856e-03,-1.453742850570000078e-02,7.956170011310000068e-04,1.000000000000000000e+00
1.605135462000000013e+00,-2.828084952350000236e+00,3.647818450440000193e-01,-9.377094215619999673e+00,1.487788092340000014e-02,-5.889823660250000266e-03,7.457960862670000995e-03,1.000000000000000000e+00
1.610252621999999967e+00,-2.789087989950000068e+00,3.883115545180000350e-01,-9.405973688619999606e+00,8.466766215859998848e-03,2.490774029869999989e-03,-4.389490000899999925e-03,1.000000000000000000e+00
1.615265194000000015e+00,-2.813281058709999893e+00,3.670665219149999992e-01,-9.388971115900000441e+00,5.235509015619999821e-04,9.105742909010000954e-03,-6.492456421260000589e-03,1.000000000000000000e+00
1.620221335999999956e+00,-2.820711793230000097e+00,3.646156216320000087e-01,-9.401759285800000754e+00,2.492039464409999752e-03,-3.730956697840000311e-03,-1.033593714239999968e-02,1.000000000000000000e+00
1.625266722000000108e+00,-2.811936073840000105e+00,3.750741795429999859e-01,-9.414850822560000054e+00,-9.589376859370000658e-03,2.323767868800000278e-03,3.245898988100000249e-04,1.000000000000000000e+00
1.630209856000000013e+00,-2.850171111949999947e+00,3.528989534179999832e-01,-9.380267000439999947e+00,3.855932969599999965e-03,7.979816757140000688e-03,1.265706308190000032e-02,1.000000000000000000e+00
1.635200111000000067e+00,-2.739118967170000030e+00,3.989626758590000266e-01,-9.404228306260000281e+00,9.224613197150000748e-03,-6.941011175510000165e-03,-1.481649279589999924e-02,1.000000000000000000e+00
1.640202721000000086e+00,-2.826233186999999702e+00,3.396868590150000089e-01,-9.386724213749999990e+00,1.962405815719999932e-02,-1.155912317340000023e-02,-4.438742063939999857e-03,1.000000000000000000e+00
1.645206506999999929e+00,-2.816675085059999972e+00,3.825621241459999933e-01,-9.386599126069999244e+00,4.095360636709999974e-03,5.767555907370000047e-03,-6.510658189649999594e-03,1.000000000000000000e+00
1.650418834999999973e+00,-2.840322794890000058e+00,3.608929843800000037e-01,-9.424080423200001277e+00,2.301885373889999906e-02,-5.056028719989999649e-03,-5.908552557229999197e-03,1.000000000000000000e+00
1.655217278000000070e+00,-2.815906438780000354e+00,3.765731128639999703e-01,-9.387990872689998767e+00,-3.596050664780000086e-03,2.003001281989999841e-03,-4.154104739429999478e-03,1.000000000000000000e+00
1.660354164999999993e+00,-2.830786027999999899e+00,3.338307899309999605e-01,-9.378189025119999300e+00,7.249123882499999838e-03,-2.329377457499999773e-05,6.069541443140000735e-03,1.000000000000000000e+00
1.665246127000000076e+00,-2.781587697329999997e+00,3.696389296870000174e-01,-9.368571886469998944e+00,1.593983545900000062e-02,-5.703927017749999516e-03,-1.458302699030000066e-02,1.000000000000000000e+00
1.670259251000000056e+00,-2.827082789570000365e+00,3.373620693299999584e-01,-9.382952293999998972e+00,1.761499233540000237e-02,-1.908836327489999915e-02,-6.835836451500000230e-03,1.000000000000000000e+00
1.675242670000000045e+00,-2.825848279340000158e+00,3.636796559559999920e-01,-9.367508056629999302e+00,5.545916967090000656e-03,-3.760681487619999593e-03,-1.919555128550000161e-03,1.000000000000000000e+00
1.680236443999999940e+00,-2.830426839300000275e+00,3.549669187989999974e-01,-9.408277873910000366e+00,6.754947826270000198e-03,-1.312238862739999960e-03,1.008298806850000014e-02,1.000000000000000000e+00
1.685187213999999933e+00,-2.780953783339999763e+00,2.941909995900000019e-01,-9.414299618419999405e+00,6.189067848029999007e-03,5.779757630079999844e-04,5.502822343259999513e-03,1.000000000000000000e+00
1.690176075000000111e+00,-2.803496162270000092e+00,3.837308025990000537e-01,-9.384536348320001053e+00,5.214960779989999927e-03,3.150316188110000026e-03,2.214028965679999770e-03,1.000000000000000000e+00
1.695372904999999930e+00,-2.737704424200000375e+00,3.411288745170000247e-01,-9.484126018839999617e+00,4.350632894779999336e-03,6.060088984669999984e-03,-1.924777403469999856e-02,1.000000000000000000e+00
1.700212768000000096e+00,-2.781843717910000180e+00,4.083047238960000325e-01,-9.548387186350000277e+00,-4.463041201229999734e-03,6.042912602420000279e-03,-8.593635633590000419e-03,1.000000000000000000e+00
1.705259899999999940e+00,-2.745879547349999950e+00,6.460318587910000021e-01,-9.564630465139998705e+00,6.894367281349999925e-03,-5.426389165220000220e-03,-1.251271367070000071e-02,1.000000000000000000e+00
1.710408154000000014e+00,-2.719988150239999847e+00,8.248340361059999237e-01,-9.536187045469999291e+00,-1.544731669130000248e-03,-3.733951225880000058e-02,-4.884643107649999649e-02,1.000000000000000000e+00
1.715385208999999911e+00,-2.870058007940000433e+00,5.770283555930000308e-01,-9.346700830919999703e+00,-7.111697923390000037e-03,-2.863592468200000171e-02,-5.740813165900000153e-02,1.000000000000000000e+00
1.720232540000000032e+00,-2.961270603000000001e+00,2.960506742490000009e-01,-9.273122384489999703e+00,-6.497224676419999234e-04,-3.705842792990000217e-02,-6.071172282100000678e-02,1.000000000000000000e+00
1.725236997000000105e+00,-2.840570924430000144e+00,3.767829196900000510e-01,-9.374137119380000271e+00,-4.027197137480000196e-03,-2.442987635729999829e-02,-5.915285646919999502e-02,1.000000000000000000e+00
1.730280840000000042e+00,-2.824319462329999642e+00,2.900963872210000072e-01,-9.357964567739999850e+00,-9.132408536969999560e-03,-1.952393352989999914e-02,-6.656663864850000112e-02,1.000000000000000000e+00
1.735205448000000095e+00,-2.884064321459999469e+00,1.986457273559999737e-01,-9.348492975039999209e+00,-4.562679678199999672e-03,-1.561961695550000140e-02,-5.158819258209999814e-02,1.000000000000000000e+00
1.740236265999999921e+00,-3.467435287549999856e+00,4.485159209160000104e-01,-9.593593524770000158e+00,-6.000692956149999632e-03,-6.073263287539999722e-02,-5.283723026510000337e-02,1.000000000000000000e+00
1.745254050000000001e+00,-2.484599431699999972e+00,7.338501535029999523e-02,-9.112947020100000017e+00,9.033067151900000050e-03,-1.193375675940000144e-03,-6.835669279099999829e-02,1.000000000000000000e+00
1.750280502999999932e+00,-2.769021061219999691e+00,2.154364656969999792e-01,-9.417896766130001041e+00,-1.356768142429999949e-02,-2.029229700570000031e-02,-4.793936386699999830e-02,1.000000000000000000e+00
1.755234471999999935e+00,-3.173548787329999676e+00,3.125880954160000225e-01,-9.384428796289999042e+00,-9.205481037499999367e-03,-1.786904409529999765e-02,-6.382277607919999152e-02,1.000000000000000000e+00
1.760244941999999924e+00,-2.756372884310000160e+00,2.116639248880000101e-01,-9.317032253369999850e+00,-2.898398041729999611e-02,-8.785506710410000142e-03,-3.998713940380000526e-02,1.000000000000000000e+00
1.765241459999999929e+00,-2.883369909459999825e+00,3.162215200149999794e-01,-9.401078902320000097e+00,-1.345617976039999858e-02,-1.255054585639999928e-02,-3.850594162939999926e-02,1.000000000000000000e+00
1.770235712000000072e+00,-3.033903877530000237e+00,3.270825943120000412e-01,-9.307415114719999494e+00,1.627059839669999994e-02,-4.932977259159999732e-03,-3.630920127030000388e-02,1.000000000000000000e+00
1.775198596000000073e+00,-2.824423214969999929e+00,1.291391334750000008e-01,-9.397993795790000604e+00,-5.510142073039999821e-04,1.107728108759999976e-02,-1.334993168710000080e-02,1.000000000000000000e+00
1.780171256000000035e+00,-2.897182746229999495e+00,2.675639816890000300e-01,-9.391070718519999971e+00,2.952129580079999871e-02,7.934047840540000077e-03,-8.267655037339999638e-03,1.000000000000000000e+00
1.785212680999999968e+00,-2.835099799550000021e+00,2.573420455450000088e-01,-9.450980120560000586e+00,3.607061132790000124e-02,3.842547303070000062e-03,-8.166459389030000099e-03,1.000000000000000000e+00
1.790237045000000027e+00,-2.742008551129999638e+00,2.278812107229999939e-01,-9.498976966489999896e+00,2.864330075680000028e-03,4.707364365460000276e-03,1.553655974570000015e-02,1.000000000000000000e+00
1.795385452999999965e+00,-2.965408433459999493e+00,4.495067585840000213e-01,-9.431668686369999222e+00,3.586404398080000194e-02,1.556214643640000230e-03,1.231065206229999855e-02,1.000000000000000000e+00
1.800272760999999999e+00,-2.598027657959999903e+00,1.901394908219999902e-01,-9.429359240389999286e+00,2.160263061519999972e-02,4.717675037680000780e-03,2.653528936209999765e-03,1.000000000000000000e+00
1.805149228000000106e+00,-2.593530346540000142e+00,1.268745312769999911e-01,-9.436199900060000090e+00,2.278159931299999705e-02,-3.463228233160000041e-03,1.396471261980000017e-02,1.000000000000000000e+00
1.810186888000000049e+00,-2.559932612839999955e+00,1.612481629839999930e-01,-9.457411614919999820e+00,1.897341199220000177e-02,1.111844321710000073e-03,-7.525263354179999049e-04,1.000000000000000000e+00
1.815211168000000042e+00,-2.529597680329999765e+00,2.084291990170000219e-01,-9.476360061010000280e+00,1.112713292239999804e-02,-2.240332029759999760e-02,2.367676701400000128e-03,1.000000000000000000e+00
1.820199168999999895e+00,-2.603030580809999606e+00,3.428252666390000369e-01,-9.375835155469999904e+00,-5.182599183170000408e-03,-2.663198113440000056e-02,-3.543985076249999951e-04,1.000000000000000000e+00
1.825226621000000105e+00,-2.639846399779999686e+00,2.656496724999999892e-01,-9.385389165760001262e+00,-2.542074955999999719e-02,-3.282946720720000128e-02,-1.606072299179999927e-02,1.000000000000000000e+00
1.830173323999999990e+00,-2.694024564690000290e+00,8.506992758549999922e-02,-9.368007822839999221e+00,-1.256007794289999875e-02,-3.573224321010000371e-02,-1.414694450799999954e-02,1.000000000000000000e+00
1.835197506000000089e+00,-2.728512817479999519e+00,1.096217740479999980e-01,-9.436054938630000777e+00,-1.042832899840000042e-02,-4.037396982310000049e-02,-1.772275939580000154e-02,1.000000000000000000e+00
1.840206798999999949e+00,-2.769387264179999697e+00,1.749799156129999700e-01,-9.459261042170000522e+00,-1.854115538299999991e-02,-4.368013143540000476e-02,-2.008123137060000007e-02,1.000000000000000000e+00
1.845199749999999916e+00,-2.797337639639999818e+00,2.777540248570000148e-01,-9.410618299560001176e+00,-2.679603360590000066e-02,-5.237637832759999695e-02,-1.641898788509999971e-02,1.000000000000000000e+00
1.850238585000000047e+00,-2.828364353809999621e+00,3.293526216039999732e-01,-9.364073406000001043e+00,-1.424791757020000063e-02,-5.694542080159999131e-02,-3.768960712480000363e-03,1.000000000000000000e+00
1.855343122000000067e+00,-2.810863768429999965e+00,3.178697256129999760e-01,-9.322973918380000669e+00,-2.491978742179999998e-02,-4.404268413779999919e-02,-8.013228885829998607e-03,1.000000000000000000e+00
1.860369745999999935e+00,-2.838826418850000088e+00,3.569903874509999797e-01,-9.345415467289999611e+00,-6.561704911289999859e-03,-4.307623580099999988e-02,-6.865362171079999846e-03,1.000000000000000000e+00
1.865365587000000103e+00,-2.769047656970000215e+00,3.914522271639999662e-01,-9.324726314999999488e+00,-1.487333141270000096e-02,-4.848001152280000114e-02,-1.108547113839999931e-02,1.000000000000000000e+00
1.870367284999999935e+00,-2.933053977820000213e+00,4.807679025600000711e-01,-9.367987949099999767e+00,-1.070691179479999963e-02,-4.774270951750000241e-02,5.206791684029999799e-05,1.000000000000000000e+00
1.875242113000000099e+00,-2.795103889240000417e+00,3.152147906580000103e-01,-9.348457903719999962e+00,-1.499856170270000115e-02,-4.986500740050000408e-02,-4.354226402940000046e-03,1.000000000000000000e+00
1.880201325000000034e+00,-2.825399658789999879e+00,3.185289932400000024e-01,-9.265587312810000142e+00,-1.163122896110000033e-02,-4.199184849859999291e-02,-2.428387664260000037e-02,1.000000000000000000e+00
1.885268119000000020e+00,-3.018246581940000173e+00,3.950497767319999798e-01,-9.272015884550000919e+00,-1.705987751479999884e-02,-3.812295570970000019e-02,-9.935628622770000667e-03,1.000000000000000000e+00
1.890278939999999963e+00,-2.977945843470000131e+00,4.570404420249999933e-01,-9.250210879980000911e+00,-2.180838584900000182e-02,-4.603933915500000446e-02,-8.879117667680000436e-03,1.000000000000000000e+00
1.895379823000000075e+00,-2.969496871810000105e+00,5.028373302229999231e-01,-9.317433235379999346e+00,-2.320120576769999984e-03,-3.116398490970000157e-02,-1.063780859110000088e-02,1.000000000000000000e+00
1.900246826999999916e+00,-3.064995181370000044e+00,4.653211809730000148e-01,-9.289615254130000110e+00,-7.304876111449999480e-03,-3.814480081200000150e-02,-7.285337895149999500e-03,1.000000000000000000e+00
1.905189200999999999e+00,-3.113645815030000374e+00,4.182948605780000273e-01,-9.239403654760000251e+00,1.199173624630000060e-03,-3.212766349320000242e-02,4.081574268640000142e-03,1.000000000000000000e+00
1.910247913000000075e+00,-2.966447713380000017e+00,4.262794661240000282e-01,-9.225344149750000611e+00,1.513231825079999933e-02,-1.937017031009999682e-02,6.364684086289999244e-03,1.000000000000000000e+00
1.915376205000000054e+00,-2.938025628750000173e+00,4.911582906059999698e-01,-9.263339241619998887e+00,3.126177191730000055e-02,-1.150005124510000004e-02,2.453122474249999976e-02,1.000000000000000000e+00
1.920249786000000070e+00,-2.828118854620000011e+00,5.510013494109999854e-01,-9.355788977260001360e+00,1.573188602920000054e-02,-1.317884866149999883e-02,-1.054010167720000057e-02,1.000000000000000000e+00
1.925365243999999976e+00,-2.934438417910000041e+00,5.255370916790000901e-01,-9.415026763649999353e+00,2.925036288800000189e-02,-3.741167020050000392e-03,4.643282853069999501e-03,1.000000000000000000e+00
1.930278055000000048e+00,-2.975960514869999685e+00,4.954056093199999400e-01,-9.353057506469999893e+00,1.824792288240000004e-02,2.040644548829999988e-02,4.239228554070000217e-03,1.000000000000000000e+00
1.935226281000000048e+00,-2.950662407479999860e+00,5.105498773619999708e-01,-9.247357244119999820e+00,2.085596695540000226e-02,-1.809193566440000026e-02,-2.694578142840000235e-03,1.000000000000000000e+00
1.940240061999999988e+00,-2.934281766050000240e+00,3.949522346410000440e-01,-9.260499634280000336e+00,3.009899519380000027e-02,-4.335099831220000192e-03,-3.088627243409999661e-03,1.000000000000000000e+00
1.945252798999999921e+00,-2.879967407540000135e+00,3.346339595400000255e-01,-9.336724211310000854e+00,2.692019194359999631e-02,-5.088031757619999526e-04,-4.936818499120000474e-03,1.000000000000000000e+00
1.950269513999999926e+00,-2.871368798280000245e+00,3.074627152259999940e-01,-9.299462109880000327e+00,8.805122226479999981e-03,1.213111542170000091e-02,8.183311671020000386e-03,1.000000000000000000e+00
1.955240070000000108e+00,-2.746862420899999879e+00,2.827325804540000154e-01,-9.376656993250000127e+00,1.385811250660000209e-02,1.191363111139999952e-02,-3.447385504839999958e-03,1.000000000000000000e+00
1.960232438000000021e+00,-2.797005338950000031e+00,3.197107138370000046e-01,-9.368311774229999500e+00,1.095313206320000163e-02,-6.095188669859999582e-03,5.921364296229999873e-03,1.000000000000000000e+00
1.965227535999999997e+00,-2.832295555780000029e+00,3.689961017389999931e-01,-9.342423299730000963e+00,9.389204904440000277e-03,-6.153488531710000174e-03,-8.367665112020000739e-03,1.000000000000000000e+00
1.970239819999999975e+00,-2.920519490419999808e+00,3.299981164330000327e-01,-9.315705388679999643e+00,2.737940102820000249e-02,-1.689471863210000036e-02,1.899295113979999894e-02,1.000000000000000000e+00
1.975357473999999947e+00,-2.819756976719999919e+00,3.414030152830000442e-01,-9.361856314480000663e+00,3.377269208430000447e-02,-2.951393835250000139e-02,7.816771045330000306e-03,1.000000000000000000e+00
1.980219812999999940e+00,-2.878347697379999737e+00,4.129898129719999922e-01,-9.353990987930000500e+00,1.957625523209999621e-02,-7.568632252510000373e-03,5.152537953109999347e-03,1.000000000000000000e+00
1.985209368999999890e+00,-2.873504056740000312e+00,3.878878126810000326e-01,-9.365901790480000599e+00,2.308675274249999756e-02,-1.082764565939999847e-02,2.845019102100000176e-03,1.000000000000000000e+00
1.990222157000000047e+00,-2.861768903019999755e+00,4.218779432289999631e-01,-9.279571999019999851e+00,3.174966573719999879e-02,-1.264455821370000059e-02,3.496199846270000005e-03,1.000000000000000000e+00
1.995200684000000058e+00,-2.819120140120000340e+00,4.049418233340000284e-01,-9.296101693539998934e+00,2.487810887400000032e-02,-1.613772474229999967e-03,2.372454386199999900e-03,1.000000000000000000e+00
2.000208610000000053e+00,-2.827447823490000456e+00,3.764792971010000322e-01,-9.283006065120000372e+00,2.060017362240000247e-02,1.192376716059999906e-03,9.550143033270000123e-03,1.000000000000000000e+00
2.005137901999999972e+00,-2.829174208890000042e+00,3.752154877099999619e-01,-9.302507468930000911e+00,4.070304706690000551e-02,-1.418006978930000037e-02,4.146425053479999533e-03,1.000000000000000000e+00
2.010233465999999858e+00,-2.819571683279999963e+00,3.343174774689999795e-01,-9.348045815789999935e+00,1.251804269850000095e-02,2.792890416459999862e-03,2.598925028000000081e-03,1.000000000000000000e+00
2.015265867000000100e+00,-2.804576358729999441e+00,2.960709315860000079e-01,-9.367012966589999934e+00,3.871594369409999542e-02,-7.884479127819998953e-04,-3.885574638840000143e-03,1.000000000000000000e+00
2.020244508000000216e+00,-2.898265865290000409e+00,2.946708189969999836e-01,-9.426550612710000721e+00,2.121252007780000115e-02,-9.496858343480000034e-03,-6.011484190819998789e-03,1.000000000000000000e+00
2.025362116000000157e+00,-2.875804442639999792e+00,3.824970960859999658e-01,-9.302568259210000079e+00,3.727036342020000059e-02,4.134698770940000226e-03,-8.318817242979999887e-03,1.000000000000000000e+00
2.030396151000000149e+00,-2.882777204259999948e+00,4.383612047899999586e-01,-9.301030382110001327e+00,1.093322504310000054e-02,-3.699812293049999784e-02,7.134494371710000359e-04,1.000000000000000000e+00
2.035188511999999950e+00,-2.877219277870000091e+00,4.144852026290000158e-01,-9.321585094369998714e+00,3.908826038240000023e-02,-1.726057007910000024e-02,-6.129898130890001039e-03,1.000000000000000000e+00
2.040241915000000184e+00,-2.936619853609999886e+00,4.097096587899999864e-01,-9.343974620830000077e+00,4.902577400209999492e-02,-1.871922798450000036e-02,-7.770902477199999672e-03,1.000000000000000000e+00
2.045243394999999964e+00,-2.802962201529999753e+00,3.835912114649999705e-01,-9.297729587000000961e+00,4.554432258010000095e-02,-3.606535959989999509e-03,-2.767903171480000021e-02,1.000000000000000000e+00
2.050260460000000062e+00,-2.966919714800000385e+00,3.670611881530000398e-01,-9.331229705549999309e+00,5.521137639880000642e-02,-1.690160366710000053e-03,-2.274012565610000064e-02,1.000000000000000000e+00
2.055234743000000197e+00,-2.928112429760000079e+00,3.406368532169999908e-01,-9.353056921950001268e+00,6.206732988359999620e-02,-6.166762206699999242e-03,-2.807513624429999743e-02,1.000000000000000000e+00
2.060233170000000058e+00,-2.802422395559999835e+00,2.036700035250000040e-01,-9.314481399840000009e+00,5.381790176030000483e-02,1.079831272360000014e-04,-2.475050836800000292e-02,1.000000000000000000e+00
2.065208279999999785e+00,-2.752507733320000316e+00,2.862776326500000024e-01,-9.376859237819999748e+00,5.007852986449999599e-02,-8.593065664170000673e-03,-3.042343072590000114e-02,1.000000000000000000e+00
2.070335555999999855e+00,-2.759458283109999854e+00,4.016678066319999685e-01,-9.375323698819999052e+00,3.693225979800000142e-02,9.307505097240000328e-04,-3.220817074179999767e-02,1.000000000000000000e+00
2.075251413000000156e+00,-2.851045264430000170e+00,4.697841151990000408e-01,-9.370033775710000512e+00,4.096714779730000616e-02,-6.805907934899999359e-03,-2.577467262740000195e-02,1.000000000000000000e+00
2.080395132000000036e+00,-2.800571506999999905e+00,3.620812077839999921e-01,-9.294998700729999896e+00,4.727441072459999394e-02,-1.392731349920000097e-02,-2.938506938520000014e-02,1.000000000000000000e+00
2.085283027000000011e+00,-2.855814378529999864e+00,2.031009531989999839e-01,-9.272981514719999652e+00,5.617577582600000174e-02,-2.599882334470000195e-02,-3.599854186180000137e-02,1.000000000000000000e+00
2.090233673999999819e+00,-2.921142006229999755e+00,2.291035190590000048e-01,-9.312306978410001435e+00,3.656668588519999818e-02,-1.539735123520000193e-02,-3.415574505929999671e-02,1.000000000000000000e+00
2.095369656999999997e+00,-2.865475064059999522e+00,3.204731861099999746e-01,-9.325739875960000091e+00,5.653620883819999998e-02,-4.494523629550000073e-03,-4.592581093309999751e-02,1.000000000000000000e+00
2.100262294000000196e+00,-2.965460455899999737e+00,2.600559258800000384e-01,-9.323460240589998449e+00,6.905622035260000624e-02,-2.916128747169999952e-02,-3.894170001149999810e-02,1.000000000000000000e+00
2.105199097999999935e+00,-2.949807544220000022e+00,3.007923158179999779e-01,-9.293636764730001332e+00,7.651712745430000462e-02,-1.374683529140000027e-02,-4.504687711600000033e-02,1.000000000000000000e+00
2.110294382000000191e+00,-3.081308310529999872e+00,3.573008051070000191e-01,-9.253768280199999197e+00,6.836613267659999438e-02,-1.308272965249999975e-02,-2.080311998720000069e-02,1.000000000000000000e+00
2.115335679000000191e+00,-2.948409952379999588e+00,3.632072161389999776e-01,-9.239633371869999223e+00,8.857773244380000299e-02,1.106915529820000008e-02,-4.105250909919999636e-02,1.000000000000000000e+00
2.120240032999999968e+00,-2.986781184090000263e+00,4.320977604810000150e-01,-9.239738001280001001e+00,7.386691868310001075e-02,2.947060624139999710e-03,-2.775953523809999643e-02,1.000000000000000000e+00
2.125365224999999914e+00,-2.897559178329999874e+00,4.873862977869999891e-01,-9.298293650630000684e+00,8.758869022129998905e-02,6.291791796680001186e-03,-4.432627931239999791e-02,1.000000000000000000e+00
2.130288961000000203e+00,-2.890535855560000034e+00,4.557334510800000182e-01,-9.362668799899999783e+00,9.886803478000000256e-02,1.138684153560000009e-02,-4.042137041690000571e-02,1.000000000000000000e+00
2.135266527000000192e+00,-2.829763406949999727e+00,3.678365199070000036e-01,-9.331044412110001574e+00,9.007158130410000685e-02,9.065886028110000869e-03,-4.621866717930000340e-02,1.000000000000000000e+00
2.140374839999999779e+00,-2.839620199580000115e+00,2.620744078290000445e-01,-9.306160146219999874e+00,1.049347370859999989e-01,1.186109893020000083e-02,-3.074721992020000225e-02,1.000000000000000000e+00
2.145234588000000109e+00,-2.868753939599999914e+00,1.406093343799999784e-01,-9.348740227789999579e+00,9.531442821030000623e-02,-9.299267549069999486e-04,-3.321071341630000423e-02,1.000000000000000000e+00
2.150241580999999957e+00,-2.872415969240000422e+00,1.066478271380000009e-01,-9.424822766000000129e+00,9.379120916130000152e-02,-2.613560529429999855e-03,-3.419464454049999519e-02,1.000000000000000000e+00
2.158020341999999925e+00,-2.890465128409999807e+00,2.063268016439999963e-01,-9.445127887399999977e+00,7.261241972449999915e-02,-1.570559479299999880e-02,-1.726172305640000237e-02,1.000000000000000000e+00
2.160167925000000100e+00,-2.775245927079999841e+00,2.933356979349999727e-01,-9.404249933570000053e+00,9.379217773680000036e-02,-1.011223439129999881e-02,-3.389438986780000246e-02,1.000000000000000000e+00
2.165191571999999898e+00,-2.909619910740000037e+00,1.652849442190000018e-01,-9.389102633320000280e+00,1.049775481220000112e-01,-1.175941899420000075e-02,-2.209456823770000050e-02,1.000000000000000000e+00
2.170234765000000010e+00,-2.805715884150000061e+00,8.569373117280000562e-02,-9.345434171989998262e+00,7.766649872060001070e-02,-2.835849765689999781e-03,-2.420682273809999716e-02,1.000000000000000000e+00
2.175325099999999789e+00,-2.874581038320000115e+00,6.633668144109999831e-02,-9.399038920920000706e+00,6.668982654810000354e-02,2.443953417240000156e-04,-1.096498966220000107e-02,1.000000000000000000e+00
2.180198234000000124e+00,-2.915079052929999914e+00,1.499417286720000075e-01,-9.380285705139998598e+00,7.392234355210000607e-02,5.944785662000000130e-03,-2.589791780340000224e-03,1.000000000000000000e+00
2.185205208999999815e+00,-2.913745758500000171e+00,1.646252382020000071e-01,-9.333808031600000277e+00,6.218297779559999600e-02,8.542140945790000287e-03,4.072866868230000555e-03,1.000000000000000000e+00
2.190257679000000124e+00,-2.889538953479999783e+00,3.400791462690000433e-01,-9.273584156780000143e+00,7.425531744960001124e-02,4.436265677209999883e-03,-1.288949139420000195e-02,1.000000000000000000e+00
2.195201899999999817e+00,-2.883760370080000079e+00,4.272136417010000131e-01,-9.361152550119999916e+00,6.139479577540000316e-02,5.885614082219999856e-03,-1.451329514379999866e-02,1.000000000000000000e+00
2.200214238000000044e+00,-2.866412637179999834e+00,4.432967614960000025e-01,-9.413512267430000691e+00,5.410110577939999943e-02,6.879747845229999999e-03,-8.453004062179999070e-03,1.000000000000000000e+00
2.205208655999999934e+00,-2.803326650929999886e+00,4.166717163549999992e-01,-9.435751571770000012e+00,6.573510915039999791e-02,1.573818176979999844e-02,3.019170369949999728e-03,1.000000000000000000e+00
2.210269906999999812e+00,-2.822756743059999796e+00,4.991871736850000407e-01,-9.403973454720000902e+00,6.850584596400000059e-02,1.306584477420000105e-02,7.190702017400000699e-04,1.000000000000000000e+00
2.215268973000000141e+00,-2.820823729169999794e+00,5.638019404040000015e-01,-9.378091994489999195e+00,5.410869047050000102e-02,3.435844788330000201e-03,-2.518250420690000199e-02,1.000000000000000000e+00
2.220253975999999962e+00,-2.874734767580000128e+00,3.819732183420000426e-01,-9.361154888210000635e+00,2.890067361299999971e-02,-6.423227488989999637e-03,-2.568162791429999883e-02,1.000000000000000000e+00
2.225251495000000190e+00,-2.868350619499999699e+00,3.581476677269999631e-01,-9.359040088010001313e+00,4.363104328509999352e-02,1.232114434239999813e-02,-2.169407904149999941e-02,1.000000000000000000e+00
2.230383729999999787e+00,-2.730134865730000193e+00,3.251356980280000197e-01,-9.411326155569998519e+00,5.144485458729999849e-02,2.028452046220000082e-02,-2.507314458490000203e-02,1.000000000000000000e+00
2.235204208999999942e+00,-2.778179057929999640e+00,2.342263054329999927e-01,-9.488135254480001279e+00,4.842021688819999475e-02,1.199746318160000054e-02,-2.616841904820000134e-02,1.000000000000000000e+00
2.240178022999999907e+00,-2.838452324840000429e+00,2.120533260649999918e-01,-9.469133616889999772e+00,2.855851687489999874e-02,1.847596652809999768e-02,-3.389816358690000281e-02,1.000000000000000000e+00
2.245203054000000087e+00,-2.878625053019999935e+00,2.420158085319999985e-01,-9.436417342200000391e+00,2.372518740589999939e-02,1.516281859950000064e-03,-1.293135248120000184e-02,1.000000000000000000e+00
2.250388212999999915e+00,-2.912327708389999881e+00,3.862583483149999997e-01,-9.427184234430001197e+00,1.071701385079999909e-02,-1.307410094890000020e-02,-8.354568853970000333e-03,1.000000000000000000e+00
2.255256017999999862e+00,-2.794553854150000127e+00,3.398800800330000205e-01,-9.385556339019998973e+00,-5.219775717710000221e-03,-6.849397905169999842e-03,-1.412433944639999821e-02,1.000000000000000000e+00
2.260334336000000111e+00,-2.726141996700000014e+00,1.773367444049999964e-01,-9.444958960580001062e+00,1.184689253570000121e-02,1.904576085509999961e-02,-1.775913126769999850e-02,1.000000000000000000e+00
2.265220586999999952e+00,-2.649554139320000168e+00,2.339155909500000019e-02,-9.473378414849999984e+00,3.521266207100000323e-02,9.856709279120001374e-03,-2.392672561109999638e-02,1.000000000000000000e+00
2.270336617999999973e+00,-2.774002941290000024e+00,-1.311717718129999932e-01,-9.513045239330001124e+00,3.174337372180000005e-02,7.634909823539999703e-03,-2.531580440700000045e-02,1.000000000000000000e+00
2.275167638000000103e+00,-2.795656846950000052e+00,-1.469677543629999972e-01,-9.284528744650000220e+00,1.160789094870000142e-02,-2.170915156599999979e-02,-2.523382008079999919e-02,1.000000000000000000e+00
2.280213504999999863e+00,-2.711841668669999983e+00,-1.126092014939999997e-01,-9.257939428410001170e+00,1.337001565840000017e-02,-4.642994608729999681e-03,-1.571419276300000181e-02,1.000000000000000000e+00
2.285342663000000218e+00,-2.570143918000000305e+00,3.564811775530000310e-02,-9.402734268310000587e+00,-1.673245616259999916e-02,-6.187669001520000080e-03,-2.678895182909999881e-02,1.000000000000000000e+00
2.290205749000000068e+00,-2.596603762640000479e+00,4.828991059030000171e-02,-9.569017301919998886e+00,-3.027729131279999902e-02,-1.331703923639999954e-02,2.947081811730000323e-03,1.000000000000000000e+00
2.295208783000000086e+00,-2.676356806049999815e+00,-3.530166067150000003e-02,-9.528469602959999563e+00,-3.036693483590000367e-02,-4.129941761489999696e-02,7.411630358550000451e-04,1.000000000000000000e+00
2.300199647999999986e+00,-2.875624994420000302e+00,-5.007712280059999771e-02,-9.525362869109999409e+00,-4.990699887280000691e-02,-5.182730779050000181e-02,6.081407424060000268e-03,1.000000000000000000e+00
2.305200049000000195e+00,-2.921034161940000207e+00,1.636004434649999950e-01,-9.459719307340000327e+00,-3.706330433490000187e-02,-5.613420903680000490e-02,7.142934482540000234e-03,1.000000000000000000e+00
2.310125236999999832e+00,-2.905114123750000221e+00,3.413492027369999793e-01,-9.387893842049999549e+00,-5.879060178999999386e-02,-8.690002560620001260e-02,1.510952971879999870e-02,1.000000000000000000e+00
2.315198478000000115e+00,-2.833547017149999903e+00,2.039778638980000169e-01,-9.429283252539999438e+00,-5.600139126180000287e-02,-6.487181037660000316e-02,1.831772923470000036e-02,1.000000000000000000e+00
2.320169561999999797e+00,-2.878077648270000122e+00,6.523336440820000359e-02,-9.399489587299999727e+00,-4.790166020389999973e-02,-7.004923373460000824e-02,2.056153863670000248e-02,1.000000000000000000e+00
2.325197780999999964e+00,-2.866889607040000065e+00,6.530885906350000422e-03,-9.432364267420000559e+00,-3.708328679200000033e-02,-8.334898203610000000e-02,3.610619530080000361e-02,1.000000000000000000e+00
2.330225067000000205e+00,-2.855560988290000157e+00,-4.207055658480000904e-02,-9.281306275469999534e+00,-6.364396214490000703e-02,-6.192785128949999940e-02,3.896811231969999484e-02,1.000000000000000000e+00
2.335200520999999974e+00,-2.721484526280000260e+00,-3.704807964710000318e-02,-9.330725263150000615e+00,-5.695881694559999653e-02,-6.519734114410000170e-02,4.420968517659999708e-02,1.000000000000000000e+00
2.340168229000000100e+00,-2.700097454859999857e+00,9.784310084830001586e-02,-9.417262559880001049e+00,-8.111857622859999783e-02,-7.842972874639998759e-02,3.284151852130000326e-02,1.000000000000000000e+00
2.345164095999999976e+00,-2.746228506920000534e+00,3.070848218250000206e-01,-9.426165412779999642e+00,-1.157445013519999982e-01,-1.106833294030000053e-01,4.921125993130000265e-02,1.000000000000000000e+00
2.350408874999999842e+00,-2.778772347649999919e+00,3.645992550190000347e-01,-9.423359123189998243e+00,-9.476450830700000605e-02,-1.239923983809999991e-01,2.591808885339999882e-02,1.000000000000000000e+00
2.355235657000000149e+00,-2.823684379299999936e+00,3.030625075060000007e-01,-9.392680491810001087e+00,-7.943902164699999380e-02,-1.023980453610000008e-01,1.830670237540000037e-02,1.000000000000000000e+00
2.360365369000000157e+00,-2.854858100720000458e+00,3.631714872380000236e-01,-9.460820546579999046e+00,-5.943587049840000358e-02,-1.380826830859999965e-01,2.154038287700000068e-02,0.000000000000000000e+00
2.365238343000000132e+00,-2.818824664310000117e+00,3.740004128320000287e-01,-9.449923889510001729e+00,-4.026895388959999406e-02,-1.348241716620000030e-01,2.215730492030000467e-03,0.000000000000000000e+00
2.370274676999999830e+00,-2.889661703079999810e+00,2.342522618580000215e-01,-9.389736839570000271e+00,-4.058860614899999913e-02,-1.215749830010000032e-01,6.333237048239999910e-03,0.000000000000000000e+00
2.375385625999999917e+00,-2.730762934499999961e+00,4.103044098130000095e-02,-9.392444929489998984e+00,-2.018487267200000032e-02,-1.353816092010000083e-01,1.052446896209999943e-03,0.000000000000000000e+00
2.380258624000000101e+00,-2.796745226710000143e+00,1.692814094269999917e-02,-9.320978360639998073e+00,-3.203921020029999733e-02,-1.506812274459999879e-01,-7.255163975059999992e-03,0.000000000000000000e+00
2.385274856000000110e+00,-2.789284681569999869e+00,-1.080053792270000146e-01,-9.305944457639999001e+00,-1.370538212360000035e-02,-1.562829166649999935e-01,4.633918870239999745e-03,0.000000000000000000e+00
2.390258702000000124e+00,-2.760501070159999681e+00,-1.084145810820000000e-01,-9.363658395459999895e+00,-1.964934356509999772e-02,-1.696528196329999960e-01,-1.102083735169999933e-02,0.000000000000000000e+00
2.395234285999999990e+00,-2.834402464929999699e+00,3.764830142950000014e-02,-9.406604387739999851e+00,-2.982795052230000077e-02,-1.629320234060000205e-01,-7.380268070850000937e-03,0.000000000000000000e+00
2.400230671000000093e+00,-2.733817938150000071e+00,2.278920974430000135e-01,-9.506637710379999717e+00,-3.292096406219999910e-02,-1.937398463489999889e-01,1.365835312749999865e-03,0.000000000000000000e+00
2.405376654999999975e+00,-2.782973306470000185e+00,3.496125521589999452e-01,-9.368372564500001332e+00,-1.930559240280000158e-02,-1.913706213239999843e-01,-1.976911537350000206e-02,0.000000000000000000e+00
2.410232798000000010e+00,-2.911805730350000232e+00,2.359133086719999717e-01,-9.477672312660001097e+00,-3.816646710040000334e-02,-2.122762948270000283e-01,-1.040800753979999847e-02,1.000000000000000000e+00
2.415240460999999783e+00,-2.816656672620000190e+00,2.477091065360000066e-01,-9.466248416839999180e+00,-2.282029017809999658e-02,-2.219507992269999785e-01,-2.137720957400000149e-02,1.000000000000000000e+00
2.420237100000000030e+00,-2.928887213529999922e+00,2.811216563930000190e-01,-9.486828848060001818e+00,-5.575743503869999736e-03,-2.538063526150000082e-01,-1.569594815369999841e-02,1.000000000000000000e+00
2.425257109999999994e+00,-2.914144110170000079e+00,1.669449133210000047e-01,-9.491532495700001348e+00,2.204518299550000185e-03,-2.670686542990000079e-01,-2.516220137479999869e-02,1.000000000000000000e+00
2.430093476999999780e+00,-3.016405922509999726e+00,1.158566133170000068e-01,-9.515253563029999029e+00,3.362460061909999971e-03,-2.797735929490000051e-01,-2.012444287540000182e-02,1.000000000000000000e+00
2.435150532000000201e+00,-2.957591914490000029e+00,1.575369421749999999e-01,-9.493990994769999858e+00,-7.075151894239999767e-03,-2.878450751300000166e-01,-2.575056813660000013e-02,1.000000000000000000e+00
2.440103301000000169e+00,-3.068447659909999903e+00,2.913135627239999970e-01,-9.445172895589999840e+00,-1.619041664529999921e-03,-2.915669381619999667e-01,-1.089826412500000119e-02,1.000000000000000000e+00
2.445051487999999829e+00,-3.055141603610000089e+00,3.060567026200000096e-01,-9.407154422839999697e+00,2.400090917939999915e-02,-2.893345654009999990e-01,-2.282777987420000002e-02,1.000000000000000000e+00
2.450245422000000062e+00,-3.034635991200000049e+00,1.905992903540000005e-01,-9.397636068389999764e+00,1.518879365180000017e-02,-3.170697689059999713e-01,-2.226392738519999970e-02,1.000000000000000000e+00
2.455250633999999987e+00,-3.152378573530000061e+00,9.664016393249999504e-02,-9.439275069720000744e+00,3.463723510499999714e-02,-2.977710962300000319e-01,-1.444058120249999862e-02,1.000000000000000000e+00
2.460198441999999819e+00,-2.994290829070000104e+00,1.573788107369999967e-01,-9.502767006419999163e+00,3.839775174859999529e-02,-3.103131353860000274e-01,-6.864736322309999625e-03,1.000000000000000000e+00
2.465198309999999893e+00,-3.144531951679999882e+00,4.906537751500000266e-01,-9.533410566489999738e+00,3.637591749430000437e-02,-3.365777432920000201e-01,8.109830319880001123e-03,1.000000000000000000e+00
2.470193391000000016e+00,-3.088996234679999731e+00,5.983860547899999549e-01,-9.455403782219999442e+00,1.441253721709999901e-02,-3.304360806939999895e-01,-6.047921255229998967e-03,1.000000000000000000e+00
2.475221961999999998e+00,-3.057086307940000136e+00,3.871273131690000091e-01,-9.386906000059999755e+00,2.731551043690000347e-02,-3.571662008759999840e-01,-1.852834038440000219e-02,1.000000000000000000e+00
2.480196524000000124e+00,-3.144248166300000147e+00,2.358878637040000004e-01,-9.434070486819999601e+00,4.024266824130000308e-02,-3.603958189490000241e-01,-1.961368508640000050e-02,1.000000000000000000e+00
2.485225221999999956e+00,-3.117460112620000334e+00,8.954459791469999985e-02,-9.425574461150000971e+00,6.426003575329999884e-02,-3.607711195950000227e-01,-1.851008832450000072e-02,1.000000000000000000e+00
2.490199094999999918e+00,-3.158869104589999921e+00,3.304109532840000113e-02,-9.514436401430000245e+00,9.264854341749999278e-02,-3.672536015510000085e-01,-2.070595882830000151e-02,1.000000000000000000e+00
2.495373986000000155e+00,-3.138826141250000035e+00,9.373325437669999260e-02,-9.478966444119999224e+00,6.563075631860000592e-02,-3.833976984019999978e-01,6.574199069290000141e-03,1.000000000000000000e+00
2.500265957999999955e+00,-3.116409142260000209e+00,8.074249284039999863e-02,-9.495996489380001293e+00,6.050326302649999821e-02,-4.044490456580000504e-01,-1.178288459779999915e-02,1.000000000000000000e+00
2.505224925999999908e+00,-3.084996351390000058e+00,-5.801955600530000340e-02,-9.552283024739999462e+00,3.656926006080000319e-02,-3.983474373820000136e-01,-4.040003288540000397e-03,1.000000000000000000e+00
2.510268770999999788e+00,-2.948494415799999935e+00,-4.281702300399999744e-02,-9.669285017840000052e+00,1.865033246580000137e-02,-4.326386153699999793e-01,-3.536222269760000252e-03,1.000000000000000000e+00
2.515255624999999995e+00,-2.908141362620000336e+00,4.727242694369999942e-02,-9.682284200139999797e+00,2.615920454260000153e-02,-4.361515343190000005e-01,4.567074589430000428e-03,1.000000000000000000e+00
2.520216832000000018e+00,-3.066604077870000111e+00,2.245979695349999972e-01,-9.730677351910001605e+00,2.177389711140000420e-02,-4.654570221899999583e-01,2.056956291199999939e-02,1.000000000000000000e+00
2.525248738000000159e+00,-2.988972556660000279e+00,1.651052768040000007e-01,-9.724850253189998739e+00,4.429432004689999591e-02,-5.237542986869999639e-01,7.099343929439999937e-03,1.000000000000000000e+00
2.531179365999999931e+00,-2.976166558840000143e+00,2.100680522649999993e-01,-9.738101948949999809e+00,4.288683831690000281e-02,-5.223603248600000581e-01,4.528847988689999569e-03,0.000000000000000000e+00
2.535087507000000073e+00,-3.014006167890000309e+00,1.475376266729999941e-01,-9.820843360530000510e+00,7.442730665209999763e-02,-5.552518963810000319e-01,1.582297310229999893e-02,1.000000000000000000e+00
2.540186990000000034e+00,-2.988741085990000546e+00,1.226987525630000020e-01,-9.937866980929999983e+00,6.285063177349999031e-02,-5.911394953730000346e-01,1.958209462459999800e-02,1.000000000000000000e+00
2.545154909999999937e+00,-2.953311168429999967e+00,4.095829636709999999e-01,-9.897999080920000026e+00,7.734610885379999967e-02,-6.367233991619999367e-01,2.316390350460000025e-02,0.000000000000000000e+00
2.550165354999999856e+00,-2.985750087479999593e+00,6.259428643550000171e-01,-9.941631301900001105e+00,7.674250751730000986e-02,-6.691281199459999662e-01,7.378489244729999515e-03,0.000000000000000000e+00
2.555233171999999886e+00,-3.080069708640000403e+00,4.527949499419999801e-01,-9.767027599189999520e+00,9.515705704690000100e-02,-7.155085206029999645e-01,1.250948384400000016e-02,0.000000000000000000e+00
2.560234492000000195e+00,-3.090043697910000109e+00,5.518173785019999666e-01,-9.746496267810000447e+00,1.280084103350000169e-01,-7.654925584789999959e-01,6.097022909669999602e-03,0.000000000000000000e+00
2.565250862000000076e+00,-3.082894702940000453e+00,7.602824342839999971e-01,-9.851561154869999726e+00,1.316377222540000003e-01,-7.862008214000000272e-01,-7.751396391539999882e-03,0.000000000000000000e+00
2.570258426000000096e+00,-3.197241213079999866e+00,6.359909417700000400e-01,-9.972190106290000244e+00,1.614255011079999969e-01,-8.366745710369999367e-01,-2.829325757920000267e-02,0.000000000000000000e+00
2.575196239999999914e+00,-3.298655468679999814e+00,5.316892210999999424e-01,-9.967543157270000620e+00,1.724210530520000062e-01,-8.903339505199999726e-01,-4.396855086090000614e-02,0.000000000000000000e+00
2.580226401000000003e+00,-3.380626772670000335e+00,4.513752193370000332e-01,-1.007089247260000064e+01,1.918509751559999976e-01,-9.241517186159999842e-01,-5.689656734469999283e-02,0.000000000000000000e+00
2.585402671999999846e+00,-3.359874784279999638e+00,5.504313309709999436e-01,-1.014830421359999946e+01,1.974008232360000281e-01,-9.708295464520000362e-01,-5.310026556250000557e-02,0.000000000000000000e+00
2.590270873999999779e+00,-3.397115842909999905e+00,5.778627240579999880e-01,-1.016687330499999931e+01,1.860509663819999993e-01,-1.017599105829999795e+00,-6.318866461519999367e-02,0.000000000000000000e+00
2.595258668000000046e+00,-3.366272376359999985e+00,2.950938119150000039e-01,-1.026068906829999960e+01,1.814649850129999853e-01,-1.087049603459999902e+00,-8.100067079070000231e-02,0.000000000000000000e+00
2.600277650999999857e+00,-3.328226723339999804e+00,1.298290337010000184e-01,-1.022671431789999907e+01,2.028727531430000175e-01,-1.136848211290000021e+00,-8.619058132169998832e-02,0.000000000000000000e+00
2.605228169000000094e+00,-3.421726260299999822e+00,4.999419375749999950e-02,-1.027961705609999932e+01,1.858818382019999937e-01,-1.218986034389999862e+00,-8.798730373379999581e-02,0.000000000000000000e+00
2.610229765000000146e+00,-3.462884784639999936e+00,2.060641503860000112e-01,-1.026762968120000075e+01,1.856036633250000012e-01,-1.317862153050000096e+00,-8.829837292429999762e-02,0.000000000000000000e+00
2.615272007000000176e+00,-3.436875606369999669e+00,3.901282120180000201e-01,-1.016406993799999903e+01,1.904466152189999706e-01,-1.391501903529999806e+00,-9.930617362260001080e-02,0.000000000000000000e+00
2.620185489999999895e+00,-3.464834749659999602e+00,1.202401347639999868e-01,-1.001966263609999963e+01,2.099123150109999947e-01,-1.461302638050000047e+00,-1.039967983960000120e-01,0.000000000000000000e+00
2.625307290999999932e+00,-3.529026359059999507e+00,6.144400946209999798e-02,-1.010896705940000118e+01,2.228676825759999813e-01,-1.526320457460000002e+00,-1.123603805900000030e-01,0.000000000000000000e+00
2.630306941000000176e+00,-3.628316754380000120e+00,2.153262285220000072e-01,-1.021933648259999927e+01,2.161230295900000153e-01,-1.612265944479999824e+00,-9.820172935720000718e-02,0.000000000000000000e+00
2.635303350000000044e+00,-3.496173890780000182e+00,3.769774924140000261e-01,-1.005960184779999977e+01,2.432479411360000121e-01,-1.686477184300000154e+00,-1.062372475860000054e-01,0.000000000000000000e+00
2.640266999000000059e+00,-3.541907175690000020e+00,2.570700967360000089e-01,-1.032922309080000112e+01,2.549468278879999938e-01,-1.757623434070000101e+00,-1.162901520730000027e-01,0.000000000000000000e+00
2.645420291000000201e+00,-3.429560314919999797e+00,1.856255570620000128e-01,-1.030034887849999947e+01,2.652004063129999589e-01,-1.849013447759999984e+00,-1.357400268320000103e-01,0.000000000000000000e+00
2.650394196999999785e+00,-3.465431254250000315e+00,-2.796188780139999969e-02,-1.036753966970000107e+01,2.757093608380000171e-01,-1.934916496279999842e+00,-1.227218881249999977e-01,0.000000000000000000e+00
2.655426861000000027e+00,-3.415918450800000006e+00,-2.289206550400000040e-01,-1.049622917800000010e+01,2.941274344920000172e-01,-2.025155067440000067e+00,-1.316393315790000129e-01,0.000000000000000000e+00
2.660262730999999992e+00,-3.303732333560000178e+00,-3.160746954229999850e-01,-1.060075572040000047e+01,2.833975851539999868e-01,-2.130659341809999940e+00,-1.092631667850000043e-01,0.000000000000000000e+00
2.665287999999999879e+00,-3.146890205240000071e+00,-2.034523604520000195e-01,-1.086764958420000049e+01,2.731824219230000184e-01,-2.229617834089999917e+00,-1.013505309820000033e-01,0.000000000000000000e+00
2.670301293000000076e+00,-2.974537496329999975e+00,-1.100945951739999880e-02,-1.096014783519999902e+01,2.425554543729999957e-01,-2.343881130220000220e+00,-8.738555759189998995e-02,0.000000000000000000e+00
2.675197403999999946e+00,-2.687473827869999887e+00,2.143120282440000024e-01,-1.093896943809999911e+01,2.527902126309999886e-01,-2.478904724119999958e+00,-9.414301812649999990e-02,0.000000000000000000e+00
2.680196452000000118e+00,-2.813516036509999818e+00,2.320769819119999910e-01,-1.140142679059999864e+01,2.744237482549999885e-01,-2.646991491320000112e+00,-8.398216217760000324e-02,0.000000000000000000e+00
2.685221632000000191e+00,-2.699222133330000162e+00,-3.757020154180000168e-03,-1.192989653819999951e+01,2.887569963930000094e-01,-2.794308185579999826e+00,-5.738444253799999950e-02,0.000000000000000000e+00
2.690165460999999869e+00,-2.264608481040000232e+00,-3.048605333709999976e-01,-1.219031273049999875e+01,3.335802257059999887e-01,-2.982241153719999982e+00,-3.723530471319999591e-02,0.000000000000000000e+00
2.695202361999999852e+00,-2.093073372120000109e+00,-1.185141731410000121e+00,-1.295019235609999875e+01,3.406772911550000060e-01,-3.237564086909999972e+00,-7.870061323049999322e-03,0.000000000000000000e+00
2.700197360000000213e+00,-1.751609420429999897e+00,-1.673673071049999850e+00,-1.307495621540000030e+01,3.172501921650000001e-01,-3.479635238650000240e+00,-8.372735232110000564e-03,0.000000000000000000e+00
2.705208645999999995e+00,-1.171460192869999917e+00,-1.878118369790000131e+00,-1.319325175540000039e+01,2.124185115100000187e-01,-3.814271688459999421e+00,5.060894414780000433e-02,0.000000000000000000e+00
2.710709569000000041e+00,-8.541529965049999840e-01,-1.929461457409999969e+00,-1.337631232079999855e+01,1.043137237429999920e-01,-4.127177238459999842e+00,1.030103862289999950e-01,0.000000000000000000e+00
2.715355940999999884e+00,-1.041964555839999917e+00,-2.049392343559999663e+00,-1.353342479049999980e+01,-3.414078801869999819e-02,-4.488996982569999794e+00,2.161727100610000007e-01,0.000000000000000000e+00
2.720200204000000177e+00,-3.741086224469999943e-01,-2.065411604340000373e+00,-1.391697987119999880e+01,-1.382743418219999909e-01,-4.900005340579999924e+00,2.945324480529999955e-01,0.000000000000000000e+00
2.725187887000000142e+00,-4.640733363359999530e-01,-1.642779189479999902e+00,-1.391255270239999930e+01,-2.169038951400000248e-01,-5.292465209959999584e+00,3.942969739439999843e-01,0.000000000000000000e+00
2.730162325999999862e+00,-8.647144302689999673e-01,-1.860806000459999776e+00,-1.429501238910000005e+01,-2.605686485770000171e-01,-5.721982002259999867e+00,4.721842110159999995e-01,0.000000000000000000e+00
2.735184751999999886e+00,-1.250968029340000065e+00,-1.529322029390000059e+00,-1.439582020329999956e+01,-2.505361437799999980e-01,-6.203965663910000039e+00,5.367738008500000380e-01,0.000000000000000000e+00
2.740159171999999810e+00,-2.277670353320000007e+00,-1.081433811919999988e+00,-1.467458336859999868e+01,-2.424308359620000186e-01,-6.655274868010000233e+00,5.492824912070000121e-01,0.000000000000000000e+00
2.745356984999999916e+00,-4.345061002639999614e+00,-9.629890726690000236e-01,-1.490693900309999975e+01,-1.576348394160000110e-01,-7.075263500210000167e+00,5.809402465820000527e-01,0.000000000000000000e+00
2.750331362999999918e+00,-6.666358170110000536e+00,-8.322073413530000074e-01,-1.592676603449999995e+01,-1.303133182229999909e-02,-7.423058032989999333e+00,5.676530003549999925e-01,0.000000000000000000e+00
2.755208590000000068e+00,-1.038846087720000000e+01,3.078389646599999918e-01,-1.769353137679999932e+01,1.933173686269999969e-01,-7.635547637939999355e+00,5.453701019290000396e-01,0.000000000000000000e+00
2.760176493999999980e+00,-1.239490474420000155e+01,-1.249422845729999954e-01,-1.694997160240000156e+01,4.485700130460000268e-01,-7.703582763670000055e+00,5.690659284589999478e-01,0.000000000000000000e+00
2.765219971000000054e+00,-1.433890881400000161e+01,5.949426363380000415e-01,-1.836988750060000086e+01,7.134232521059999943e-01,-7.570270061489999591e+00,6.245452761649999962e-01,0.000000000000000000e+00
2.770204512999999924e+00,-1.407013512770000041e+01,1.240286184070000131e+00,-1.745039014450000181e+01,8.047297596929999797e-01,-7.308835506439999463e+00,7.162638306620000561e-01,0.000000000000000000e+00
2.775319323000000171e+00,-1.412714939279999982e+01,1.610016591429999977e+00,-1.757485472850000008e+01,8.336449265479999315e-01,-7.055051803589999615e+00,8.637430667880000579e-01,0.000000000000000000e+00
2.780200701000000052e+00,-1.323655079890000152e+01,1.110291730679999977e+00,-1.768557135769999888e+01,8.000465035439999761e-01,-6.815153598790000267e+00,9.355656504629998871e-01,0.000000000000000000e+00
2.785347703999999869e+00,-1.455254922660000005e+01,-1.456760797179999845e+00,-1.810848346630000094e+01,7.454152703290000126e-01,-6.732611179349999198e+00,1.009121537209999975e+00,0.000000000000000000e+00
2.790193482999999919e+00,-1.534910409369999940e+01,-3.823168003090000155e+00,-1.885918142210000070e+01,6.868888735770000142e-01,-6.568741321560000124e+00,9.708900451659999709e-01,0.000000000000000000e+00
2.795365622999999911e+00,-2.026312233710000044e+01,-5.283136802519999620e+00,-2.121123320879999952e+01,7.031620144840000641e-01,-6.333981513980000422e+00,9.313902854919999807e-01,0.000000000000000000e+00
2.800214017000000055e+00,-2.258246077169999921e+01,-4.350601977900000250e+00,-2.120672771410000124e+01,7.022951841349999169e-01,-5.837901115419999343e+00,1.038426041599999960e+00,0.000000000000000000e+00
2.805220580999999935e+00,-1.608635804599999730e+01,-3.842086346309999900e+00,-2.119284882630000055e+01,7.168997526170000079e-01,-5.232839584349999740e+00,1.290294289589999810e+00,0.000000000000000000e+00
2.810172215999999779e+00,-6.785246999859999129e+00,-2.311895863519999761e+00,-2.376754616979999923e+01,6.955564618109999486e-01,-4.438576698299999457e+00,1.476148843770000108e+00,0.000000000000000000e+00
2.815357361999999863e+00,-6.661012717430000230e+00,-2.979179769179999937e+00,-2.101559840850000072e+01,4.433679878710000133e-01,-3.906732559199999955e+00,1.589496850970000041e+00,0.000000000000000000e+00
2.820150997999999909e+00,-3.970039941530000505e+00,-3.353113619580000204e+00,-1.705987457710000044e+01,2.406698763369999883e-01,-3.004424333569999828e+00,1.689399242400000167e+00,0.000000000000000000e+00
2.825231001000000131e+00,6.256430046259999322e+00,-4.842420449440000496e+00,-1.454845757339999857e+01,3.292779624459999943e-01,-1.921904325490000343e+00,1.861158609390000107e+00,0.000000000000000000e+00
2.830207678999999921e+00,1.456892051569999857e+01,-2.041211959710000023e+00,-1.538094533910000017e+01,5.689193606379999713e-01,-5.143790841100001066e-01,2.350857019419999805e+00,0.000000000000000000e+00
2.835133642999999815e+00,8.499474345739999492e+00,2.112330884159999922e+00,-1.807049889580000013e+01,7.360684871670000184e-01,-6.826262921089999713e-02,2.467197418209999604e+00,0.000000000000000000e+00
2.840109775000000170e+00,3.666279113020000091e-01,2.973709228809999772e+00,-2.374904722109999966e+01,7.820892333979999611e-01,1.851423382759999903e-01,2.584402799609999857e+00,0.000000000000000000e+00
2.845143243999999960e+00,1.353077719859999917e+00,-1.707781092350000085e+00,-2.155294470550000341e+01,8.690073490140000079e-01,4.974277019500000230e-01,2.670068979259999864e+00,0.000000000000000000e+00
2.850154292000000034e+00,6.323161987799999828e+00,-1.258474459449999916e+00,-1.567974123869999836e+01,1.240903377530000018e+00,1.139349937440000016e+00,2.778510808940000132e+00,0.000000000000000000e+00
2.855127662000000122e+00,9.635915832200000253e+00,4.386528081469999729e-01,-1.231806466569999969e+01,1.485533475880000065e+00,1.908741712569999915e+00,3.033383131029999902e+00,0.000000000000000000e+00
2.860032996000000161e+00,1.063179967790000013e+01,2.976148365590000067e-01,-9.790400875990000529e+00,1.575263500209999945e+00,2.637411355969999871e+00,3.141288042070000230e+00,0.000000000000000000e+00
2.865074304000000183e+00,1.143095683650000183e+01,-3.750151793650000065e-01,-9.936528425800000619e+00,1.570667862890000155e+00,3.037724256520000221e+00,3.095477104190000439e+00,0.000000000000000000e+00
2.869930875000000103e+00,1.293961134089999909e+01,-5.737205827519999968e-01,-9.164283824110000864e+00,1.621270179749999985e+00,2.916523218150000041e+00,2.892877578740000288e+00,0.000000000000000000e+00
2.874905226000000091e+00,1.337129595400000071e+01,-1.000508948250000030e+00,-8.483942430089999931e+00,1.737074851990000113e+00,2.598727226259999856e+00,2.754000663759999856e+00,0.000000000000000000e+00
2.879852596000000098e+00,1.280728143029999977e+01,-1.781040974349999972e+00,-8.288414597290000074e+00,1.836617350580000085e+00,2.390043973920000120e+00,2.661261081699999753e+00,0.000000000000000000e+00
2.884961517999999892e+00,1.164119766970000036e+01,-1.681189438030000094e+00,-7.987866301100000399e+00,1.866939783100000083e+00,2.284562110900000054e+00,2.520058631900000012e+00,0.000000000000000000e+00
2.889856509999999989e+00,1.018166170880000010e+01,-1.854603930950000090e-01,-7.821213265129999925e+00,1.905396103859999801e+00,2.250057220459999563e+00,2.225013732909999931e+00,0.000000000000000000e+00
2.895107993999999962e+00,8.471208620720000582e+00,-1.210031550259999845e-02,-8.835655096330000902e+00,2.004225492479999815e+00,2.371838808060000137e+00,1.932412624359999942e+00,0.000000000000000000e+00
2.900176727999999926e+00,6.929028863330001009e+00,8.248804873300000229e-02,-9.876250190449999522e+00,2.149896383290000212e+00,2.671190500259999823e+00,1.741396784779999818e+00,0.000000000000000000e+00
2.904980756000000053e+00,5.604440301980000427e+00,5.477595179459999741e-01,-1.039945690299999903e+01,2.361019134520000229e+00,2.983577013019999669e+00,1.566573500629999893e+00,0.000000000000000000e+00
2.909947450999999852e+00,4.500044643599999894e+00,9.313037484639998809e-01,-1.066192710520000020e+01,2.535277605059999662e+00,3.300991773609999846e+00,1.400148272510000069e+00,0.000000000000000000e+00
2.915170421000000012e+00,3.665598145019999698e+00,1.002916374710000058e+00,-1.085095797720000022e+01,2.733879804609999464e+00,3.647048711780000119e+00,1.240021228789999874e+00,0.000000000000000000e+00
2.920166492999999974e+00,3.430554294399999815e+00,9.519791644850000845e-01,-1.106756191569999892e+01,2.902029991150000043e+00,3.972489356990000164e+00,1.090573906900000001e+00,0.000000000000000000e+00
2.925014240999999959e+00,3.360557505840000125e+00,1.004590664600000016e+00,-1.110928391920000102e+01,3.029186487200000499e+00,4.251234054569999365e+00,9.026347994800000274e-01,0.000000000000000000e+00
2.930181844999999896e+00,3.105010673149999789e+00,1.234181729719999954e+00,-1.106816864950000046e+01,3.121704339979999521e+00,4.477659225460000059e+00,7.371273040770000007e-01,0.000000000000000000e+00
