t,ax,ay,az,wx,wy,wz,zv
4.792702999999999720e-03,-2.578642866270000056e+00,-1.437488379819999995e-01,-9.443698731379999600e+00,3.857790958139999896e-03,6.991471163929999753e-03,8.639910258350001759e-03,1.000000000000000000e+00
9.944016999999999440e-03,-2.592061150770000211e+00,-1.366221096409999947e-01,-9.452737777889998583e+00,9.420554852109999785e-05,-5.992405116560000494e-03,2.122572856019999763e-03,1.000000000000000000e+00
1.500194499999999917e-02,-2.598362881259999924e+00,-1.687954730909999868e-01,-9.441819493510001493e+00,-1.179605443029999902e-02,-1.057348027830000078e-02,2.053378522399999795e-02,1.000000000000000000e+00
1.990113799999999877e-02,-2.573099260669999833e+00,-1.546039757290000038e-01,-9.458139929189998796e+00,-9.024179540570000449e-03,3.900630865250000103e-03,1.761561073359999702e-02,1.000000000000000000e+00
2.508031599999999833e-02,-2.567361301540000085e+00,-1.606502518900000120e-01,-9.471110469919999275e+00,-2.264915034169999800e-02,-4.645326640460000107e-03,9.872790426019999871e-03,1.000000000000000000e+00
3.009189899999999834e-02,-2.570314306130000226e+00,-1.366886172719999903e-01,-9.455473340330000198e+00,-8.369809016589999096e-03,-2.277954295279999847e-02,-1.633553183639999953e-03,1.000000000000000000e+00
3.498701099999999842e-02,-2.617110544089999991e+00,-1.283691446159999916e-01,-9.465608949900000013e+00,-5.209004972130000348e-03,-1.419569179420000250e-02,-8.193089161069999756e-04,1.000000000000000000e+00
4.011040700000000070e-02,-2.557910459369999945e+00,-9.940159146989999139e-02,-9.402428563360000879e+00,-4.886331502350000841e-03,2.030976582319999821e-03,-1.217030454429999901e-02,1.000000000000000000e+00
4.514592700000000236e-02,-2.656058406649999704e+00,-1.176092017380000049e-01,-9.450777875989999188e+00,5.740694701670000059e-03,-1.483062934130000010e-02,1.898400858040000250e-02,1.000000000000000000e+00
5.010842599999999758e-02,-2.523058633950000296e+00,-1.319199415660000096e-01,-9.448736141030000368e+00,-7.660023868080000423e-03,2.114518545569999894e-03,-9.859479032459999084e-03,1.000000000000000000e+00
5.491229899999999775e-02,-2.626329331079999996e+00,-1.269093377290000102e-01,-9.423445047910000483e+00,-1.969141699370000054e-02,-1.011093705889999986e-02,9.148701094090000083e-03,1.000000000000000000e+00
6.010124800000000295e-02,-2.572356041090000378e+00,-1.463154735999999956e-01,-9.462940607469999321e+00,-1.473009120669999984e-03,-1.444126944990000057e-02,5.302091129120000378e-03,1.000000000000000000e+00
6.512617299999999554e-02,-2.571989545860000170e+00,-1.178373662050000020e-01,-9.469228309439998270e+00,-5.990740843119999638e-03,-1.088226214050000071e-02,3.324045101179999573e-03,1.000000000000000000e+00
7.008880600000000349e-02,-2.550263744010000000e+00,-1.736019965900000295e-01,-9.449958376299999685e+00,-1.651542633770000310e-02,-1.278015132990000143e-02,-5.891863722349999916e-03,1.000000000000000000e+00
7.511645599999999812e-02,-2.613175834990000279e+00,-1.735767708170000145e-01,-9.451995435089999731e+00,-6.069996394220000639e-03,5.408486351370000479e-03,1.086500752720000011e-02,1.000000000000000000e+00
8.011714400000000125e-02,-2.565867263590000391e+00,-1.080385508440000059e-01,-9.444851993069999452e+00,3.054957836870000019e-03,-2.474677748980000196e-03,-4.490968771279999633e-03,1.000000000000000000e+00
8.514964099999999814e-02,-2.602808170240000329e+00,-1.104160205650000087e-01,-9.448167401230000095e+00,-3.073518862949999562e-03,-6.699308287350000087e-04,-5.306863225999999302e-03,1.000000000000000000e+00
9.010657499999999431e-02,-2.611225869970000169e+00,-1.401888987450000124e-01,-9.451587438809999853e+00,-1.053516659889999936e-02,1.650605350729999685e-02,-8.597315754740000220e-04,1.000000000000000000e+00
9.505052099999999893e-02,-2.592004159890000103e+00,-1.711316061550000045e-01,-9.458193705199999357e+00,3.470337018369999520e-03,1.088163536039999865e-02,-1.196672394869999906e-02,1.000000000000000000e+00
9.990791799999999834e-02,-2.617491360099999831e+00,-1.377976653599999879e-01,-9.452623796119999255e+00,-1.534685678779999958e-02,-1.220674254000000004e-03,-7.358062081039999647e-03,1.000000000000000000e+00
1.049479859999999931e-01,-2.609947228330000257e+00,-1.262186885840000106e-01,-9.479619939590000044e+00,6.485437625090000741e-04,1.980733126399999988e-02,5.055152811109999735e-03,1.000000000000000000e+00
1.100846870000000005e-01,-2.625211140699999834e+00,-1.258953657799999903e-01,-9.457102987360000768e+00,-5.178722203710000443e-04,-1.550219487400000167e-03,6.981482729320000018e-03,1.000000000000000000e+00
1.151184380000000035e-01,-2.557045951490000135e+00,-1.442131127590000061e-01,-9.497375376509999967e+00,-2.243639901280000248e-03,2.284630667420000077e-03,-7.753415033220000148e-03,1.000000000000000000e+00
1.200177850000000018e-01,-2.661746096889999968e+00,-1.494912632250000040e-01,-9.439871866569999881e+00,4.232943523679999834e-03,-6.752599030729999029e-03,6.530256941909999557e-03,1.000000000000000000e+00
1.251445029999999903e-01,-2.584089441240000173e+00,-1.392460558030000073e-01,-9.479101468679999698e+00,9.975595399740000077e-03,-6.515324115750000152e-03,-1.670585246760000059e-03,1.000000000000000000e+00
1.300583060000000124e-01,-2.603931913569999868e+00,-1.392346028280000148e-01,-9.476785592949999781e+00,-7.080636452880000389e-03,-9.080586023629998865e-03,1.469583017750000038e-03,1.000000000000000000e+00
1.351198489999999863e-01,-2.582907537979999724e+00,-9.619131505330000276e-02,-9.445292138050000119e+00,-3.953844774510000167e-03,-2.899335697289999892e-03,9.989789687099999947e-04,1.000000000000000000e+00
1.399553450000000088e-01,-2.540101538690000105e+00,-1.513696151839999948e-01,-9.495248885880000600e+00,1.390265999359999822e-03,2.863695845010000209e-03,-1.693979091940000029e-02,1.000000000000000000e+00
1.450354500000000102e-01,-2.572904614880000107e+00,-1.438669388029999996e-01,-9.452397586150000919e+00,4.819118417800000165e-03,1.206658501179999968e-02,-1.741984486580000144e-02,1.000000000000000000e+00
1.499276290000000067e-01,-2.625905844970000125e+00,-1.163075628219999991e-01,-9.434331183580001223e+00,-3.439489984880000038e-03,1.560674980279999971e-02,2.663946477699999718e-03,1.000000000000000000e+00
1.549145299999999947e-01,-2.634740308809999654e+00,-1.484716469869999944e-01,-9.450086971119999291e+00,8.188389241699999335e-03,5.449270829559999668e-03,1.476514246310000125e-02,1.000000000000000000e+00
1.598841400000000079e-01,-2.538800100709999619e+00,-1.248104748870000058e-01,-9.443419914439999729e+00,2.985659986730000107e-03,-5.377175752070000557e-03,4.384407773609999733e-03,1.000000000000000000e+00
1.649116720000000091e-01,-2.567973588220000103e+00,-1.701418096660000101e-01,-9.466405653230001604e+00,7.926660589870000370e-03,2.101344056430000211e-03,-6.779483519490000490e-04,1.000000000000000000e+00
1.699962060000000108e-01,-2.581480720050000066e+00,-1.606376298699999927e-01,-9.472128707050000429e+00,1.110842078919999955e-02,6.188566330820000029e-04,-4.273987840859999610e-03,1.000000000000000000e+00
1.750951400000000102e-01,-2.606983702349999987e+00,-1.723770944370000002e-01,-9.459725737080001196e+00,-1.637608185410000319e-02,1.010261848570000003e-02,-1.657227519900000270e-03,1.000000000000000000e+00
1.799433360000000093e-01,-2.583586752410000020e+00,-1.405397123430000006e-01,-9.487685757150000398e+00,-4.433420952410000240e-03,-1.649433979759999972e-03,-5.866475403310000315e-03,1.000000000000000000e+00
1.849133050000000000e-01,-2.586323483899999776e+00,-1.245903567300000042e-01,-9.423916757069999761e+00,-2.318236511199999860e-03,-2.291426062579999883e-05,6.916609127069999049e-04,1.000000000000000000e+00
1.901105110000000098e-01,-2.596753692500000099e+00,-1.188971043909999858e-01,-9.462661790529999450e+00,2.146068960429999960e-03,-8.704025298360000551e-03,9.690565057100000669e-04,1.000000000000000000e+00
1.949365829999999966e-01,-2.550342362199999879e+00,-1.250156512030000111e-01,-9.470610119179999842e+00,8.187381550669999702e-03,3.212172538039999824e-03,-7.836882956329999442e-03,1.000000000000000000e+00
2.000314410000000043e-01,-2.593303552050000071e+00,-1.534742958460000029e-01,-9.458602870529999151e+00,1.751611242069999819e-03,1.611446402970000136e-02,7.486259564760000366e-03,1.000000000000000000e+00
2.049133300000000046e-01,-2.562773096969999997e+00,-1.652550240050000008e-01,-9.455428332140000336e+00,1.839364506300000118e-02,3.323495853689999863e-03,-5.052033811810000344e-03,1.000000000000000000e+00
2.101095159999999962e-01,-2.576985162190000178e+00,-1.320311559879999985e-01,-9.455153606860001503e+00,3.505713772029999970e-03,-5.425356328489999193e-03,1.519836252559999927e-03,1.000000000000000000e+00
2.151157770000000080e-01,-2.576090259179999897e+00,-1.248860791400000086e-01,-9.464053537150000750e+00,8.856289088729998871e-03,-8.566272445019999793e-03,-4.519432317470000252e-03,1.000000000000000000e+00
2.201530100000000101e-01,-2.571878486699999744e+00,-1.346172543579999825e-01,-9.480114445110000787e+00,5.225388798859999934e-03,1.137376856060000156e-02,-1.826533349229999929e-03,1.000000000000000000e+00
2.251390540000000051e-01,-2.582582836069999832e+00,-1.235581002050000071e-01,-9.439606493630000372e+00,1.197871379549999941e-02,5.583700723950000243e-03,5.862190388140000805e-03,1.000000000000000000e+00
2.301370819999999928e-01,-2.544485452870000053e+00,-1.608084563920000043e-01,-9.483456741279999491e+00,8.663793094459998345e-03,-5.771850235760000308e-03,-6.243225187060000986e-03,1.000000000000000000e+00
2.351151680000000133e-01,-2.596611069159999730e+00,-1.401545215509999998e-01,-9.444640396149999617e+00,-4.721404518930000759e-03,-1.943415030840000028e-03,-5.578060634430000858e-03,1.000000000000000000e+00
2.400914259999999967e-01,-2.541494454359999988e+00,-1.309507677400000014e-01,-9.463791671339999212e+00,9.230028954330001239e-04,5.293450318279999470e-03,-1.222352311020000193e-02,1.000000000000000000e+00
2.450942299999999963e-01,-2.604448338660000140e+00,-1.650325951599999896e-01,-9.433678272630000805e+00,2.660678233949999652e-03,1.550036482510000133e-03,-8.361550979319998939e-03,1.000000000000000000e+00
2.499074769999999890e-01,-2.570389709450000115e+00,-1.974306159450000264e-01,-9.460127303620000205e+00,-1.054080436010000014e-03,1.560048945250000138e-02,-1.423624344170000208e-02,1.000000000000000000e+00
2.548949819999999922e-01,-2.585360191829999987e+00,-1.854469673580000089e-01,-9.442814349760000781e+00,3.534961491820000183e-03,1.044997479770000057e-02,-3.815340809520000043e-03,1.000000000000000000e+00
2.600859600000000049e-01,-2.575437932749999881e+00,-1.368732348579999869e-01,-9.462449024560001476e+00,2.697261981670000339e-03,-8.850498124959998991e-03,4.968176595869999539e-03,1.000000000000000000e+00
2.651200249999999814e-01,-2.552299926009999886e+00,-1.797606105510000107e-01,-9.474927397860000156e+00,-5.022099358030000750e-04,2.711855806409999969e-03,-3.906688187270000029e-03,1.000000000000000000e+00
2.700863270000000149e-01,-2.599754335620000134e+00,-1.449209322349999940e-01,-9.444673129369999032e+00,1.494349725539999979e-02,6.933622062210000568e-03,-4.567594733090000070e-04,1.000000000000000000e+00
2.751075089999999723e-01,-2.583888365709999579e+00,-1.282671638120000124e-01,-9.441431955499998807e+00,-5.198782309890000695e-03,2.948210109030000026e-03,-1.295836875220000069e-03,1.000000000000000000e+00
2.799743780000000237e-01,-2.556547646579999888e+00,-1.498719605050000125e-01,-9.456140279810000493e+00,3.899334464219999640e-03,1.329101156440000127e-03,-6.512306630609999807e-03,1.000000000000000000e+00
2.849043179999999897e-01,-2.586622174590000434e+00,-1.699939256280000033e-01,-9.446337263189999334e+00,-9.457063861190001183e-03,-7.340706419200000027e-03,1.623320160430000159e-03,1.000000000000000000e+00
2.898952770000000068e-01,-2.597497496609999956e+00,-1.690189431159999922e-01,-9.482520921729999941e+00,-4.814869724210000396e-03,2.099221758540000329e-02,1.231611939150000033e-03,1.000000000000000000e+00
2.950709200000000143e-01,-2.554733582899999966e+00,-1.584378548039999945e-01,-9.486879701459999481e+00,5.040796939280000298e-03,8.016305975620001065e-03,-8.683071471750000714e-03,1.000000000000000000e+00
3.000762410000000213e-01,-2.578829328749999927e+00,-1.415147222539999972e-01,-9.442587555270000266e+00,8.206387981769999382e-03,5.907922983170000621e-03,9.750904515389999250e-03,1.000000000000000000e+00
3.049922740000000076e-01,-2.518504331649999983e+00,-1.580504263889999927e-01,-9.432673479500000013e+00,2.311918325720000236e-02,8.389023132619998976e-03,-6.964176893229999388e-03,1.000000000000000000e+00
3.101052550000000241e-01,-2.601896608350000140e+00,-1.558173153079999984e-01,-9.463885779369999085e+00,-2.902383683249999680e-03,2.700889948760000405e-03,1.120043219999999808e-03,1.000000000000000000e+00
3.151278940000000195e-01,-2.568505503139999924e+00,-1.629623647570000167e-01,-9.463900392410000251e+00,-1.665873453019999992e-02,8.407027460630000365e-03,-6.659423466770000508e-03,1.000000000000000000e+00
3.201723300000000050e-01,-2.602752348390000137e+00,-1.259068735549999929e-01,-9.446047340339999820e+00,1.212344504890000042e-02,2.525177225469999939e-02,-9.120430331679999988e-04,1.000000000000000000e+00
3.249076459999999944e-01,-2.600043381699999934e+00,-1.439414105450000092e-01,-9.471907757780000381e+00,-3.709113225340000559e-03,-1.823751605120000089e-03,-1.006858539769999979e-03,1.000000000000000000e+00
3.301075099999999929e-01,-2.562541626299999820e+00,-1.521370924250000090e-01,-9.443000812250000209e+00,3.402542090039999915e-03,9.852886199950000937e-03,-3.166529349979999800e-03,1.000000000000000000e+00
3.351518130000000206e-01,-2.534198744390000257e+00,-1.499155439179999938e-01,-9.454242337230001070e+00,1.613372564320000174e-02,-5.944863893090000274e-03,-1.123510580509999926e-02,1.000000000000000000e+00
3.401251229999999737e-01,-2.611945416409999776e+00,-1.653042882410000192e-01,-9.463603455289998578e+00,5.679233931009999674e-03,1.468064263459999998e-02,-1.763089792799999930e-03,1.000000000000000000e+00
3.451000060000000147e-01,-2.575028767430000087e+00,-1.975865371590000141e-01,-9.474685405800000737e+00,-1.323702186350000053e-02,6.023047491909999836e-03,-1.026360550899999913e-03,1.000000000000000000e+00
3.500617409999999818e-01,-2.604428172650000040e+00,-1.471241870340000146e-01,-9.419919796389999433e+00,-1.443937979640000022e-02,-5.011934787030000206e-03,1.031333766879999857e-02,1.000000000000000000e+00
3.549513109999999916e-01,-2.540537007500000222e+00,-1.378894352960000069e-01,-9.444407171910000898e+00,1.654024003070000016e-03,-1.431923476049999861e-03,-1.121340785180000195e-03,1.000000000000000000e+00
3.601026339999999770e-01,-2.589913325089999940e+00,-1.524236634149999936e-01,-9.483067449700000040e+00,-9.570081718270000148e-03,1.365885324779999958e-02,2.074653515590000035e-03,1.000000000000000000e+00
3.651186499999999890e-01,-2.581194304320000299e+00,-1.439231077040000195e-01,-9.458397118819998894e+00,-1.319276820870000227e-02,3.172636497770000077e-03,6.419945508240000251e-03,1.000000000000000000e+00
3.701072919999999766e-01,-2.538231068650000033e+00,-1.510016586549999817e-01,-9.446762795130000612e+00,-2.331933472309999714e-03,-7.595570757990000033e-03,-5.081245210020000382e-03,1.000000000000000000e+00
3.751138010000000245e-01,-2.615454009060000029e+00,-1.785873289880000048e-01,-9.486201071549999142e+00,-6.181677337740000035e-03,6.275894120340000729e-03,6.646983325479999261e-03,1.000000000000000000e+00
3.801059669999999890e-01,-2.593117089570000200e+00,-1.487479157780000061e-01,-9.480046640569998573e+00,-2.643077634270000423e-03,-2.440192503849999799e-03,-8.051982149479999351e-05,1.000000000000000000e+00
3.851678339999999867e-01,-2.589887606120000019e+00,-1.583954039010000148e-01,-9.489900510589999172e+00,-4.601729102429999961e-03,1.778652891520000195e-02,-1.835664384999999852e-03,1.000000000000000000e+00
3.901137439999999845e-01,-2.530059452629999761e+00,-1.342642031369999933e-01,-9.437313414260001920e+00,2.381223021080000179e-03,-2.042512968179999860e-02,-1.796009205279999743e-02,1.000000000000000000e+00
3.950352240000000181e-01,-2.615656253630000094e+00,-1.295929142570000081e-01,-9.450261158640000048e+00,1.510665845130000108e-02,4.117334727199999274e-03,5.916354246439999888e-03,1.000000000000000000e+00
4.000911260000000191e-01,-2.552396664379999791e+00,-1.510922230149999990e-01,-9.459709370460000599e+00,7.001535966989999929e-03,-7.365219295020000723e-03,-1.432058284989999857e-03,1.000000000000000000e+00
4.048839149999999831e-01,-2.549556472519999950e+00,-1.471689120909999982e-01,-9.423603453340000158e+00,-5.143302492800000229e-03,2.606032881889999708e-03,-1.624482125040000238e-02,1.000000000000000000e+00
4.101218790000000225e-01,-2.565360775369999846e+00,-1.535740298930000081e-01,-9.467161440039999931e+00,-4.578125197439998975e-03,5.626273341479999654e-04,-1.152336224910000158e-02,1.000000000000000000e+00
4.151172770000000067e-01,-2.588230194309999899e+00,-1.487778085929999938e-01,-9.464673714869999088e+00,2.782909898090000014e-03,-6.748502608389999810e-03,2.460835734380000146e-03,1.000000000000000000e+00
4.201216620000000068e-01,-2.555593414600000113e+00,-1.449656846919999964e-01,-9.439441658460001605e+00,1.409966684879999758e-02,-2.300709486010000214e-03,-3.788433969019999997e-03,1.000000000000000000e+00
4.249115259999999838e-01,-2.597394620749999827e+00,-1.531371911119999984e-01,-9.435980704349999471e+00,6.593992002310001058e-03,9.369932115080000304e-03,-6.477409042419999749e-03,1.000000000000000000e+00
4.300809640000000100e-01,-2.546213007309999554e+00,-1.549868741000000050e-01,-9.494482577679999480e+00,1.489582471549999974e-02,4.791007842870000262e-03,-1.339789666239999885e-02,1.000000000000000000e+00
4.351093870000000141e-01,-2.587653563459999972e+00,-1.546578613409999858e-01,-9.461893144239999387e+00,2.016064710920000003e-02,3.624165896329999744e-03,-5.851823836570000693e-03,1.000000000000000000e+00
4.401179339999999884e-01,-2.566060740340000201e+00,-1.615690472350000129e-01,-9.428927863230001094e+00,-3.111574100329999714e-03,-7.019391749049999803e-03,-7.855312433089998037e-04,1.000000000000000000e+00
4.450861320000000232e-01,-2.606039407239999939e+00,-1.628855549269999925e-01,-9.459973574360001081e+00,-3.850537352260000046e-03,7.917550392450000210e-03,4.478739574550000269e-03,1.000000000000000000e+00
4.500594379999999783e-01,-2.543901223240000231e+00,-1.999008054510000021e-01,-9.467491694899999644e+00,1.689234049989999948e-03,-3.103236667809999676e-03,-1.098778005689999941e-02,1.000000000000000000e+00
4.549418740000000239e-01,-2.581242235119999950e+00,-1.746661917550000054e-01,-9.436739998289999320e+00,1.078131888060000071e-02,1.075530238450000085e-02,-5.942943505939999975e-03,1.000000000000000000e+00
4.600552190000000152e-01,-2.545723762490000208e+00,-1.771124523959999864e-01,-9.445036701989998562e+00,-3.763725748289999725e-03,-1.297642290589999872e-02,-1.964867115020000124e-02,1.000000000000000000e+00
4.650372970000000161e-01,-2.618162975759999789e+00,-1.441362115979999969e-01,-9.477847084700000480e+00,-4.395043069960000311e-04,1.509054098279999931e-03,9.903729893269999640e-03,1.000000000000000000e+00
4.701031279999999812e-01,-2.563351189120000040e+00,-1.256545244950000029e-01,-9.419611753350000782e+00,-5.527044180779999531e-03,-5.717337131499999545e-03,-7.777820341290000127e-03,1.000000000000000000e+00
4.750771739999999910e-01,-2.586712775479999671e+00,-1.497560151079999902e-01,-9.451914771069999333e+00,9.350685402750000957e-03,1.831103581940000035e-03,-8.911692537369999764e-03,1.000000000000000000e+00
4.799595799999999968e-01,-2.605174899370000130e+00,-1.760859406260000259e-01,-9.466341355820000913e+00,3.872246481480000162e-03,-1.486406382170000172e-02,4.620990715920000533e-03,1.000000000000000000e+00
4.851517390000000263e-01,-2.507851127949999981e+00,-1.178269544089999982e-01,-9.452433826500000080e+00,-8.341239299630001441e-04,3.927075304090000391e-04,-1.083761733029999993e-02,1.000000000000000000e+00
4.899458019999999858e-01,-2.614581902399999880e+00,-1.345632043499999930e-01,-9.483046406910000670e+00,1.443153480070000000e-03,-2.097573364149999797e-03,2.318505896260000462e-03,1.000000000000000000e+00
4.950476249999999911e-01,-2.574967684890000275e+00,-1.782192080620000063e-01,-9.444398988610000600e+00,6.413027178500000335e-03,5.259044468400000255e-03,-7.467412389809999912e-03,1.000000000000000000e+00
5.000870109999999702e-01,-2.568439159900000046e+00,-1.787465746699999913e-01,-9.492984448080001414e+00,2.277121413499999872e-03,-6.298794411119999943e-03,-5.404448136689999661e-03,1.000000000000000000e+00
5.051895790000000552e-01,-2.557094466809999744e+00,-1.118586297220000025e-01,-9.453428098239998079e+00,6.445925100710000154e-04,1.873665489259999971e-03,2.126535400750000128e-05,1.000000000000000000e+00
5.100340530000000427e-01,-2.518031453439999900e+00,-1.499968015940000010e-01,-9.464889987969998586e+00,6.158844917080000822e-04,-2.972120884809999978e-03,-1.784891076390000136e-02,1.000000000000000000e+00
5.151174149999999674e-01,-2.556539755540000236e+00,-1.974592027189999710e-01,-9.445857955239999271e+00,-3.903814125810000247e-03,1.230426412079999900e-02,-9.128543548290001322e-03,1.000000000000000000e+00
5.199194529999999759e-01,-2.534250474579999857e+00,-1.261234937140000012e-01,-9.446579839780000043e+00,-4.021774977449999941e-03,1.586882956329999789e-02,-8.135791867969999550e-03,1.000000000000000000e+00
5.249038419999999538e-01,-2.585279527810000033e+00,-1.259869987200000208e-01,-9.451113391549998966e+00,5.836122203619999345e-03,-7.162113673989999561e-03,-6.144022569060001229e-03,1.000000000000000000e+00
5.300711890000000537e-01,-2.586860951779999862e+00,-1.591443956380000080e-01,-9.435282200689998788e+00,1.542222220449999959e-02,4.231147002429999984e-03,-4.815683700140000086e-03,1.000000000000000000e+00
5.351487040000000306e-01,-2.578888073199999909e+00,-1.891671934580000103e-01,-9.465119120549999820e+00,4.567175172270000055e-03,-2.205027500170000064e-03,-3.572193905710000037e-03,1.000000000000000000e+00
5.401168010000000352e-01,-2.588185770639999994e+00,-1.747567743820000186e-01,-9.445229009689999344e+00,4.560948349539999808e-03,-8.619891013949999977e-04,7.439509965479999300e-03,1.000000000000000000e+00
5.449039660000000174e-01,-2.528901807030000004e+00,-1.962033574389999979e-01,-9.447589893600000011e+00,-3.339580725880000184e-03,-5.101874005050000514e-03,-9.515162557360000786e-03,1.000000000000000000e+00
5.499223819999999874e-01,-2.557460085250000237e+00,-1.201310392330000032e-01,-9.450734036849999242e+00,1.398891583089999918e-02,2.920315600929999922e-03,-8.236958645280000393e-03,1.000000000000000000e+00
5.547995470000000040e-01,-2.582555363540000037e+00,-1.474438931079999904e-01,-9.450210305229999719e+00,5.270693916829999846e-03,5.289210937919999397e-03,1.218225806949999930e-04,1.000000000000000000e+00
5.600965300000000369e-01,-2.620008895879999855e+00,-1.630699898499999856e-01,-9.478090830330000216e+00,7.478867191819999274e-03,6.725946441290001293e-04,1.642917655410000219e-02,1.000000000000000000e+00
5.651409499999999753e-01,-2.482244393009999772e+00,-1.537137671569999975e-01,-9.472682249280000022e+00,5.034037865700000287e-03,-9.249305352570000305e-03,-8.139077574010000760e-03,1.000000000000000000e+00
5.700283619999999551e-01,-2.557021109309999929e+00,-1.879882128060000046e-01,-9.461863333630001094e+00,5.988275515850000237e-04,-8.770173415540000877e-03,-1.253937743599999911e-02,1.000000000000000000e+00
5.751066670000000158e-01,-2.603676185240000329e+00,-1.734826262599999946e-01,-9.442364267909999498e+00,9.512401185930000752e-03,-1.078475825489999887e-02,-2.156721195209999973e-03,1.000000000000000000e+00
5.801103459999999989e-01,-2.565048056159999756e+00,-1.282246307119999928e-01,-9.433308270269998630e+00,9.663349017499999610e-03,6.857126951220001050e-03,-8.642169646920000101e-03,1.000000000000000000e+00
5.849284599999999834e-01,-2.561655491109999794e+00,-1.892486429299999884e-01,-9.460167051100000890e+00,1.245007012039999958e-02,-1.151668257079999872e-03,1.512971939520000100e-03,1.000000000000000000e+00
5.899104670000000494e-01,-2.567548933070000317e+00,-1.746867961520000290e-01,-9.448039975460000406e+00,-3.961954498659999856e-04,5.163007415829999613e-03,-1.142148301010000033e-02,1.000000000000000000e+00
5.951042170000000464e-01,-2.591643802140000119e+00,-1.666723617239999899e-01,-9.471639462229999751e+00,-6.716885603960000631e-03,7.146598771210000041e-03,3.212528536099999981e-03,1.000000000000000000e+00
5.999542780000000075e-01,-2.535104753320000182e+00,-1.902602676579999985e-01,-9.442090127140000178e+00,9.949740953740000490e-03,3.783703781659999987e-03,-3.202051157130000013e-03,1.000000000000000000e+00
6.051498210000000322e-01,-2.546972008980000091e+00,-1.759312067220000220e-01,-9.435077618030000224e+00,2.198084024709999994e-03,-7.250903639939999812e-03,-2.828822238369999888e-03,1.000000000000000000e+00
6.101055330000000332e-01,-2.549312726890000214e+00,-1.829065804270000040e-01,-9.420430083999999482e+00,6.000191438940000004e-03,4.639908671380000085e-03,-6.178588140760000492e-03,1.000000000000000000e+00
6.150934129999999778e-01,-2.561230251440000050e+00,-1.163681978350000062e-01,-9.438135836560000769e+00,1.530697848650000061e-02,9.053868241610000742e-03,-1.512854266909999940e-02,1.000000000000000000e+00
6.201100290000000070e-01,-2.571559045490000361e+00,-1.662493505379999958e-01,-9.422734269289998466e+00,1.600229740139999871e-02,-5.502102896569999700e-03,-1.066268887370000126e-02,1.000000000000000000e+00
6.251418220000000137e-01,-2.611777658629999888e+00,-1.878288209929999952e-01,-9.457307570019999332e+00,1.171322166920000032e-02,5.823112092910000086e-03,-4.217817913739999904e-03,1.000000000000000000e+00
6.300658919999999608e-01,-2.597877143569999880e+00,-1.973972251320000038e-01,-9.456530155910000346e+00,-1.462363731120000163e-02,-9.355592541400000600e-03,3.602464916179999588e-03,1.000000000000000000e+00
6.351062729999999990e-01,-2.574711956559999848e+00,-1.567795296700000007e-01,-9.435404950289999704e+00,7.144291885200000527e-05,7.474727928640000421e-03,5.855835042890000786e-04,1.000000000000000000e+00
6.400512910000000222e-01,-2.599758719540000040e+00,-1.375533443430000113e-01,-9.425136654250000134e+00,6.184981670229999957e-03,2.576591446999999986e-03,-4.739514552060000371e-03,1.000000000000000000e+00
6.451119800000000293e-01,-2.586023624170000090e+00,-1.700098355830000074e-01,-9.450915238629999493e+00,-1.233535166830000002e-02,-4.775806795810000858e-03,-2.900778781620000075e-04,1.000000000000000000e+00
6.499500280000000130e-01,-2.558967274940000092e+00,-1.878781765610000043e-01,-9.447653606489998523e+00,1.342477975410000073e-03,3.517548553650000093e-03,-1.847235020250000050e-03,1.000000000000000000e+00
6.549052619999999880e-01,-2.568812961649999949e+00,-1.473980446719999893e-01,-9.445403781739999616e+00,1.049893675370000036e-03,-8.308633230630000505e-03,-1.098617678510000004e-03,1.000000000000000000e+00
6.600811730000000210e-01,-2.579141171179999859e+00,-1.726406772769999987e-01,-9.475102754430000829e+00,-1.471180561929999811e-02,-7.708996534350000089e-03,5.887089297180000090e-03,1.000000000000000000e+00
6.650978629999999558e-01,-2.556637370689999855e+00,-1.294127901840000094e-01,-9.432176051369999925e+00,-1.984474947679999973e-03,1.450311392549999802e-03,-3.675732994449999475e-03,1.000000000000000000e+00
6.701164670000000489e-01,-2.593351775099999923e+00,-1.452761936799999987e-01,-9.478576568019999371e+00,6.586255040020001263e-03,-2.818386768920000136e-03,5.284688435490000023e-03,1.000000000000000000e+00
6.751217999999999941e-01,-2.545161160170000159e+00,-1.570868237869999795e-01,-9.460029103940000184e+00,4.374811891470000401e-03,-5.228468216960000317e-03,5.843145772809999697e-04,1.000000000000000000e+00
6.801079460000000187e-01,-2.573927528190000036e+00,-1.580834701419999988e-01,-9.454096791279999579e+00,7.232388947159999922e-03,-9.787502698600000772e-03,-9.580491110680001629e-03,1.000000000000000000e+00
6.851389100000000454e-01,-2.563193368209999878e+00,-1.287221958369999808e-01,-9.474980004829999913e+00,2.342961262909999936e-03,-2.408172003920000265e-04,2.445934573190000107e-03,1.000000000000000000e+00
6.900433780000000406e-01,-2.541160984620000285e+00,-1.403894262850000074e-01,-9.463141682999999915e+00,-4.653934855010000496e-03,2.568939700719999504e-03,-1.453105453400000031e-02,1.000000000000000000e+00
6.949344130000000286e-01,-2.614302500930000051e+00,-1.723529098440000074e-01,-9.447283604129999901e+00,-1.252582669260000198e-02,-2.898676786570000309e-03,3.712451783940000014e-03,1.000000000000000000e+00
7.001043460000000440e-01,-2.576598208700000114e+00,-1.665782902319999925e-01,-9.473152789400000273e+00,3.859205171469999650e-04,1.168216671790000064e-02,-4.576411098240000183e-03,1.000000000000000000e+00
7.051187690000000341e-01,-2.629321790890000177e+00,-1.772270734860000030e-01,-9.463737895330000427e+00,-2.006330760199999917e-03,1.625243760650000105e-02,1.760480739179999879e-02,1.000000000000000000e+00
7.101222950000000145e-01,-2.538281045270000202e+00,-1.484765697569999932e-01,-9.440519516830001123e+00,-7.976197637619999309e-03,-1.111383782699999941e-03,9.543274063620000788e-04,1.000000000000000000e+00
7.153485550000000526e-01,-2.581535080580000141e+00,-1.542224838649999819e-01,-9.426690313439999969e+00,2.137576229869999744e-03,-5.578769836569999821e-03,-5.261287093159999588e-03,1.000000000000000000e+00
7.200891409999999881e-01,-2.548979549409999823e+00,-1.865279309950000075e-01,-9.432033428029999556e+00,5.070133600380000161e-03,6.423845887179999679e-03,-7.606777362529999406e-03,1.000000000000000000e+00
7.251460619999999802e-01,-2.565265498300000058e+00,-1.678474151190000041e-01,-9.479403081970000144e+00,-3.793344949369999641e-04,-7.264354731890000638e-03,-1.010290998970000097e-02,1.000000000000000000e+00
7.301399440000000407e-01,-2.550437931529999869e+00,-1.711860945550000013e-01,-9.450888350630000545e+00,-2.055353485049999946e-03,4.817898385229999955e-03,-1.770513504740000091e-02,1.000000000000000000e+00
7.350985850000000266e-01,-2.624924724980000068e+00,-1.937726231599999904e-01,-9.462893261199999628e+00,7.969827391210000667e-03,-1.013208366929999917e-02,-4.005050286650000194e-03,1.000000000000000000e+00
7.399061649999999490e-01,-2.597385268400000058e+00,-1.530175193879999840e-01,-9.422892674719999917e+00,1.390077639369999849e-03,-2.744997153059999893e-03,3.162790089850000120e-04,1.000000000000000000e+00
7.449233800000000238e-01,-2.577137430140000074e+00,-1.713203519260000085e-01,-9.470852111250000149e+00,-7.537259254600000950e-03,4.103826358909999872e-05,8.059749379750000709e-04,1.000000000000000000e+00
7.499282619999999566e-01,-2.567029585369999811e+00,-1.748560152389999900e-01,-9.466102870889999465e+00,-2.267430070790000130e-03,-2.902481472119999937e-03,-2.660311758520000121e-03,1.000000000000000000e+00
7.549060739999999825e-01,-2.622968914729999934e+00,-1.903307756109999804e-01,-9.483917929049999529e+00,9.928125888110001657e-03,-1.292665489019999975e-03,2.110875444490000266e-03,1.000000000000000000e+00
7.600691950000000308e-01,-2.519239660190000230e+00,-2.160716035289999837e-01,-9.406945748530000984e+00,-6.375283468509999711e-03,2.348211128260000065e-03,-1.194573007520000063e-02,1.000000000000000000e+00
7.649253999999999776e-01,-2.568809746779999958e+00,-1.502439356220000022e-01,-9.488003152530000150e+00,-3.869271371510000362e-03,-1.329102274029999968e-02,1.068079099060000210e-02,1.000000000000000000e+00
7.701148530000000436e-01,-2.561072430529999888e+00,-1.366673278889999898e-01,-9.454257534799999974e+00,8.844628930090000021e-03,-8.869638666509999103e-03,8.479347452520000347e-04,1.000000000000000000e+00
7.750884649999999487e-01,-2.540001585449999766e+00,-1.473964098370000031e-01,-9.443224099610000977e+00,-9.732718579469999340e-03,-1.493292022500000010e-02,-2.718190895390000094e-03,1.000000000000000000e+00
7.801076599999999805e-01,-2.605351717240000031e+00,-1.412377045450000090e-01,-9.436084164730001334e+00,3.020369680599999714e-03,-3.811408765609999947e-03,5.743597634140000519e-03,1.000000000000000000e+00
7.849130760000000429e-01,-2.566838154450000076e+00,-1.414291628630000019e-01,-9.454256365760000946e+00,-1.011847238989999932e-02,-1.054075546560000014e-02,-5.778220947829999961e-04,1.000000000000000000e+00
7.898433769999999576e-01,-2.576072138999999872e+00,-1.628690604499999917e-01,-9.452108832329999544e+00,5.102442577480000019e-03,1.664664968849999954e-02,4.671893082560000382e-03,1.000000000000000000e+00
7.948738890000000001e-01,-2.549690328030000064e+00,-1.546000302059999942e-01,-9.458171493370000960e+00,-1.166612096129999998e-02,-8.290803059939998512e-03,-2.862111898139999954e-03,1.000000000000000000e+00
7.998958600000000141e-01,-2.560741298880000016e+00,-1.853318165459999778e-01,-9.445342406939998270e+00,-1.529393158850000066e-02,-7.281587459149999227e-04,-1.658733189110000311e-02,1.000000000000000000e+00
8.051530799999999655e-01,-2.627406020400000042e+00,-1.605706473150000091e-01,-9.468336913559999957e+00,9.726453572510000700e-03,-1.266542449589999793e-02,6.288122385739999994e-03,1.000000000000000000e+00
8.100642820000000244e-01,-2.560878076999999919e+00,-1.653462642190000054e-01,-9.463983394519999592e+00,-1.328831072900000035e-02,-1.174801727759999890e-03,3.140975488349999605e-03,1.000000000000000000e+00
8.151007279999999966e-01,-2.556247202329999801e+00,-1.412986318180000089e-01,-9.435433591860000746e+00,-3.630327992139999963e-03,5.043108947579999848e-03,-3.959051799030000041e-03,1.000000000000000000e+00
8.200676279999999929e-01,-2.609441324640000115e+00,-1.462599074879999961e-01,-9.465921669110000991e+00,8.863732218739999238e-03,-1.200658641760000110e-02,7.437841035430000670e-03,1.000000000000000000e+00
8.248767240000000056e-01,-2.582729843320000107e+00,-1.674096082229999949e-01,-9.431479885799999963e+00,-1.309206150469999913e-02,-2.010140568020000063e-03,1.058126427230000020e-02,1.000000000000000000e+00
8.301109639999999512e-01,-2.520361065429999936e+00,-1.273077898620000037e-01,-9.456623094890000303e+00,5.078223068270000529e-03,-9.104128926989999912e-03,-6.995548028499999323e-04,1.000000000000000000e+00
8.350786399999999832e-01,-2.585108262889999953e+00,-1.368428579859999883e-01,-9.472306986230000447e+00,-4.323407192709999899e-04,4.578908905390000408e-03,4.460163414479999429e-03,1.000000000000000000e+00
8.399279269999999631e-01,-2.601249250359999987e+00,-1.429269454060000111e-01,-9.500051902250000069e+00,-7.636831142010001156e-03,-7.838729768989999291e-03,3.119088476520000437e-03,1.000000000000000000e+00
8.451742709999999770e-01,-2.604467627880000080e+00,-1.838455783100000074e-01,-9.417463635409999867e+00,1.369632594289999991e-02,-5.870397202669999995e-03,3.808720735830000044e-03,1.000000000000000000e+00
8.500702049999999677e-01,-2.593267311690000465e+00,-1.650814027380000104e-01,-9.445254144130000640e+00,5.179467145350000364e-03,2.731550019229999661e-03,2.563475864010000219e-03,1.000000000000000000e+00
8.549309019999999926e-01,-2.599597976020000090e+00,-1.210619451410000075e-01,-9.444364501819999091e+00,-2.142707444729999994e-02,1.813952811059999642e-02,4.299188032750000422e-03,1.000000000000000000e+00
8.598947550000000106e-01,-2.556190503709999895e+00,-1.343610693739999973e-01,-9.460397937250000666e+00,9.380268747919999137e-04,-7.327282801270000936e-03,-5.248364526779999983e-03,1.000000000000000000e+00
8.649043140000000074e-01,-2.568222594540000348e+00,-1.310682657729999867e-01,-9.489262212679999919e+00,-8.306530304249999663e-03,-1.575584337119999984e-02,-5.013315007090000421e-03,1.000000000000000000e+00
8.701003569999999909e-01,-2.575459560059999653e+00,-1.403936092699999971e-01,-9.468806284630000292e+00,-3.304546931760000104e-03,8.171370252970001566e-03,-2.967304782940000194e-03,1.000000000000000000e+00
8.750908509999999474e-01,-2.593705410850000170e+00,-1.702009194420000260e-01,-9.479173949389998910e+00,8.686823770399998770e-03,3.456121310590000266e-03,5.681769922380000212e-03,1.000000000000000000e+00
8.799069130000000127e-01,-2.565437055479999895e+00,-1.853180985480000209e-01,-9.431866254770000069e+00,-1.487862551579999942e-03,1.666310615839999842e-02,9.012858383360000322e-03,1.000000000000000000e+00
8.851416939999999789e-01,-2.527401047070000129e+00,-1.713272200580000237e-01,-9.466427865060000002e+00,1.137897139419999978e-03,2.459587529300000155e-03,-9.425039403139998453e-03,1.000000000000000000e+00
8.899101170000000005e-01,-2.604244632779999957e+00,-1.139536201069999977e-01,-9.435712993330000131e+00,-4.936523735520000761e-03,-8.942792192100000592e-03,9.392297826709998174e-03,1.000000000000000000e+00
8.950858739999999480e-01,-2.562941731530000045e+00,-1.486454509170000160e-01,-9.454812830589998995e+00,-9.795065037910000161e-03,-9.562600404020000708e-03,1.171948760749999888e-02,1.000000000000000000e+00
9.000517599999999785e-01,-2.533554016750000137e+00,-1.592896310609999977e-01,-9.454277408539999428e+00,-7.979057263580001261e-04,-7.184060756119999870e-03,-8.955614641310000526e-03,1.000000000000000000e+00
9.051484939999999701e-01,-2.642780699659999843e+00,-1.746050726850000012e-01,-9.445250637000000893e+00,-1.012719934810000057e-03,8.206320926550001241e-03,1.618760824199999906e-02,1.000000000000000000e+00
9.100723840000000120e-01,-2.527442255870000043e+00,-1.401288117210000017e-01,-9.436704926970000074e+00,-4.094877280289999782e-03,-2.647731453179999776e-04,-4.371158313009999852e-03,1.000000000000000000e+00
9.150612569999999613e-01,-2.583804486820000079e+00,-1.616258554560000005e-01,-9.448364969630000942e+00,-4.826712887729999249e-03,1.109278295190000048e-03,1.783322775740000176e-03,1.000000000000000000e+00
9.200841419999999937e-01,-2.576389534390000069e+00,-1.463264425180000050e-01,-9.464199667619999090e+00,-4.066994879390000046e-03,4.054650198669999643e-03,7.921702228490000441e-03,1.000000000000000000e+00
9.251251090000000010e-01,-2.593508426970000169e+00,-1.426128379560000214e-01,-9.464232400850001170e+00,-8.681765757499999500e-03,1.063109934329999930e-02,2.077032113450000186e-03,1.000000000000000000e+00
9.301323769999999547e-01,-2.551865626240000129e+00,-1.189103383320000012e-01,-9.457252040439998453e+00,-9.298883378510000228e-03,2.931174356489999779e-03,-4.053648561239999761e-03,1.000000000000000000e+00
9.350412909999999966e-01,-2.654950153140000157e+00,-1.398639228400000156e-01,-9.426890219920000646e+00,-2.400711644439999879e-03,-1.519382931289999872e-03,1.479419972750000041e-02,1.000000000000000000e+00
9.400077249999999607e-01,-2.524077163349999875e+00,-1.488024955089999879e-01,-9.474950194219999844e+00,3.491148818280000090e-03,7.905526086690000190e-03,-5.164701491590000318e-03,1.000000000000000000e+00
9.451102279999999967e-01,-2.608315243219999857e+00,-1.340114339519999920e-01,-9.420965506050000826e+00,-1.263240352270000172e-02,4.747513681649999547e-03,1.070324610920000107e-02,1.000000000000000000e+00
9.500500830000000452e-01,-2.587000944770000199e+00,-1.509197159919999920e-01,-9.455115028410000733e+00,9.085056954060000264e-04,5.958647467199999249e-03,1.002675481139999984e-02,1.000000000000000000e+00
9.550980529999999469e-01,-2.561326113030000240e+00,-1.712526935170000097e-01,-9.460289800700000029e+00,5.415805615479999530e-03,4.771957639599999981e-03,5.845254287119999899e-03,1.000000000000000000e+00
9.600142839999999955e-01,-2.579478440309999954e+00,-1.508486600499999997e-01,-9.443431604880000663e+00,-3.080078400670000199e-03,6.287891417740000023e-03,5.620094016189999819e-03,1.000000000000000000e+00
9.650994489999999981e-01,-2.566261523600000150e+00,-1.186982482169999936e-01,-9.436694990099999458e+00,2.199528040360000138e-03,1.443341374400000134e-02,1.981667475770000110e-03,1.000000000000000000e+00
9.700808330000000312e-01,-2.581966749999999866e+00,-8.780591928750000608e-02,-9.443845446379999231e+00,-5.241225473580000266e-03,1.491269469259999883e-02,2.323814434929999569e-03,1.000000000000000000e+00
9.751119289999999884e-01,-2.550647190369999873e+00,-1.440692929749999851e-01,-9.485199785549999874e+00,7.455673534419999908e-03,1.103457342830000028e-02,-1.321308873590000023e-02,1.000000000000000000e+00
9.800745349999999689e-01,-2.609293732859999881e+00,-1.034091192110000029e-01,-9.462637240610000333e+00,4.306977149100000603e-03,2.321996726100000017e-05,-2.144310157750000095e-03,1.000000000000000000e+00
9.851458010000000431e-01,-2.601277891929999697e+00,-1.476441101210000106e-01,-9.487453117439999417e+00,2.310515614230000160e-03,1.600895635779999923e-02,6.270757876340000633e-03,1.000000000000000000e+00
9.899216450000000167e-01,-2.570791568249999770e+00,-1.090243926769999955e-01,-9.423298917429999477e+00,9.859746322040001398e-03,6.995405070479999987e-03,-1.060960814360000122e-03,1.000000000000000000e+00
9.950820780000000365e-01,-2.594398069290000386e+00,-1.213577406169999984e-01,-9.466671610689999738e+00,-3.789895912630000373e-03,7.630614563820000210e-03,1.263197511430000017e-02,1.000000000000000000e+00
1.000047324000000071e+00,-2.548573598960000020e+00,-1.307667438089999967e-01,-9.461339602010001570e+00,-2.944736042989999896e-03,-5.842464044689999435e-03,-5.651202984149999477e-03,1.000000000000000000e+00
1.005146265999999899e+00,-2.593225810639999906e+00,-1.357062917040000039e-01,-9.474946102560000583e+00,1.782457903029999874e-02,-5.187216680499999802e-03,7.923145778480000442e-03,1.000000000000000000e+00
1.010097556999999924e+00,-2.579628077919999818e+00,-1.319950252290000015e-01,-9.468311779109999549e+00,9.899013675750000137e-04,-6.874362006780000353e-03,2.403418766329999939e-03,1.000000000000000000e+00
1.015063884999999999e+00,-2.560840375340000197e+00,-1.013434919180000032e-01,-9.488436867780000838e+00,-5.128029268229999937e-03,4.860150162130000111e-03,1.559331780299999916e-03,1.000000000000000000e+00
1.020066375000000081e+00,-2.529191729879999961e+00,-1.592747622859999879e-01,-9.448592933169999597e+00,2.422236278650000130e-02,2.051432244480000042e-02,-1.644510775800000005e-02,1.000000000000000000e+00
1.025117516999999978e+00,-2.604878546770000192e+00,-1.736806513170000288e-01,-9.450617132470000570e+00,-7.919716648760000838e-03,-4.271575249730000245e-03,2.048593387010000030e-02,1.000000000000000000e+00
1.030082291000000039e+00,-2.508091074190000214e+00,-1.582562694250000124e-01,-9.464386714630000697e+00,5.038853734729999319e-03,1.689995266499999885e-02,-3.414481878279999969e-03,1.000000000000000000e+00
1.035062280000000001e+00,-2.598897134270000020e+00,-1.380711485390000159e-01,-9.479280916900000520e+00,1.152986008670000076e-02,1.221322268250000023e-02,5.707261152569999968e-03,1.000000000000000000e+00
1.039983912000000066e+00,-2.592825120880000167e+00,-1.067924871720000030e-01,-9.442261976579999327e+00,1.304417476060000004e-02,-1.089741708710000164e-03,7.160856388510000378e-03,1.000000000000000000e+00
1.045131322000000029e+00,-2.540148592700000041e+00,-1.805975545659999904e-01,-9.436638875999999954e+00,6.534143351020000462e-03,1.068484503779999935e-02,-2.980779856439999889e-03,1.000000000000000000e+00
1.049959944999999895e+00,-2.578011582629999854e+00,-2.149110901159999865e-01,-9.410517177270000033e+00,2.095015905800000008e-02,9.449104778469998370e-03,1.264909189190000123e-02,1.000000000000000000e+00
1.055062283000000045e+00,-2.516509358440000010e+00,-4.606198257480000058e-02,-9.413179674480000259e+00,4.401325248180000191e-03,-5.327004473660000312e-04,1.354578183960000173e-03,1.000000000000000000e+00
1.060041591999999921e+00,-2.550326872370000331e+00,-1.415164575539999969e-01,-9.457148580069999255e+00,-3.507300862109999254e-04,1.928517222400000231e-02,-4.523931071159999900e-03,1.000000000000000000e+00
1.065138149000000034e+00,-2.552778941699999748e+00,-2.983051203779999994e-01,-9.428788162500000070e+00,3.630465362219999475e-03,6.477974355220001042e-03,-5.523942410949999292e-03,1.000000000000000000e+00
1.070060599000000057e+00,-2.536982237629999748e+00,-2.035338464570000117e-01,-9.465790736200000666e+00,-4.119723569600000461e-03,1.780069898809999961e-03,-5.310382228340000330e-03,1.000000000000000000e+00
1.075099881999999951e+00,-2.584384332529999995e+00,-6.286938892300000803e-02,-9.433190781369999556e+00,4.311705473810000661e-03,-8.075440302489999764e-03,1.539635378870000092e-02,1.000000000000000000e+00
1.080091050000000052e+00,-2.548598148880000025e+00,-1.414637135859999895e-01,-9.454518816080000221e+00,7.591612171380000655e-03,-1.217789668589999881e-02,4.368162713940000087e-03,1.000000000000000000e+00
1.085022632000000042e+00,-2.563921390219999985e+00,-1.815185784010000247e-01,-9.414531673609999984e+00,-7.652265485379999323e-03,1.877286285159999665e-02,-4.609785974029999810e-03,1.000000000000000000e+00
1.089980960000000110e+00,-2.588931912830000126e+00,-2.139865591489999996e-01,-9.451541261579999187e+00,1.132024172689999851e-02,4.511594306679999819e-03,3.724400652570000313e-03,1.000000000000000000e+00
1.095073898000000101e+00,-2.557002696870000147e+00,-2.070753549890000100e-01,-9.471134435319999767e+00,9.233405813569999648e-03,4.669937305149999759e-03,3.739032195880000360e-03,1.000000000000000000e+00
1.099955435999999898e+00,-2.538628835790000426e+00,-1.333873381039999972e-01,-9.466503852909999850e+00,-4.203685093670000116e-03,3.748225513849999871e-03,8.419395424429999483e-03,1.000000000000000000e+00
1.105125380000000046e+00,-2.550566526339999918e+00,-1.546390105099999801e-01,-9.460696043410001366e+00,-8.217588067050000597e-03,-1.088102441279999860e-02,3.768606344240000086e-03,1.000000000000000000e+00
1.110074846999999920e+00,-2.523617436879999953e+00,-1.915501248050000271e-01,-9.461850474149999357e+00,3.696136409419999679e-04,9.704848751430000114e-03,-1.065734960139999923e-02,1.000000000000000000e+00
1.115110980999999946e+00,-2.584659642340000119e+00,-1.558249140930000054e-01,-9.452861696530000302e+00,3.765239380300000344e-03,1.573072280730000022e-03,1.122660841790000009e-02,1.000000000000000000e+00
1.120080004999999934e+00,-2.566505561490000087e+00,-1.392089295299999974e-01,-9.459935580439999825e+00,-1.827036496249999841e-03,-1.395710371429999784e-02,2.032328024509999845e-02,1.000000000000000000e+00
1.125110389000000044e+00,-2.521966747059999570e+00,-1.723010335269999915e-01,-9.438035298790000027e+00,-2.849735086780000228e-03,-1.555040478710000180e-03,3.416748018940000443e-03,1.000000000000000000e+00
1.130047942000000027e+00,-2.532685124959999978e+00,-1.882747015969999937e-01,-9.487503970840000633e+00,-3.433739766480000018e-03,5.201896652579999711e-03,3.689076518640000205e-03,1.000000000000000000e+00
1.134976326000000091e+00,-2.566061324859999715e+00,-1.262767937130000184e-01,-9.480123212939998822e+00,-2.854068065059999892e-03,-7.375076413149999829e-03,9.298679418860001170e-03,1.000000000000000000e+00
1.139957974000000096e+00,-2.574967977150000031e+00,-1.344678268170000079e-01,-9.469010282770000231e+00,-7.646523881699999158e-03,-4.906039219350000896e-03,1.390742789949999877e-02,1.000000000000000000e+00
1.145167271999999903e+00,-2.579701435409999632e+00,-1.855715983850000084e-01,-9.463881103189999422e+00,1.783060841259999970e-03,-3.217820776630000469e-03,2.112784422929999892e-02,1.000000000000000000e+00
1.150056114000000074e+00,-2.525320733670000095e+00,-1.666194076939999935e-01,-9.467954636239999999e+00,-6.185107864440000068e-03,9.114011190830001311e-04,6.869832053779998879e-03,1.000000000000000000e+00
1.155093428999999894e+00,-2.602551857390000389e+00,-1.400991015689999897e-01,-9.445394429389999402e+00,3.423581365499999817e-03,-1.561778015460000028e-03,9.667749516669999973e-03,1.000000000000000000e+00
1.160039752999999951e+00,-2.528644617390000349e+00,-1.069761366440000055e-01,-9.441429617409999864e+00,1.360491383820000046e-02,4.542340990159999745e-03,5.564079619939999929e-03,1.000000000000000000e+00
1.165094287000000062e+00,-2.548938340619999909e+00,-1.212879998489999889e-01,-9.449427045900000266e+00,-1.847857376559999820e-03,1.290292944760000008e-03,7.407305762170000168e-03,1.000000000000000000e+00
1.170099178999999934e+00,-2.535340023379999863e+00,-2.059629915659999810e-01,-9.481758120660000344e+00,7.714338717050000377e-04,-9.210828691719999753e-03,-5.745961330829999630e-03,1.000000000000000000e+00
1.175065905000000077e+00,-2.522075468140000165e+00,-1.371342512810000136e-01,-9.487896185029999430e+00,-1.136183738710000099e-03,-5.866294261070000016e-03,-1.046350039539999978e-02,1.000000000000000000e+00
1.180121278000000107e+00,-2.566247787340000475e+00,-1.322543063530000063e-01,-9.483656647760000169e+00,8.252784609789998865e-03,-4.265109542760000573e-03,-4.814277868720000068e-03,1.000000000000000000e+00
1.185112949000000082e+00,-2.541187872620000121e+00,-1.901672738780000038e-01,-9.430300320630001565e+00,4.089889116590000005e-03,-3.430296201260000198e-03,1.077680150049999900e-03,1.000000000000000000e+00
1.190078162000000050e+00,-2.550808226150000024e+00,-1.983972324870000026e-01,-9.435083463250000690e+00,1.131867431099999911e-02,4.018481820820000473e-03,-7.720526307820000517e-03,1.000000000000000000e+00
1.194891040999999987e+00,-2.599757550490000124e+00,-1.532951033540000119e-01,-9.440585567799999467e+00,1.653779298070000075e-03,9.760290384290000454e-03,1.551420893520000233e-02,1.000000000000000000e+00
1.199889364999999986e+00,-2.586993345989999860e+00,-1.366526965760000156e-01,-9.457489356330000874e+00,3.349224803969999987e-03,-7.573663257060001333e-03,1.283128838990000090e-02,1.000000000000000000e+00
1.204876070999999937e+00,-2.546433079799999888e+00,-1.604137397200000037e-01,-9.445971352489999973e+00,4.790941718970000672e-03,-8.565641939640000063e-03,-3.412975929680000142e-04,1.000000000000000000e+00
1.210053282999999924e+00,-2.613387431920000115e+00,-1.653130926020000002e-01,-9.473759523130000915e+00,-2.207250217909999517e-04,1.167435385289999905e-02,6.514398381110000566e-03,1.000000000000000000e+00
1.215078850999999904e+00,-2.566645262220000223e+00,-1.186388005139999979e-01,-9.425099829380000571e+00,-5.549123510719999701e-03,-1.240443158889999870e-02,8.902276866139998898e-03,1.000000000000000000e+00
1.220081439999999962e+00,-2.583237500590000124e+00,-1.677043716520000005e-01,-9.468265601889999772e+00,4.756146576259999946e-03,8.959379978479998369e-03,8.914433419699999833e-03,1.000000000000000000e+00
1.225109731999999951e+00,-2.596190213399999891e+00,-1.459917672040000058e-01,-9.441595621619999434e+00,4.648334346709999745e-03,-4.731679335239999742e-03,5.374975502489999848e-03,1.000000000000000000e+00
1.230111627000000096e+00,-2.585681971130000090e+00,-1.259660929289999898e-01,-9.452131044159999718e+00,4.815115244130000632e-04,-4.330771975219999993e-03,1.126936171199999920e-02,1.000000000000000000e+00
1.235068244999999898e+00,-2.554249598770000240e+00,-1.796800743950000001e-01,-9.464345798089999207e+00,1.527038868520000023e-02,-6.953272037209999763e-03,1.287920866160000011e-02,1.000000000000000000e+00
1.240044688000000006e+00,-2.549429339010000017e+00,-1.605891328200000079e-01,-9.466249001370000471e+00,6.179930176589999713e-03,-1.578488503580000035e-03,1.204296248030000066e-03,1.000000000000000000e+00
1.245123556000000020e+00,-2.565117906529999825e+00,-1.308012945329999899e-01,-9.461602052339999958e+00,2.313042990860000349e-03,-5.250159651039999591e-03,-4.050242248919999968e-03,1.000000000000000000e+00
1.249987981000000081e+00,-2.610888016320000116e+00,-1.521160496370000115e-01,-9.455158867550000679e+00,-1.835295185450000130e-02,8.730422705409999345e-03,8.374892175199998706e-03,1.000000000000000000e+00
1.255071722999999917e+00,-2.536552321779999897e+00,-1.486169463419999837e-01,-9.451253092289999103e+00,-9.398040361700001413e-03,8.602875284850000637e-03,-2.425188431519999851e-03,1.000000000000000000e+00
1.260072760999999986e+00,-2.610595463109999681e+00,-1.450673549679999952e-01,-9.451419681020000851e+00,-1.342707034200000052e-02,-1.743727177380000049e-02,2.700154483320000090e-02,1.000000000000000000e+00
1.265136467000000042e+00,-2.525949094700000064e+00,-1.510815372240000010e-01,-9.459688912200000743e+00,-7.074875291439999304e-03,2.878014929589999948e-03,1.259417273100000081e-02,1.000000000000000000e+00
1.270081298000000025e+00,-2.506782914199999990e+00,-1.177498523179999895e-01,-9.456365905260000204e+00,-3.537891665469999891e-03,-4.231947008519999602e-03,-1.130683813240000030e-02,1.000000000000000000e+00
1.274993142000000024e+00,-2.615190097420000193e+00,-1.357316453409999901e-01,-9.479596558719999067e+00,4.819752648469999984e-03,9.304808452729998805e-03,1.134456787260000078e-02,1.000000000000000000e+00
1.280127178999999948e+00,-2.600599554270000002e+00,-1.308562943900000164e-01,-9.475392092759999940e+00,-6.558192893859999921e-03,8.261114358899999954e-03,1.501195039599999975e-02,1.000000000000000000e+00
1.285093698000000062e+00,-2.553008951059999809e+00,-1.143309015870000028e-01,-9.482042198300000280e+00,-4.621302708979999584e-03,-5.199491046370000383e-03,4.300580360000000324e-03,1.000000000000000000e+00
1.290018348000000037e+00,-2.576077691959999694e+00,-1.521321148560000058e-01,-9.453052835179999391e+00,-8.634905330839999504e-03,1.039364095779999990e-02,3.860968863590000071e-03,1.000000000000000000e+00
1.294942830999999961e+00,-2.508055126090000364e+00,-1.334826151719999965e-01,-9.481714866049999912e+00,5.377469584349999984e-03,-3.120561130340000506e-03,-1.223629992460000156e-02,1.000000000000000000e+00
1.299984803000000078e+00,-2.607171041620000018e+00,-1.594044165469999941e-01,-9.466293425030000819e+00,-1.894961111250000009e-03,-9.027786552910000220e-03,6.149055436250000159e-03,1.000000000000000000e+00
1.305132224000000063e+00,-2.551251001479999836e+00,-1.689028607220000033e-01,-9.463869997270000667e+00,-1.994475955139999972e-03,-6.677151657640000709e-03,-3.442059736699999966e-03,1.000000000000000000e+00
1.310078124999999982e+00,-2.561909758140000104e+00,-1.594445476280000051e-01,-9.469941426140000118e+00,1.371203688900000132e-05,4.223141819239999324e-03,-6.919108331199999920e-03,1.000000000000000000e+00
1.315106321000000023e+00,-2.560972477289999993e+00,-1.593815105960000034e-01,-9.457204694169998760e+00,-2.761289477349999910e-03,-9.669825434680000276e-03,-4.145110491659999633e-03,1.000000000000000000e+00
1.320062945999999959e+00,-2.547059687269999984e+00,-1.378913806579999957e-01,-9.438911497110000326e+00,-2.431761240590000345e-03,-1.020060665909999949e-02,2.719009993600000116e-03,1.000000000000000000e+00
1.325138109999999925e+00,-2.590374805119999735e+00,-1.076919202300000017e-01,-9.409961296949999721e+00,6.356060504909999409e-03,1.136888843029999936e-02,1.456074183809999900e-03,1.000000000000000000e+00
1.330096074999999933e+00,-2.560698921040000187e+00,-1.164229510959999964e-01,-9.446413835560001360e+00,5.952753126619999939e-03,7.036632858220000404e-03,-2.250623190780000511e-03,1.000000000000000000e+00
1.335050918999999947e+00,-2.602631060099999782e+00,-9.947447404299999962e-02,-9.426445398769999429e+00,6.996047683060000084e-03,2.708079759030000266e-03,-2.101973630490000088e-03,1.000000000000000000e+00
1.340059802000000078e+00,-2.564652627100000082e+00,-1.452541462450000209e-01,-9.487384728380000354e+00,-8.668356575070000625e-03,-7.910039275880000921e-04,-1.384880486879999997e-02,1.000000000000000000e+00
1.344901010000000063e+00,-2.601034438559999717e+00,-1.689762547520000102e-01,-9.468885195089999485e+00,-1.543115451929999958e-02,8.636918850240000306e-03,6.205268204210000367e-03,1.000000000000000000e+00
1.349925054999999929e+00,-2.573985103590000101e+00,-1.712516340709999974e-01,-9.470310843980000115e+00,1.707064220680000206e-03,-1.316196098920000002e-02,-4.023604094979999629e-03,1.000000000000000000e+00
1.354876768000000009e+00,-2.570387663620000041e+00,-1.571221325630000054e-01,-9.467044535660001259e+00,-1.074348017570000112e-02,1.658128201960000145e-02,8.437023498120000201e-03,1.000000000000000000e+00
1.359876453999999901e+00,-2.567233875770000395e+00,-1.448036533979999985e-01,-9.429356317779999941e+00,-4.277032334359999813e-03,5.987472832199999644e-03,5.412293598060000273e-03,1.000000000000000000e+00
1.364870279000000020e+00,-2.542603292379999935e+00,-1.556106685539999923e-01,-9.436744674460001647e+00,1.559004420410000117e-03,1.833997201170000117e-03,-4.779801238330000021e-03,1.000000000000000000e+00
1.370068995000000012e+00,-2.582774559250000213e+00,-1.187591480919999998e-01,-9.444959545099999687e+00,7.449304219339999630e-03,-3.219543723389999869e-03,-1.519458834079999952e-03,1.000000000000000000e+00
1.374931911000000007e+00,-2.602817814850000300e+00,-1.773094180070000081e-01,-9.476682132569999695e+00,1.514991745350000073e-03,-1.013700151820000122e-03,1.082451827819999948e-02,1.000000000000000000e+00
1.380097495000000007e+00,-2.526146078579999621e+00,-1.214484693740000010e-01,-9.468476614289999205e+00,-9.979335591199999748e-04,-5.381569731980000160e-03,4.082552623000000255e-04,1.000000000000000000e+00
1.384855863000000076e+00,-2.551906542779999842e+00,-3.115357368190000212e-02,-9.484362750209999859e+00,2.041911892589999902e-02,6.035357713700000015e-03,-1.642311108299999859e-03,1.000000000000000000e+00
1.389839759000000008e+00,-2.604434310129999819e+00,-1.233585407790000060e-01,-9.438609883810000767e+00,-3.758502425630000148e-04,4.334886558350000384e-03,6.532981991770000531e-03,1.000000000000000000e+00
1.395119368000000026e+00,-2.533951491629999886e+00,-2.341767489369999955e-01,-9.444946685619999727e+00,1.925867609680000092e-02,1.306777447459999894e-02,-7.951562292869998562e-04,1.000000000000000000e+00
1.399997131999999977e+00,-2.545854987649999845e+00,-1.295128438910000124e-01,-9.453167986000000411e+00,4.383123945439999780e-03,7.496854290369999591e-03,-1.096718199549999960e-02,1.000000000000000000e+00
1.405124446000000082e+00,-2.556626264769999768e+00,-6.768696353880000738e-02,-9.449325339089998721e+00,-2.962945029140000124e-03,1.130928751079999899e-02,-7.202810607850000831e-03,1.000000000000000000e+00
1.410084394000000074e+00,-2.565078159040000028e+00,-1.663413944700000147e-01,-9.449236491769999802e+00,3.827261738480000012e-03,3.117923624810000054e-03,-9.091661311690001079e-03,1.000000000000000000e+00
1.415080609999999961e+00,-2.545635791940000114e+00,-1.663918642820000071e-01,-9.445163543239999626e+00,5.184859968720000045e-03,7.841474376620000131e-03,-8.686933666469999829e-03,1.000000000000000000e+00
1.420073989999999897e+00,-2.591359724499999739e+00,-1.664951419930000009e-01,-9.470463404189999324e+00,-4.433607682590000472e-04,4.037334118039999711e-03,-1.477871788670000143e-03,1.000000000000000000e+00
1.425125903999999943e+00,-2.572178054170000117e+00,-1.648702259389999980e-01,-9.418127652280000817e+00,5.071985535319999475e-03,3.996551502500000040e-03,-1.521109486930000100e-03,1.000000000000000000e+00
1.429932761999999968e+00,-2.576656368630000138e+00,-1.700812751179999749e-01,-9.470555174130000253e+00,-1.081831473859999962e-02,4.766394384209999939e-03,6.014942191540000125e-04,1.000000000000000000e+00
1.434902209999999956e+00,-2.561439802540000255e+00,-1.221682350159999930e-01,-9.431558211729999641e+00,-5.144137889150000170e-03,1.593377441170000042e-03,-4.584628622979999499e-03,1.000000000000000000e+00
1.439875436999999980e+00,-2.546216806699999946e+00,-1.700801791390000040e-01,-9.460517764239998684e+00,-7.062826771289999229e-04,2.604322042319999995e-03,-5.766714923079999632e-03,1.000000000000000000e+00
1.444839862000000030e+00,-2.529107558729999816e+00,-1.798445990399999972e-01,-9.482404017349999492e+00,4.767794162030000206e-03,3.618114627900000189e-03,-7.242368534209999917e-03,1.000000000000000000e+00
1.449895809000000035e+00,-2.612750010800000133e+00,-1.759659309760000234e-01,-9.467809674810000686e+00,8.592055179180000182e-03,5.659114569430001226e-03,7.749322801830000294e-03,1.000000000000000000e+00
1.455108963000000033e+00,-2.507338209990000344e+00,-1.557006666580000032e-01,-9.439750286020000658e+00,-2.717474475499999723e-03,-2.091957954689999989e-03,-2.736898837610000218e-03,1.000000000000000000e+00
1.459985692999999918e+00,-2.584991650779999706e+00,-9.197283884180000590e-02,-9.519784192199999495e+00,6.133054848759999546e-03,5.251308903100000702e-03,-6.709436420349999429e-04,1.000000000000000000e+00
1.464932560000000050e+00,-2.563326639200000034e+00,-1.406212805460000104e-01,-9.492916059019998798e+00,2.762890048330000209e-02,5.406344309449999906e-03,6.459048017859999290e-03,1.000000000000000000e+00
1.470105875000000006e+00,-2.540771693040000390e+00,-2.429468971029999924e-01,-9.493584752060000298e+00,1.087665325029999906e-03,5.351029336450000007e-03,5.801246501509999681e-03,1.000000000000000000e+00
1.474895153999999931e+00,-2.487428809909999927e+00,-1.859125390430000080e-01,-9.492195928050000120e+00,3.459780942650000132e-03,7.529627531770000971e-03,-1.182137057189999903e-02,1.000000000000000000e+00
1.480127661000000039e+00,-2.605233351559999910e+00,-1.243266003599999836e-01,-9.409806398649999792e+00,1.182670798149999987e-02,-4.627099726350000081e-03,7.396531291310000020e-04,1.000000000000000000e+00
1.484886737000000068e+00,-2.569964177509999725e+00,-1.579610128060000007e-01,-9.446632446749999801e+00,-1.235805219039999873e-03,5.055340006950000218e-04,-3.180022817110000118e-03,1.000000000000000000e+00
1.489858106000000015e+00,-2.525857324760000022e+00,-2.332547021880000127e-01,-9.471134435319999767e+00,1.277710683639999949e-02,8.391631767149999865e-03,-8.889164775609999583e-03,1.000000000000000000e+00
1.494807604000000012e+00,-2.585362822180000020e+00,-7.686983439189999656e-02,-9.416624261980000909e+00,7.859407924119999819e-03,4.008376505230000324e-03,2.463087206710000334e-03,1.000000000000000000e+00
1.499875448000000056e+00,-2.592403388340000170e+00,-1.744004534910000015e-01,-9.427071421710000010e+00,-1.148767862470000123e-02,-3.655538428570000078e-03,3.776285564529999889e-03,1.000000000000000000e+00
1.505123506000000111e+00,-2.512882400120000082e+00,-1.629280788949999947e-01,-9.460449375179999620e+00,1.615432463590000048e-02,7.624559104439999555e-03,-1.649432629350000221e-02,1.000000000000000000e+00
1.510010142999999916e+00,-2.551037943249999884e+00,-1.261155113369999969e-01,-9.462273667989999026e+00,1.050682459029999953e-02,2.129156515000000041e-02,-1.090805046259999897e-02,1.000000000000000000e+00
1.514917064000000035e+00,-2.531432202289999989e+00,-1.295665468399999909e-01,-9.445756832960000793e+00,4.649466834960000114e-03,-5.137859843670000226e-04,-1.166655216369999991e-02,1.000000000000000000e+00
1.520080309999999990e+00,-2.583645496860000002e+00,-1.639121580289999991e-01,-9.442164361419999707e+00,2.087180968369999751e-03,2.308386005459999585e-02,-2.549343276770000069e-03,1.000000000000000000e+00
1.525124375000000088e+00,-2.570042211190000092e+00,-1.769499370450000053e-01,-9.433923771819999970e+00,1.632912782950000008e-03,1.568988524379999819e-02,3.195249242710000367e-03,1.000000000000000000e+00
1.529919183999999932e+00,-2.556599376770000376e+00,-1.555938452829999930e-01,-9.448966442650000630e+00,-1.000079698859999977e-02,1.907848566770000212e-02,-8.741092868150000458e-03,1.000000000000000000e+00
1.534875725000000024e+00,-2.539976743270000004e+00,-1.632479402329999885e-01,-9.488512271099999396e+00,-9.315967559809998355e-03,-1.382886199280000108e-03,-4.261160269380000025e-03,1.000000000000000000e+00
1.539897448999999918e+00,-2.560345577559999697e+00,-1.392220264740000046e-01,-9.472385896689999640e+00,6.494018249210000565e-03,-1.233796775339999867e-02,-3.206306602810000180e-03,1.000000000000000000e+00
1.544873587000000104e+00,-2.601322607849999802e+00,-2.037350133190000134e-01,-9.506414423019998949e+00,-6.917499704289999281e-04,1.709716953340000012e-02,1.694563217459999979e-02,1.000000000000000000e+00
1.549875612999999985e+00,-2.434355975889999968e+00,-1.436194485820000144e-01,-9.400523606520000186e+00,2.201020717619999595e-03,8.477486670020000642e-03,-8.957696147260000435e-03,1.000000000000000000e+00
1.554869242000000096e+00,-2.604381410899999860e+00,-1.251748786190000073e-01,-9.514319497049999796e+00,2.076663449409999959e-02,-1.557907089589999838e-04,-4.915874917060000619e-03,1.000000000000000000e+00
1.559868916000000105e+00,-2.550974522619999796e+00,-1.999756790520000049e-01,-9.474899340810001291e+00,2.245581708849999985e-04,5.547451786699999533e-03,1.228502253069999875e-03,1.000000000000000000e+00
1.564864221000000111e+00,-2.495941786709999555e+00,-2.224373939669999911e-01,-9.453638526120000662e+00,2.188724651929999793e-02,1.483548246320000145e-02,-1.412662491200000064e-02,1.000000000000000000e+00
1.569963460000000088e+00,-2.530266081120000177e+00,-1.664788849780000080e-01,-9.443576566309999976e+00,1.790004596109999804e-02,1.736137457190000191e-02,-7.236446253960000276e-03,1.000000000000000000e+00
1.574887504000000105e+00,-2.539695588239999857e+00,-1.263138651869999962e-01,-9.478269109510000234e+00,2.153516514230000012e-03,1.938150729979999870e-03,1.079152571039999897e-03,1.000000000000000000e+00
1.580100268000000030e+00,-2.530793027599999689e+00,-1.664376031199999995e-01,-9.443262678049999082e+00,1.157653890549999870e-02,-5.966020282359999795e-03,2.744476078079999964e-03,1.000000000000000000e+00
1.585141947000000107e+00,-2.590389418170000013e+00,-1.781472205380000284e-01,-9.450690197710001073e+00,-2.087608678269999973e-03,-1.768023520709999935e-02,-6.927505601199999757e-04,1.000000000000000000e+00
1.590028822000000064e+00,-2.545892689310000012e+00,-1.996856100640000131e-01,-9.449292021350000681e+00,-4.321062471720000381e-03,-5.790877155959999953e-03,-6.861697882410000039e-03,1.000000000000000000e+00
1.595110468999999975e+00,-2.567973003700000145e+00,-1.380338670020000158e-01,-9.469060551660000158e+00,4.118882585319999859e-03,-3.014259506019999809e-03,2.366540255030000033e-03,1.000000000000000000e+00
1.600014336000000092e+00,-2.568345051879999730e+00,-1.595171927390000022e-01,-9.476158400960001060e+00,1.811232045289999995e-02,-6.534593179819999167e-03,1.342880446459999988e-02,1.000000000000000000e+00
1.605126802000000019e+00,-2.519587742970000210e+00,-1.926276909090000045e-01,-9.454396651010000596e+00,3.733502700920000080e-03,2.008026465770000255e-03,-1.220814418049999970e-03,1.000000000000000000e+00
1.610075694999999918e+00,-2.568584705850000205e+00,-1.627079516049999841e-01,-9.436488653869998799e+00,-5.471238400789999942e-03,1.395184546710000195e-02,5.113386549060000737e-03,1.000000000000000000e+00
1.615081983000000054e+00,-2.557773096720000083e+00,-1.664856617789999826e-01,-9.468143436810001035e+00,1.128417346629999839e-02,6.915567442770000420e-03,-3.291348228230000367e-03,1.000000000000000000e+00
1.620069479000000090e+00,-2.523259709480000001e+00,-1.760804789999999842e-01,-9.461994851050000932e+00,1.020788867029999956e-02,1.134597975760000092e-02,-1.045115943999999977e-02,1.000000000000000000e+00
1.625140982000000012e+00,-2.615999367979999768e+00,-1.462696068980000041e-01,-9.470544652730000124e+00,-2.415908733379999989e-03,3.444459289309999978e-03,8.553616702559999757e-03,1.000000000000000000e+00
1.629903643000000013e+00,-2.545727854139999913e+00,-1.618556821569999971e-01,-9.472491110630000932e+00,1.719745807350000003e-02,-4.570175893600000525e-03,6.849585101010000759e-03,1.000000000000000000e+00
1.634876935000000087e+00,-2.527584879209999524e+00,-1.870651614110000194e-01,-9.496364738169999598e+00,5.840925965459999557e-03,1.003127824520000030e-02,-6.848187185820000166e-04,1.000000000000000000e+00
1.640042776999999896e+00,-2.548254742270000150e+00,-1.437213745859999836e-01,-9.438072123670000479e+00,1.537453848870000070e-02,-3.729515243320000086e-03,-2.930657938120000334e-04,1.000000000000000000e+00
1.644870086000000065e+00,-2.551418466999999968e+00,-1.581387257269999957e-01,-9.455784305970000858e+00,6.746433675290000598e-03,-4.835438448939999821e-03,3.480566665530000401e-04,1.000000000000000000e+00
1.649839644999999910e+00,-2.530618840079999821e+00,-1.593418361720000120e-01,-9.446965624229999747e+00,6.528761237859999171e-03,-6.164142396300000036e-04,3.198008751499999830e-03,1.000000000000000000e+00
1.654868428999999974e+00,-2.491999478819999947e+00,-2.227893492099999873e-01,-9.486402731600000138e+00,-1.827295310799999933e-02,-1.008680649099999958e-02,-4.458919167520000899e-03,1.000000000000000000e+00
1.660106587000000022e+00,-2.506581546409999639e+00,-1.798353197550000004e-01,-9.475646944310001984e+00,-1.096111629159999927e-02,3.162555862219999445e-03,-1.041375193740000024e-02,1.000000000000000000e+00
1.665051255000000063e+00,-2.567810798870000077e+00,-2.223709046020000135e-01,-9.446447153310000289e+00,2.204327844079999668e-02,-1.494831591839999863e-02,1.027096435429999954e-02,1.000000000000000000e+00
1.670043638999999969e+00,-2.515110013040000148e+00,-2.447397353369999973e-01,-9.423365552929999112e+00,4.635357763619999370e-03,-1.141608040779999896e-02,-3.362472634759999910e-04,1.000000000000000000e+00
1.675101286000000078e+00,-2.569617263770000104e+00,-2.552096183600000012e-01,-9.417047455820000579e+00,8.013784885410000017e-03,8.433106355370000029e-03,-8.850526064630000189e-03,1.000000000000000000e+00
1.680079051999999962e+00,-2.602694188470000114e+00,-2.268426614550000109e-01,-9.429752623620000662e+00,-9.102328680459998919e-03,-2.291887067260000351e-03,9.475582279260000296e-03,1.000000000000000000e+00
1.685147496999999994e+00,-2.575352008029999862e+00,-1.816681794720000076e-01,-9.435819376310000450e+00,-1.176140271130000177e-03,1.072722580279999831e-02,9.954893961550000461e-03,1.000000000000000000e+00
1.689878141999999972e+00,-2.568879012629999625e+00,-1.246453109200000020e-01,-9.441202822910000236e+00,-2.203260362149999860e-02,-5.028045270589999926e-04,1.064475439490000092e-02,1.000000000000000000e+00
1.694814368999999932e+00,-2.529379361409999749e+00,-1.475678482810000025e-01,-9.474707617630000911e+00,3.957707900549999568e-03,5.275613628330000186e-03,-4.160329699520000021e-03,1.000000000000000000e+00
1.699872786000000024e+00,-2.609276489470000016e+00,-1.330736416459999960e-01,-9.461981407050000570e+00,-1.605693064630000014e-02,-9.888894855979999191e-03,6.047654896970000409e-03,1.000000000000000000e+00
1.704861992999999964e+00,-2.522455407359999846e+00,-1.847427463450000140e-01,-9.497925411609999813e+00,2.175162779169999804e-03,1.041253563019999993e-03,2.014348516239999973e-03,1.000000000000000000e+00
1.709981968999999991e+00,-2.548293612979999789e+00,-1.460174861669999991e-01,-9.424052950669999262e+00,-3.770953975619999784e-03,3.476268611849999725e-03,7.917916402220000899e-03,1.000000000000000000e+00
1.714902608000000050e+00,-2.535327456160000104e+00,-1.960397461080000125e-01,-9.435354681410000666e+00,-2.522643283009999918e-02,-4.829568788409999082e-04,2.512013306840000029e-03,1.000000000000000000e+00
1.720108316999999998e+00,-2.564260997440000356e+00,-1.594770616579999911e-01,-9.472509815329999583e+00,-1.354367285970000008e-02,5.773517303169999233e-03,1.027716137470000013e-02,1.000000000000000000e+00
1.725155315000000078e+00,-2.560902334659999724e+00,-1.534066557029999944e-01,-9.462698615409999903e+00,-1.637317799029999743e-02,-6.747364997859999977e-03,1.090392656619999963e-02,1.000000000000000000e+00
1.730081492999999915e+00,-2.529890525799999956e+00,-1.475953756090000180e-01,-9.474916876469999139e+00,-1.680114492770000065e-02,-8.953397627920000159e-04,1.840479671960000088e-05,1.000000000000000000e+00
1.735070558999999957e+00,-2.517971539950000004e+00,-1.592031400879999892e-01,-9.426967961339999036e+00,4.224077332759999803e-03,-1.809315197170000000e-02,1.330319093540000127e-03,1.000000000000000000e+00
1.740033981000000063e+00,-2.500010935840000226e+00,-2.337041081900000095e-01,-9.510210892689999085e+00,-1.251924689860000120e-02,7.764386013150000043e-03,-1.756235142240000031e-03,1.000000000000000000e+00
1.744949389000000073e+00,-2.578434484220000211e+00,-1.307959151050000213e-01,-9.467223983880000304e+00,-6.506755948070000461e-03,-4.740221891550000684e-03,6.672723684460000592e-04,1.000000000000000000e+00
1.749901809999999891e+00,-2.534305419629999889e+00,-8.087801058730000048e-02,-9.460060668119998795e+00,-5.458220839500000070e-04,-5.887981504199999924e-03,-4.956917371599999823e-03,1.000000000000000000e+00
1.755055336000000077e+00,-2.594992820309999892e+00,-1.535464842990000023e-01,-9.488277877819999873e+00,7.368969265369999799e-03,-4.732912871989999881e-03,1.421568216759999930e-03,1.000000000000000000e+00
1.760088494999999975e+00,-2.556687055049999824e+00,-1.592638572990000001e-01,-9.446372919030000759e+00,-1.856525661419999862e-03,1.758872531349999673e-03,7.193638011810000489e-03,1.000000000000000000e+00
1.765098556999999957e+00,-2.582521169010000062e+00,-1.616814033020000096e-01,-9.462250871639998451e+00,-2.919836668299999848e-03,3.181801643219999993e-03,1.206486392770000048e-02,1.000000000000000000e+00
1.770037681000000029e+00,-2.524586866440000410e+00,-1.880985961119999994e-01,-9.472883909339998354e+00,-1.431663148109999992e-02,-4.854205064479999790e-03,9.736646898089999780e-03,1.000000000000000000e+00
1.774943984000000086e+00,-2.545568864190000280e+00,-1.496908226510000051e-01,-9.451571656719998771e+00,2.161624142900000003e-03,9.485644288360000481e-03,-4.729176405819999866e-03,1.000000000000000000e+00
1.780044007999999955e+00,-2.550858787290000151e+00,-1.450929917329999985e-01,-9.451707265790000534e+00,-7.557061966510000839e-03,-5.931836552920000810e-03,6.111121736470000176e-03,1.000000000000000000e+00
1.784892213000000005e+00,-2.498949736349999728e+00,-1.834112968120000242e-01,-9.474566747860000859e+00,-3.748889779670000044e-03,-2.038612589240000258e-02,-1.320763025429999874e-03,1.000000000000000000e+00
1.789860130000000105e+00,-2.613727039130000041e+00,-2.224011718770000090e-01,-9.336218015349999177e+00,-7.033897563819999262e-03,1.021673437210000000e-02,1.364962663500000027e-02,1.000000000000000000e+00
1.794755877000000055e+00,-2.410876169969999872e+00,-1.866142758379999989e-01,-9.533191955299999520e+00,4.810290993190000238e-04,-1.205874234440000060e-02,6.345697678630000255e-03,1.000000000000000000e+00
1.799859810999999921e+00,-2.586364400429999932e+00,-1.782469728520000019e-01,-9.454791787810000514e+00,-1.013860292729999897e-02,-7.051733322439999313e-03,1.000033784659999994e-02,1.000000000000000000e+00
1.805097656999999911e+00,-2.604574595389999914e+00,-2.913452547700000062e-01,-9.480417811969999775e+00,-5.030016880479999675e-03,4.004841670389999893e-03,5.500866100190000482e-03,1.000000000000000000e+00
1.809970735999999913e+00,-2.539086516430000273e+00,-2.009781340920000214e-01,-9.452295879339999374e+00,7.375389803199999990e-03,5.007992498579999507e-03,6.828449666499999612e-03,1.000000000000000000e+00
1.815019676999999998e+00,-2.562420922529999867e+00,-1.289176544769999877e-01,-9.385105088119999550e+00,-6.569630466399999265e-03,-1.565836556259999832e-02,4.270452074710000441e-03,1.000000000000000000e+00
1.819882455999999982e+00,-2.517363929440000092e+00,-2.709448014999999987e-01,-9.422356083629999546e+00,-1.676843315360000003e-02,-3.388109616939999780e-03,1.308639300989999964e-03,1.000000000000000000e+00
1.824800651999999968e+00,-2.542404847199999818e+00,-1.272417936870000044e-01,-9.453985147599999195e+00,-1.149511989209999960e-02,-6.823890376840000167e-03,3.711835248400000356e-03,1.000000000000000000e+00
1.829823194000000042e+00,-2.561087628100000124e+00,-3.555793927080000416e-02,-9.452762327809999476e+00,-1.907574012879999920e-02,9.795314632360000578e-03,3.585235914219999601e-03,1.000000000000000000e+00
1.834865259000000082e+00,-2.576165662499999787e+00,-1.809167583159999870e-01,-9.490417812460000491e+00,-7.727288641040000287e-03,-2.100180834529999895e-03,-4.736334085459999784e-04,1.000000000000000000e+00
1.839878992000000046e+00,-2.581041744109999758e+00,-1.152924218289999997e-01,-9.461448323089998169e+00,-2.079128054899999876e-03,-3.186518326400000507e-03,4.635308869179999985e-03,1.000000000000000000e+00
1.844868249999999987e+00,-2.551555537380000072e+00,-9.518755397139999630e-02,-9.479182717220000498e+00,-7.393757812680000485e-03,-2.015801146629999857e-05,-1.063972432170000142e-02,1.000000000000000000e+00
1.850126433000000015e+00,-2.641107798010000174e+00,-1.044613042789999946e-01,-9.457219891739999440e+00,-2.478079637510000304e-03,-8.489668369290000183e-03,1.237966213379999847e-02,1.000000000000000000e+00
1.854906036999999897e+00,-2.507114630369999819e+00,-1.273243391379999812e-01,-9.459069903519999656e+00,-1.331049762670000018e-02,1.876114401969999944e-03,2.271662699059999804e-03,1.000000000000000000e+00
1.859869698000000016e+00,-2.552641286790000130e+00,-1.096141661299999959e-01,-9.474678976059999869e+00,-1.581633277240000052e-02,-1.999374246220000061e-03,1.489120628679999926e-02,1.000000000000000000e+00
1.865148150000000005e+00,-2.525119658139999945e+00,-1.784521765669999926e-01,-9.473068618250000128e+00,-1.814155653120000031e-02,6.666981615130000531e-03,-5.998840555549999308e-03,1.000000000000000000e+00
1.870099584999999953e+00,-2.581549985890000176e+00,-1.794913468890000086e-01,-9.450744558239998483e+00,-1.123559009279999875e-02,-8.414306677880000265e-03,8.007159456609999615e-03,1.000000000000000000e+00
1.875074780999999913e+00,-2.564908063169999863e+00,-1.832014534540000184e-01,-9.465169389439999748e+00,2.973752096300000172e-03,-1.125088892879999927e-02,1.591856963929999882e-02,1.000000000000000000e+00
1.880078133000000040e+00,-2.531095809940000052e+00,-1.937940312750000005e-01,-9.463127654470000039e+00,-6.407776381820000540e-03,-4.620213061569999717e-03,-6.916486658159999926e-03,1.000000000000000000e+00
1.885100538999999964e+00,-2.539793495659999678e+00,-1.486643291479999851e-01,-9.459505372320000660e+00,-9.933595545590000186e-03,-1.362711191180000065e-04,-1.090949308130000073e-02,1.000000000000000000e+00
1.889899264999999939e+00,-2.639224468479999697e+00,-1.344475420810000155e-01,-9.477863451310000187e+00,-1.504722284150000191e-03,-1.039228402079999877e-02,2.124631777409999658e-02,1.000000000000000000e+00
1.894868843000000025e+00,-2.546086458320000023e+00,-1.221027502979999957e-01,-9.423259169950000569e+00,-7.932525128130000699e-03,-1.423541828990000126e-02,9.142477996649999925e-03,1.000000000000000000e+00
1.900055405000000031e+00,-2.578327808970000135e+00,-1.581031794889999897e-01,-9.456628355580001255e+00,-9.780204854909999371e-03,5.208399146800000816e-03,1.740421913559999853e-02,1.000000000000000000e+00
1.905124379999999951e+00,-2.530029934270000336e+00,-1.606400044900000157e-01,-9.473414655210000035e+00,-1.521654613320000057e-02,1.583518087860000256e-02,2.824990777300000287e-03,1.000000000000000000e+00
1.909947475999999922e+00,-2.576184074940000013e+00,-1.138978895979999989e-01,-9.443182598559999974e+00,-4.761000629510000158e-03,-5.126013420520000126e-04,-1.216475851829999831e-03,1.000000000000000000e+00
1.915091829999999939e+00,-2.590159993329999910e+00,-1.391394627569999820e-01,-9.467299971719999263e+00,-7.175341248509999915e-03,-1.080305594950000010e-02,9.557927027340000839e-03,1.000000000000000000e+00
1.920083642999999896e+00,-2.509080377480000124e+00,-7.356559151500000060e-02,-9.438715097750000282e+00,-7.768513634800000220e-03,-7.608443498609999966e-03,-7.616668008270000186e-03,1.000000000000000000e+00
1.925719841999999904e+00,-2.585788061850000208e+00,-1.336858552599999861e-01,-9.517897940060001005e+00,-7.192685268819999124e-03,-6.750035565350000037e-03,8.832125924530000866e-03,1.000000000000000000e+00
1.929837782999999973e+00,-2.513968734050000098e+00,-1.595882852140000085e-01,-9.478927281149999828e+00,2.535911975429999861e-03,-3.313122317190000336e-03,-1.124754548069999919e-03,1.000000000000000000e+00
1.935696003000000109e+00,-2.564788528440000270e+00,-1.098514180849999994e-01,-9.511027469769999243e+00,-5.451712291689999462e-03,7.970016449690000638e-04,6.652947515249999985e-03,1.000000000000000000e+00
1.939894213999999950e+00,-2.535777830270000255e+00,-1.571821008550000065e-01,-9.487650685830001152e+00,1.334574539210000048e-03,-1.030014362189999970e-02,-6.817881017920000147e-03,1.000000000000000000e+00
1.944794705000000068e+00,-2.558461955770000351e+00,-1.676841873809999939e-01,-9.459289683750000677e+00,2.631459385159999869e-03,-1.477320957930000102e-02,-2.668706467380000443e-03,1.000000000000000000e+00
1.949863367000000069e+00,-2.546821786859999825e+00,-1.364937705539999990e-01,-9.428514606260000264e+00,3.957283217460000335e-03,2.397729083900000148e-03,-4.154542926700000374e-03,1.000000000000000000e+00
1.954864471999999909e+00,-2.564403036259999880e+00,-1.759085382330000114e-01,-9.440629406939999413e+00,-2.356149489060000053e-03,-1.206293329600000019e-02,1.152419019489999905e-02,1.000000000000000000e+00
1.959875397000000019e+00,-2.513468383309999776e+00,-1.380510647320000173e-01,-9.472534949769999102e+00,8.729328401389999104e-03,-1.244610268620000015e-02,-8.872333914040001282e-03,1.000000000000000000e+00
1.964864079000000041e+00,-2.549984634799999927e+00,-1.965636786509999956e-01,-9.485026767069999920e+00,-6.064957473430000225e-03,-1.114241592590000003e-02,6.542354822160000027e-03,1.000000000000000000e+00
1.969874451999999998e+00,-2.499117786399999819e+00,-1.738657986250000120e-01,-9.479975913420000566e+00,1.518310979009999950e-03,9.508971124890000211e-04,-1.171507593240000110e-02,1.000000000000000000e+00
1.975078172999999992e+00,-2.587974465979999916e+00,-1.879071103939999876e-01,-9.463626836170000445e+00,3.532573115080000006e-03,3.466011490670000035e-03,2.428571460770000308e-03,1.000000000000000000e+00
1.980052442000000079e+00,-2.550774323879999805e+00,-1.388311000609999957e-01,-9.432638992710000281e+00,-2.879506675530000420e-03,-2.116052061319999983e-02,-8.045895956460000567e-03,1.000000000000000000e+00
1.985192158000000040e+00,-2.612260181449999941e+00,-1.090729810590000126e-01,-9.439360994439999430e+00,1.263039186599999864e-03,-6.123036146160000005e-03,1.471349736680000256e-03,1.000000000000000000e+00
1.990010712999999987e+00,-2.553401749769999896e+00,-1.177180780739999905e-01,-9.458445049619999878e+00,7.114278152590000452e-03,-1.470837276430000213e-03,2.842679852620000076e-03,1.000000000000000000e+00
1.994924501999999933e+00,-2.606342774099999815e+00,-1.545191104570000085e-01,-9.467676403820000530e+00,-1.013531163329999853e-02,5.631307139989999953e-03,9.539706632489999838e-03,1.000000000000000000e+00
2.000103463999999942e+00,-2.505351420090000225e+00,-1.057859770109999958e-01,-9.451554705580001325e+00,4.376420751210000244e-03,-6.455545779319999192e-03,-1.042968966070000059e-02,1.000000000000000000e+00
2.005052507999999900e+00,-2.579360951409999547e+00,-1.404148073220000126e-01,-9.466830600650000704e+00,9.668713319119998442e-04,-1.281738840039999862e-02,7.639534771440000330e-03,1.000000000000000000e+00
2.010030186999999913e+00,-2.515171095579999960e+00,-1.677702034300000145e-01,-9.463286644430001004e+00,5.301840603350000541e-03,-1.751975715160000030e-02,-2.969018416480000144e-03,1.000000000000000000e+00
2.015003967000000173e+00,-2.542907243759999769e+00,-1.236612317859999977e-01,-9.455030857260000587e+00,-8.693341165779999366e-03,-1.706017996180000246e-03,-3.332538064570000295e-03,1.000000000000000000e+00
2.020061200999999862e+00,-2.544538352100000012e+00,-1.140985815349999932e-01,-9.448051665899999563e+00,-7.405499345620000133e-04,-7.753788027910000005e-03,-9.454376995560001854e-04,1.000000000000000000e+00
2.024888449000000090e+00,-2.555209675980000039e+00,-1.381416382250000019e-01,-9.481023376650000500e+00,1.068507973100000022e-02,5.569311790170000144e-03,2.368476008999999965e-03,1.000000000000000000e+00
2.029872466000000042e+00,-2.560758834529999639e+00,-1.370245164289999873e-01,-9.493839019079999275e+00,7.846753112970001123e-03,-1.314212940629999778e-02,3.011822933329999594e-03,1.000000000000000000e+00
2.035059334000000053e+00,-2.574750827269999931e+00,-1.735768256159999912e-01,-9.468863567779999713e+00,2.306716982280000282e-03,-5.505993030969999827e-03,-4.117714241149999892e-03,1.000000000000000000e+00
2.039994373999999944e+00,-2.583464587340000396e+00,-1.131774572360000064e-01,-9.492445518900000323e+00,3.500923514369999687e-03,-3.413305152209999971e-03,1.589920138940000005e-03,1.000000000000000000e+00
2.044919805999999785e+00,-2.543337451870000265e+00,-8.320733031769998733e-02,-9.456324404200000089e+00,1.100203581149999943e-02,-1.098027639089999875e-02,-1.883483259010000112e-03,1.000000000000000000e+00
2.049871084999999926e+00,-2.543274908029999892e+00,-9.990819841830000936e-02,-9.456580424789999384e+00,3.627763129770000296e-03,-1.434032525869999991e-02,1.184534048660000182e-03,1.000000000000000000e+00
2.054846112999999974e+00,-2.579026312629999929e+00,-1.327813259020000081e-01,-9.429671375069998973e+00,1.613085716960000263e-02,1.066396944219999985e-03,-5.813754163680000080e-03,1.000000000000000000e+00
2.059872847999999923e+00,-2.602078686920000106e+00,-1.926195989339999914e-01,-9.468822066719999597e+00,1.603505387899999829e-02,-1.247295085339999998e-02,2.663246588780000638e-03,1.000000000000000000e+00
2.064843849999999925e+00,-2.593555773239999862e+00,-1.317330224249999848e-01,-9.443010749119999048e+00,6.170439533890000570e-03,-4.474823363130000196e-03,6.722836755220000515e-03,1.000000000000000000e+00
2.069855047999999975e+00,-2.528308809570000371e+00,-1.472319947900000148e-01,-9.435380400369998810e+00,-3.267855499869999625e-04,-6.935077719390000256e-03,-7.960066199300000131e-03,1.000000000000000000e+00
2.074875120000000184e+00,-2.574871531039999883e+00,-8.899225212840000676e-02,-9.445020919899999257e+00,1.401692861689999908e-03,-7.211557123810000830e-03,-4.537608474489999641e-03,1.000000000000000000e+00
2.079878911999999858e+00,-2.608803319000000176e+00,-2.121214411310000103e-01,-9.399699430660001909e+00,1.021800842139999888e-02,1.685747876760000132e-03,-9.775210171939999887e-03,1.000000000000000000e+00
2.084873206999999784e+00,-2.567927995509999839e+00,-2.258608656100000167e-01,-9.445826391060000660e+00,7.491679396479999226e-03,-9.311254136260001257e-03,5.702755879609999528e-04,1.000000000000000000e+00
2.089988281000000114e+00,-2.498422205349999814e+00,-1.192914740029999976e-01,-9.491444817419999680e+00,2.830639248709999889e-03,-1.329607889059999937e-02,-1.211791206149999932e-02,1.000000000000000000e+00
2.095053708000000015e+00,-2.557647716780000025e+00,-1.160622371580000006e-01,-9.398075628850000030e+00,7.900009863080001069e-03,-1.992538012559999863e-02,-5.517189856619999144e-04,1.000000000000000000e+00
2.099910021999999987e+00,-2.654491303459999951e+00,-9.555137318199999341e-02,-9.414949022240000076e+00,-1.629909267650000168e-03,8.840613067149999740e-03,-1.688524731430000175e-03,1.000000000000000000e+00
2.105079477999999948e+00,-2.592099729220000093e+00,-1.470382075170000025e-01,-9.423876425059999562e+00,3.082400187849999775e-03,-8.341431617739999624e-03,2.749706385659999794e-03,1.000000000000000000e+00
2.110040752999999825e+00,-2.605250887209999977e+00,-1.268828972469999983e-01,-9.436769224380000765e+00,1.737314462660000114e-02,4.196124617010000245e-03,7.331513799729998809e-03,1.000000000000000000e+00
2.115041596999999829e+00,-2.522719026740000370e+00,-1.130146770219999930e-01,-9.471149632889998671e+00,2.452876651659999826e-04,7.851165719330000740e-04,-1.485013589259999954e-02,1.000000000000000000e+00
2.120054982000000088e+00,-2.609646491819999969e+00,-1.617364031590000084e-01,-9.476040912060000210e+00,1.284403819589999968e-02,-1.360807660970000076e-02,-5.320834927260000534e-03,1.000000000000000000e+00
2.124895088000000154e+00,-2.584546245099999862e+00,-1.436800196630000082e-01,-9.455586737580000900e+00,9.353720583019999729e-03,-4.643251188100000135e-03,-1.390130911020000075e-02,1.000000000000000000e+00
2.129871441999999782e+00,-2.597109666329999733e+00,-1.509959230340000014e-01,-9.462472405439999790e+00,1.213525794449999903e-02,2.730915322900000133e-03,9.352173656230000978e-04,1.000000000000000000e+00
2.135054820000000131e+00,-2.586774150280000129e+00,-1.271362235540000052e-01,-9.466553537270000263e+00,6.161999888719999971e-03,-1.185353938489999877e-02,-4.558991640810000634e-03,1.000000000000000000e+00
2.140049019000000108e+00,-2.605087221079999793e+00,-1.392059247219999962e-01,-9.483406472389999564e+00,6.231329869479999145e-03,-3.785809967669999908e-03,3.431172808630000327e-03,1.000000000000000000e+00
2.144908382000000113e+00,-2.560408998179999784e+00,-1.691967656349999960e-01,-9.784062320619998587e+00,-1.043649856000000058e-03,1.663755811749999952e-02,-7.147773168979999758e-03,1.000000000000000000e+00
2.149889046000000192e+00,-2.625167301559999888e+00,-1.620057581519999956e-01,-9.517091299849999686e+00,2.068856917319999988e-02,-5.007101222870000146e-03,-1.966136274859999616e-03,1.000000000000000000e+00
2.155075214000000017e+00,-2.562598324920000170e+00,-1.950899893690000164e-01,-9.469501865680001629e+00,-7.028777617959999086e-03,-1.992105320099999896e-02,-1.436542253940000175e-03,1.000000000000000000e+00
2.159944493999999882e+00,-2.662628724950000247e+00,-1.432534648140000033e-01,-9.434513554410001390e+00,1.080639287829999844e-02,1.432513073090000040e-02,-4.943192005159999930e-03,1.000000000000000000e+00
2.164884304000000093e+00,-2.552165778230000015e+00,-1.513054547739999811e-01,-9.493799856109999880e+00,1.996184326709999832e-02,7.282323203979999826e-03,-7.577123120430000018e-03,1.000000000000000000e+00
2.169881966000000162e+00,-2.611724467140000172e+00,-1.688700178979999911e-01,-9.473740818430000488e+00,6.597157102080000030e-03,8.952998556200001193e-03,5.397879518569999834e-03,1.000000000000000000e+00
2.174824452000000186e+00,-2.478056001409999709e+00,-1.265190506370000023e-01,-9.505459314250000347e+00,1.868927292529999964e-02,8.082548156380001125e-03,-2.202121168379999813e-02,1.000000000000000000e+00
2.179853409000000131e+00,-2.588538237340000325e+00,-1.094065877940000042e-01,-9.471986083710000059e+00,2.194553613659999680e-02,9.048505686219999317e-03,-1.732410117979999928e-02,1.000000000000000000e+00
2.184849309000000073e+00,-2.664971488680000000e+00,-1.450710630289999969e-01,-9.483855969730001334e+00,9.523211978379998721e-03,1.053451746699999962e-02,8.950719609860000384e-03,1.000000000000000000e+00
2.190016497999999867e+00,-2.514316524570000322e+00,-1.189543784029999940e-01,-9.468822651250000888e+00,2.167968824509999837e-02,1.365324947980000063e-03,-1.572982780640000064e-02,1.000000000000000000e+00
2.194896069999999977e+00,-2.556621880859999862e+00,-1.215806717860000025e-01,-9.484060552389999899e+00,2.187185548250000083e-02,-3.997430671010000769e-03,-2.414182526989999775e-03,1.000000000000000000e+00
2.199864842999999848e+00,-2.559793204370000019e+00,-1.189211063209999891e-01,-9.471913602999999071e+00,2.592994272709999576e-02,-4.827096126969999956e-03,-1.245405897499999963e-02,1.000000000000000000e+00
2.205045725999999817e+00,-2.597606217680000107e+00,-2.199738351320000007e-01,-9.473069202769998753e+00,1.819949224590000289e-02,1.120790839199999999e-04,-1.197785511609999846e-02,1.000000000000000000e+00
2.210053988999999941e+00,-2.592581959779999945e+00,-1.829549130799999757e-01,-9.451036819189999605e+00,1.041768863799999965e-02,-1.218959223479999896e-04,-7.627573795620000777e-03,1.000000000000000000e+00
2.215056051999999998e+00,-2.568953831430000001e+00,-2.139527664779999894e-01,-9.462518582670000455e+00,1.844588480890000173e-02,-8.271987549959999159e-03,-1.925515010950000147e-02,1.000000000000000000e+00
2.220036722000000129e+00,-2.597407772499999989e+00,-1.985387050510000195e-01,-9.455194523390000327e+00,1.938759163020000245e-02,-8.796129375700000377e-03,-3.784073051069999786e-04,1.000000000000000000e+00
2.225161351000000121e+00,-2.600230428700000207e+00,-2.054922687819999705e-01,-9.450409627200000884e+00,1.702155172819999965e-02,2.303708344699999678e-03,-2.431455068290000509e-04,1.000000000000000000e+00
2.229866299000000218e+00,-2.564594759440000260e+00,-2.433497422830000201e-01,-9.422962817349999298e+00,1.873943582179999831e-02,-1.163472048939999913e-02,-1.366996578870000034e-02,1.000000000000000000e+00
2.235033501999999839e+00,-2.593573016640000173e+00,-2.030380074979999949e-01,-9.434253442170000170e+00,2.501679584380000002e-02,-1.241119578479999959e-03,-7.735935971140000221e-03,1.000000000000000000e+00
2.239792571999999815e+00,-2.584978499029999988e+00,-1.864197031139999960e-01,-9.439081592979999158e+00,1.744095608589999943e-02,7.870846427979999449e-03,-7.272566668689999479e-03,1.000000000000000000e+00
2.244790570999999790e+00,-2.527853467020000355e+00,-1.900174901440000175e-01,-9.432595153570000335e+00,8.046765811739998997e-03,-9.616686031219998099e-03,-2.375411428509999895e-02,1.000000000000000000e+00
2.249763562000000050e+00,-2.580563605200000055e+00,-1.685043629239999785e-01,-9.418585917439999733e+00,2.300149202349999894e-02,-1.985453534869999724e-03,-1.072556059810000038e-02,1.000000000000000000e+00
2.254779914999999857e+00,-2.602055013779999815e+00,-1.851214982640000117e-01,-9.421547689849999685e+00,6.199707859199999390e-04,1.003729924559999993e-02,4.579692147670000150e-03,1.000000000000000000e+00
2.259699963000000089e+00,-2.549586867659999534e+00,-2.177213434970000083e-01,-9.476274720819999331e+00,1.390936970709999963e-02,6.103271618490000057e-03,-5.381740629670000477e-03,1.000000000000000000e+00
2.264700518999999801e+00,-2.582223355109999563e+00,-1.732111341089999923e-01,-9.427080189539999822e+00,1.693218573929999859e-02,-8.354363963010001020e-04,-9.248930960889998470e-03,1.000000000000000000e+00
2.269558160999999963e+00,-2.562297003890000369e+00,-1.818814020969999889e-01,-9.457498708680001087e+00,1.165434811260000064e-02,4.330700263379999929e-03,-1.179864443839999909e-02,1.000000000000000000e+00
2.274525897999999824e+00,-2.583083479069999910e+00,-1.950452917110000184e-01,-9.465817624210000503e+00,1.249044015999999785e-02,5.011821165680000606e-03,-2.650341950359999966e-03,1.000000000000000000e+00
2.279593724000000154e+00,-2.570472419300000144e+00,-1.711719016319999953e-01,-9.451965624470000549e+00,1.776814647019999902e-02,9.446963667870001552e-03,5.165920592840000242e-03,1.000000000000000000e+00
2.284748873999999930e+00,-2.545532623829999785e+00,-1.735115418270000154e-01,-9.444965390320000154e+00,2.810436417350000186e-04,5.332346074279999647e-03,3.305563936010000054e-03,1.000000000000000000e+00
2.289769401000000038e+00,-2.553580905729999628e+00,-1.972427469559999980e-01,-9.453279045160000393e+00,1.207759790120000072e-02,9.406845085319999814e-03,-1.295824069529999921e-02,1.000000000000000000e+00
2.294717373000000116e+00,-2.569096747029999683e+00,-1.808273995319999994e-01,-9.465222580929999907e+00,2.024897187949999816e-02,5.512182600800000047e-03,-2.282567089420000153e-03,1.000000000000000000e+00
2.299810932999999835e+00,-2.577687465240000364e+00,-1.665556034759999859e-01,-9.474247598899999900e+00,2.335002645849999976e-04,-1.814559567720000011e-03,1.895973226059999945e-03,1.000000000000000000e+00
2.304820019000000109e+00,-2.534528706999999770e+00,-1.638273475560000081e-01,-9.430376308470000524e+00,8.356484584510000257e-03,-1.767268031840000045e-02,-1.157467998560000010e-02,1.000000000000000000e+00
2.309785530000000087e+00,-2.580046011069999867e+00,-1.794076689280000025e-01,-9.440078787319999165e+00,-1.858420146159999798e-04,-2.278125146399999964e-03,2.899667480959999995e-03,1.000000000000000000e+00
2.314789847000000123e+00,-2.547530519649999992e+00,-1.591343126349999970e-01,-9.435358773060000814e+00,4.783783107999999354e-03,-1.034333137800000054e-03,-8.608310017729999854e-04,1.000000000000000000e+00
2.319818994999999884e+00,-2.514936410040000236e+00,-1.796644932330000166e-01,-9.459861346160000295e+00,1.713462173939999875e-02,5.570847541089999494e-03,-7.411300204690000198e-03,1.000000000000000000e+00
2.324912915000000080e+00,-2.551179397549999894e+00,-1.592948004270000051e-01,-9.449951362040000191e+00,6.032250355930000169e-03,1.095158979299999972e-03,-4.452960100019999826e-03,1.000000000000000000e+00
2.329898931999999867e+00,-2.602640996969999954e+00,-1.305035719619999923e-01,-9.439371515830000448e+00,1.904426701370000308e-02,1.021686010059999873e-03,3.034390741960000040e-03,1.000000000000000000e+00
2.334830512999999996e+00,-2.557175715350000100e+00,-1.833240934529999921e-01,-9.482818443370000239e+00,6.215437315399999392e-03,-7.398792076860001609e-04,2.705492312089999990e-03,1.000000000000000000e+00
2.340064679000000147e+00,-2.563642281019999913e+00,-2.066873603180000296e-01,-9.442644838419999687e+00,7.635464426130000870e-03,-7.085142191499999888e-03,-5.443000700319999829e-03,1.000000000000000000e+00
2.344904248999999830e+00,-2.560419519579999914e+00,-1.973184425409999776e-01,-9.451625432729999332e+00,1.614922657610000020e-02,9.109435603020001049e-03,-5.407686345279999994e-03,1.000000000000000000e+00
2.349852777999999809e+00,-2.557229491359999773e+00,-2.115374854969999940e-01,-9.444429383750000184e+00,8.966116234659999434e-03,-5.786215886470000638e-03,-5.887308157979999693e-03,1.000000000000000000e+00
2.354849972999999874e+00,-2.567897015850000297e+00,-2.215254667540000055e-01,-9.493644373289999550e+00,-5.023673176770000748e-03,7.018391042950000019e-03,5.631185136739999021e-03,1.000000000000000000e+00
2.359947146000000107e+00,-2.560040164870000190e+00,-1.629784756420000202e-01,-9.478662492739999834e+00,1.163256913420000066e-02,-1.732210814950000191e-02,-5.874913185829999662e-03,1.000000000000000000e+00
2.364863059999999795e+00,-2.554438107080000186e+00,-2.070358814950000181e-01,-9.472039859729999733e+00,7.208636030550000934e-03,8.601017296309999838e-03,-5.338704213499999469e-03,1.000000000000000000e+00
2.369949770999999927e+00,-2.609185011790000175e+00,-1.877672087330000128e-01,-9.460333639839999975e+00,1.667943224309999944e-02,2.597539220010000073e-03,3.764194669199999888e-03,1.000000000000000000e+00
2.375040333999999920e+00,-2.532971832940000390e+00,-2.260947108989999899e-01,-9.474349305710001445e+00,5.846591200680000336e-03,-2.750856801869999528e-03,-5.585286766290000274e-03,1.000000000000000000e+00
2.379880140000000033e+00,-2.561560798569999964e+00,-1.975752668459999917e-01,-9.475866140019999051e+00,1.289102481680000009e-03,1.271970197560000002e-02,1.705519622190000001e-03,1.000000000000000000e+00
2.385029621000000155e+00,-2.551897774950000031e+00,-1.854081331850000181e-01,-9.443786409670000381e+00,-1.041091606020000046e-02,2.629124093800000363e-03,4.823996685449999378e-03,1.000000000000000000e+00
2.389862813999999780e+00,-2.529771283340000121e+00,-1.768570711290000097e-01,-9.427646006729998973e+00,-2.028094313569999807e-04,1.059854310010000140e-02,-1.544522959739999882e-02,1.000000000000000000e+00
2.394931941999999925e+00,-2.573688750999999719e+00,-2.377414191479999828e-01,-9.442296463370000836e+00,1.391223818059999888e-02,9.362745098769999566e-03,1.866689417509999869e-04,1.000000000000000000e+00
2.399885353999999804e+00,-2.534999831639999979e+00,-2.044486232140000082e-01,-9.445955570399998891e+00,-2.661984181030000503e-03,6.568011827770000449e-03,-6.690244190390000345e-03,1.000000000000000000e+00
2.404908921000000088e+00,-2.563887780209999967e+00,-2.080096218980000133e-01,-9.457018816210000622e+00,1.755226775999999683e-02,-9.185334667560000194e-03,-1.352448947729999879e-02,1.000000000000000000e+00
2.410032827999999849e+00,-2.641272633190000274e+00,-1.619974287150000025e-01,-9.498739066080000626e+00,1.361018512399999811e-02,-1.611544005570000188e-02,1.270693819970000055e-02,1.000000000000000000e+00
2.415048078999999959e+00,-2.542969787609999699e+00,-1.790117832119999808e-01,-9.398720356489999261e+00,4.495800938460000132e-03,-1.280746981499999992e-02,-5.691473372279999207e-03,1.000000000000000000e+00
2.420087259999999851e+00,-2.578363464809999783e+00,-1.865486997890000165e-01,-9.436608480860000370e+00,1.697940565649999969e-02,-6.201839540149999171e-03,4.210848361250000074e-03,1.000000000000000000e+00
2.425063524000000026e+00,-2.573608671500000167e+00,-1.664942652099999920e-01,-9.459182716239999067e+00,9.470111690459998011e-03,-3.380334936080000002e-03,7.552234455939998981e-03,1.000000000000000000e+00
2.430059740999999995e+00,-2.584849611959999738e+00,-2.211981162300000470e-01,-9.467642501549999423e+00,6.118107587100000792e-03,-2.097219927240000052e-03,4.571805708109999422e-03,1.000000000000000000e+00
2.435032977000000098e+00,-2.594476102959999864e+00,-2.021770798199999941e-01,-9.475649866919999553e+00,7.299888879060000176e-03,6.324410438540000248e-03,-1.895550987680000039e-03,1.000000000000000000e+00
2.440047432000000072e+00,-2.584238786579999836e+00,-1.560413698550000006e-01,-9.486804298139999148e+00,7.215822697619999736e-04,4.418935626749999693e-03,8.743264712390000012e-03,1.000000000000000000e+00
2.445092256000000130e+00,-2.523686410459999863e+00,-1.605200861709999982e-01,-9.450104506769999801e+00,1.465499121700000046e-02,1.475463248789999834e-02,-5.983812268819999926e-03,1.000000000000000000e+00
2.450004590999999898e+00,-2.594824478000000045e+00,-1.927336903000000101e-01,-9.469597142750000529e+00,-3.988850396129999844e-03,-1.331021310759999922e-03,5.503523163499999746e-03,1.000000000000000000e+00
2.455034772999999948e+00,-2.534222417530000104e+00,-1.927520479410000098e-01,-9.465279279549999814e+00,-5.017749965190000140e-03,1.217502728099999904e-02,-5.970459431409999747e-03,1.000000000000000000e+00
2.460056652000000010e+00,-2.593963477259999983e+00,-1.925296738940000252e-01,-9.439072825149999346e+00,1.351260580120000089e-02,-4.593259654940000272e-04,1.366458926350000089e-02,1.000000000000000000e+00
2.465089180000000102e+00,-2.548456402319999814e+00,-1.856011898059999887e-01,-9.481936399840000362e+00,-1.359578571280000044e-03,-1.077702268959999932e-02,-1.308840792630000006e-02,1.000000000000000000e+00
2.470041027999999805e+00,-2.579832076059999757e+00,-1.400795474850000111e-01,-9.424073408940000007e+00,1.291287410999999823e-02,9.609886445110000716e-03,1.624713884670000085e-03,1.000000000000000000e+00
2.475050847999999970e+00,-2.563443543570000038e+00,-2.350067152210000287e-01,-9.410542311709999552e+00,3.867909312250000266e-03,9.013213217260000742e-03,-8.031882345680000854e-03,1.000000000000000000e+00
2.480042935000000170e+00,-2.593737267289999870e+00,-2.196395982090000032e-01,-9.426976144639999333e+00,-4.781094903590000405e-04,6.917552091179999738e-03,-8.850518614050000010e-03,1.000000000000000000e+00
2.484829856999999809e+00,-2.547997260379999851e+00,-1.545714251660000038e-01,-9.443466676189999021e+00,-2.597326971590000269e-02,-4.020806867629999996e-03,-3.196374513210000195e-03,1.000000000000000000e+00
2.490045530999999812e+00,-2.606473707009999696e+00,-2.239130925429999863e-01,-9.372001860919999316e+00,3.870427608490000534e-04,6.414387375119999860e-03,1.301095122470000013e-03,1.000000000000000000e+00
2.495051816999999783e+00,-2.576924079659999922e+00,-2.444764812909999974e-01,-9.402328610119999652e+00,7.554609794170000052e-03,3.591916989540000407e-03,2.111344831060000139e-03,1.000000000000000000e+00
2.499922139000000154e+00,-2.538826111929999740e+00,-1.804107267570000117e-01,-9.409588956509999491e+00,-7.735537365079999013e-03,1.565612666310000137e-02,-1.954898936669999861e-03,1.000000000000000000e+00
2.505028538999999999e+00,-2.579853118840000015e+00,-2.126252624670000035e-01,-9.439098544109999267e+00,-3.729392308739999922e-03,-2.033026423309999744e-03,-7.372115738689999191e-03,1.000000000000000000e+00
2.510017351000000119e+00,-2.555549867709999923e+00,-1.807064765670000073e-01,-9.445268757180000918e+00,-5.743059795350000281e-03,2.208466175940000057e-03,-4.795515444130000332e-03,1.000000000000000000e+00
2.514911843000000147e+00,-2.553015965320000191e+00,-1.949083126590000214e-01,-9.434597141039999357e+00,-1.799484714870000154e-02,5.468366667629999574e-03,-5.627749487759999740e-04,1.000000000000000000e+00
2.520025014999999868e+00,-2.626093768750000113e+00,-1.710910366820000139e-01,-9.449030740059999545e+00,-1.345322933050000121e-02,7.049740292129999530e-03,1.914591528479999902e-02,1.000000000000000000e+00
2.525088279000000213e+00,-2.548239252440000158e+00,-1.533384858379999993e-01,-9.454287929939999557e+00,5.858745891600000699e-03,1.039821002629999838e-02,5.398478358979999329e-03,1.000000000000000000e+00
2.530047421999999990e+00,-2.574659057329999889e+00,-1.758769192519999969e-01,-9.454783604500001104e+00,-1.107435580339999857e-02,1.648271828890000151e-02,-4.216175526380000309e-03,1.000000000000000000e+00
2.535050411999999920e+00,-2.590308754150000059e+00,-1.970736374669999902e-01,-9.426271211239999559e+00,-8.005690760909999273e-03,2.081207185979999999e-02,-1.104521332310000065e-03,1.000000000000000000e+00
2.540038844000000129e+00,-2.553838972140000330e+00,-1.758964824689999984e-01,-9.438217085099999792e+00,-2.327586151660000074e-02,2.097067236899999992e-02,1.869691302999999805e-03,1.000000000000000000e+00
2.545047735999999894e+00,-2.607086285949999915e+00,-1.772336310909999879e-01,-9.471647645539999161e+00,6.188150029629999743e-03,2.125512436029999841e-02,1.180728524919999987e-02,1.000000000000000000e+00
2.550006514000000113e+00,-2.551223236690000284e+00,-2.262419373500000053e-01,-9.485406706299999158e+00,-1.173619087789999973e-02,1.438621245319999901e-02,1.052782405170000178e-02,1.000000000000000000e+00
2.554987108000000173e+00,-2.577695356290000017e+00,-1.867343585540000017e-01,-9.467014140519999899e+00,-8.045232854779999637e-03,1.628165133300000025e-02,9.066021069879998118e-03,1.000000000000000000e+00
2.560050937999999832e+00,-2.542091835729999971e+00,-1.572125142599999914e-01,-9.482218723909999980e+00,-1.392337959260000167e-02,7.962608709929999695e-03,1.261905068530000049e-03,1.000000000000000000e+00
2.565041020999999866e+00,-2.554425539859999539e+00,-1.192313504470000063e-01,-9.486438387439999786e+00,-2.903684973719999722e-03,1.921851933000000290e-02,6.155822426079999438e-03,1.000000000000000000e+00
2.570006863999999780e+00,-2.559440445409999931e+00,-1.474206126969999919e-01,-9.446751104689999678e+00,2.284967806189999902e-03,1.140687614680000080e-03,1.159927342089999910e-02,1.000000000000000000e+00
2.575038483000000156e+00,-2.543128193040000262e+00,-1.890316574450000009e-01,-9.440746311319999862e+00,1.160299638289999900e-03,1.994626782829999820e-02,1.327504497020000167e-02,1.000000000000000000e+00
2.580026613999999885e+00,-2.530669108960000191e+00,-2.049283330229999811e-01,-9.497429152529999641e+00,-4.400063771749999908e-03,1.568701863290000026e-02,4.544791299850000146e-04,1.000000000000000000e+00
2.584889862999999899e+00,-2.557092713239999870e+00,-1.558834210800000009e-01,-9.452191834439998885e+00,4.082975443449999783e-03,6.390459835530000465e-03,1.743602566420000138e-02,1.000000000000000000e+00
2.590027945000000109e+00,-2.554818630829999826e+00,-1.594558910059999945e-01,-9.465570371449999243e+00,-6.931904703380000095e-03,1.785337552430000044e-02,1.734953001140000090e-02,1.000000000000000000e+00
2.595025453999999954e+00,-2.509113987490000142e+00,-2.202667353970000075e-01,-9.479662609689999186e+00,-1.488804817200000200e-03,1.748703233900000126e-02,-2.291620243340000349e-03,1.000000000000000000e+00
2.599928835000000049e+00,-2.548634681500000276e+00,-1.727091942020000104e-01,-9.467883909089998440e+00,3.299534320829999520e-03,1.293287798760000065e-02,1.570770144460000017e-02,1.000000000000000000e+00
2.605034689000000014e+00,-2.515467448169999898e+00,-1.634560117589999861e-01,-9.510060670560001483e+00,-4.058605991300000271e-03,1.490360870959999903e-02,2.170023741199999905e-03,1.000000000000000000e+00
2.609993490999999999e+00,-2.539596511780000121e+00,-2.109173077719999900e-01,-9.498820899149999164e+00,3.104981733490000113e-04,1.875317096710000034e-02,-1.878903131000000037e-03,1.000000000000000000e+00
2.615028520000000078e+00,-2.565699798070000259e+00,-1.428468111079999880e-01,-9.461554706070000265e+00,2.978328848260000140e-03,1.469925977290000019e-02,1.470555458220000090e-02,1.000000000000000000e+00
2.620016741999999788e+00,-2.561754567569999974e+00,-1.320202692680000067e-01,-9.466275304850000794e+00,1.348752155899999965e-02,1.808290742340000132e-02,6.179725751279999645e-03,1.000000000000000000e+00
2.625039736000000179e+00,-2.558328392519999994e+00,-2.176370079479999775e-01,-9.461056693419999775e+00,-1.314655644819999773e-03,1.212179660799999996e-02,-1.132945180869999969e-03,1.000000000000000000e+00
2.629832948999999864e+00,-2.576939861750000116e+00,-1.677558461110000010e-01,-9.463085568900000411e+00,-6.121858954430000298e-03,-1.450167852450000164e-03,9.381521493200000242e-03,1.000000000000000000e+00
2.635027335999999831e+00,-2.535403151740000194e+00,-1.643953932349999925e-01,-9.492550148310000324e+00,1.787517778580000050e-02,1.292807981370000178e-02,-8.004222065210000667e-03,1.000000000000000000e+00
2.640016419000000170e+00,-2.556808051079999977e+00,-1.203358593559999967e-01,-9.470182833680000911e+00,-3.219831036400000023e-03,6.270069628950000230e-03,6.047084927560000475e-03,1.000000000000000000e+00
2.644843943999999780e+00,-2.537624334920000280e+00,-1.927176707470000250e-01,-9.458332236889999578e+00,1.898776926100000095e-02,1.882953010500000232e-02,-1.843366771939999914e-05,1.000000000000000000e+00
2.649959743000000145e+00,-2.533444126630000071e+00,-1.925789563960000061e-01,-9.438333404959999839e+00,5.472383927550000284e-03,2.930767834189999983e-03,-3.309662686659999801e-03,1.000000000000000000e+00
2.655051816999999925e+00,-2.579811325530000143e+00,-1.645971446179999853e-01,-9.511913604949999268e+00,-1.108634937549999970e-02,1.738980598749999967e-02,6.796522997320000176e-03,1.000000000000000000e+00
2.660014434999999899e+00,-2.511424894779999750e+00,-1.358622677169999959e-01,-9.476132682000001139e+00,3.168284427370000010e-03,1.163254305720000034e-02,-5.965593736619999744e-04,1.000000000000000000e+00
2.664822719000000006e+00,-2.558601364240000287e+00,-1.797579071369999892e-01,-9.467166116210000482e+00,7.334173191339999655e-03,5.011972039940000047e-03,1.083502545949999868e-02,1.000000000000000000e+00
2.670012455000000173e+00,-2.542059394759999869e+00,-2.088578910240000142e-01,-9.404179790940000672e+00,1.335628330710000172e-02,2.186823077500000059e-02,8.745437953619999809e-04,1.000000000000000000e+00
2.675003670999999805e+00,-2.537269237879999917e+00,-1.524450075969999985e-01,-9.467689847819999116e+00,-2.575623570010000113e-03,2.191537432370000218e-02,7.145808078350000120e-03,1.000000000000000000e+00
2.679818154999999980e+00,-2.549851071550000015e+00,-1.416792560329999950e-01,-9.469529922730000493e+00,8.342743851240000050e-03,1.701768860220000124e-02,8.937333710489998861e-03,1.000000000000000000e+00
2.684804874000000119e+00,-2.501913554600000200e+00,-1.725464048559999797e-01,-9.455502566419999866e+00,7.686187047509999981e-03,1.793330907820000000e-02,-4.796413704749999916e-03,1.000000000000000000e+00
2.689813966000000001e+00,-2.522412445010000059e+00,-1.628668136939999955e-01,-9.436490407439999117e+00,-5.811530165369999459e-03,1.368992216890000009e-02,-7.974094711240000202e-03,1.000000000000000000e+00
2.695009825000000081e+00,-2.574320911420000080e+00,-1.342693999019999862e-01,-9.437413952030000885e+00,2.124344371260000058e-02,5.612725391979999506e-03,7.008346728979999996e-03,1.000000000000000000e+00
2.699915654999999859e+00,-2.540265204819999845e+00,-1.797957183969999817e-01,-9.477482927560000547e+00,-1.995441736650000256e-03,3.676282241940000053e-03,1.754156546670000054e-03,1.000000000000000000e+00
2.704829822000000217e+00,-2.515900871149999940e+00,-1.975345512429999839e-01,-9.458749585519999670e+00,2.118434570729999661e-02,2.583704143759999947e-02,-7.494023069739999196e-03,1.000000000000000000e+00
2.709843159000000057e+00,-2.557690971400000013e+00,-1.618792274290000166e-01,-9.469235323699999540e+00,2.328575821590000289e-03,1.349792815740000033e-02,-4.313017707319999165e-03,1.000000000000000000e+00
2.715046742000000179e+00,-2.531662796170000007e+00,-9.517575393580000875e-02,-9.445569785950000963e+00,2.258055843409999611e-02,6.134402938189999818e-04,1.429794589059999853e-03,1.000000000000000000e+00
2.720038429999999785e+00,-2.519670452820000239e+00,-2.069309963479999959e-01,-9.441063122180000988e+00,1.030646078289999996e-02,9.146479889750000133e-03,-1.074463594700000076e-03,1.000000000000000000e+00
2.725060452000000133e+00,-2.527936761390000342e+00,-2.094402940219999842e-01,-9.457640162969999764e+00,7.340568583459999505e-03,2.472041919830000184e-02,-1.234706956890000091e-03,1.000000000000000000e+00
2.730010449999999977e+00,-2.504506201440000357e+00,-1.393580282780000068e-01,-9.458841355460000599e+00,-3.673466388139999973e-03,3.300878405569999952e-02,-1.174353878010000150e-03,1.000000000000000000e+00
2.735035952000000048e+00,-2.499377314120000193e+00,-1.999212271840000166e-01,-9.453221177489998794e+00,1.093344576660000046e-02,3.007789142429999948e-03,-1.093528699129999934e-02,1.000000000000000000e+00
2.739839372000000051e+00,-2.507062607920000019e+00,-2.178640764359999760e-01,-9.465012153049999100e+00,2.331181243059999783e-02,1.923954300580000068e-02,-1.693672873079999849e-02,1.000000000000000000e+00
2.745032993999999782e+00,-2.532127491069999792e+00,-1.810137889500000041e-01,-9.456520803560000132e+00,1.922006905079999897e-02,1.035038102420000189e-02,3.573946887630000038e-03,1.000000000000000000e+00
2.750012143999999825e+00,-2.541054601629999965e+00,-1.679353673970000183e-01,-9.481856904860000768e+00,1.545596029610000165e-02,2.034820243720000116e-02,-9.722337126729999057e-03,1.000000000000000000e+00
2.754881694999999908e+00,-2.542464468429999958e+00,-1.663563728430000055e-01,-9.420956153700000613e+00,1.206351444129999916e-02,1.667443849150000018e-02,-2.681065816429999398e-03,1.000000000000000000e+00
2.759840247000000080e+00,-2.495193890949999993e+00,-1.830111185130000040e-01,-9.413405299929999970e+00,1.795043237509999848e-02,-5.424155388030000441e-03,-1.010977290570000062e-02,1.000000000000000000e+00
2.764830746999999977e+00,-2.539788527219999814e+00,-1.888383998950000087e-01,-9.412452529250000310e+00,2.151237055660000161e-02,-4.421915858979999329e-03,-1.070923917000000079e-02,1.000000000000000000e+00
2.770028406999999859e+00,-2.821175026829999766e+00,-8.045986737360000252e-02,-9.632911974209999784e+00,-8.186853490770000172e-03,3.587206359949999396e-03,1.012089941650000033e-02,1.000000000000000000e+00
2.774851366000000041e+00,-2.173999258699999881e+00,-2.667736532950000239e-01,-9.337532020560001200e+00,5.810270085930000286e-03,2.808856777849999889e-03,3.668473334980000122e-03,1.000000000000000000e+00
2.779831118000000156e+00,-2.588563371779999844e+00,-3.088100747149999936e-01,-9.553176174189999870e+00,7.071123924109999799e-03,1.314696110790000011e-02,5.212074611340000024e-04,1.000000000000000000e+00
2.784862034000000097e+00,-2.663805367509999744e+00,-2.753195277189999790e-01,-9.428156294339999022e+00,4.829320125279999709e-03,1.598946191370000103e-02,-5.903526209289999480e-03,1.000000000000000000e+00
2.789849881999999948e+00,-2.436415392640000288e+00,-1.592210593370000093e-01,-9.514009115930001315e+00,-4.667924251409999968e-03,8.289037272329999664e-03,1.896255416800000015e-03,1.000000000000000000e+00
2.794829603999999801e+00,-2.589449214709999669e+00,-1.531016631409999884e-01,-9.427910210619998566e+00,-9.311740286649999518e-03,2.150255069140000197e-02,4.896218888460000102e-05,1.000000000000000000e+00
2.799795930000000155e+00,-2.568772337379999993e+00,-2.214277785330000248e-01,-9.474921552639999689e+00,-2.490774029869999989e-03,1.926617696879999800e-02,4.722582176329999555e-03,1.000000000000000000e+00
2.804799343000000000e+00,-2.480074940009999729e+00,-1.253184426750000025e-01,-9.468456156020000236e+00,2.742921700699999920e-03,1.011286582800000056e-02,5.844793282450000058e-03,1.000000000000000000e+00
2.809951154000000173e+00,-2.525313719409999713e+00,-2.229621850270000205e-01,-9.505395016839999656e+00,-6.497052032499999775e-03,1.658526621760000180e-02,-1.055581960829999835e-04,1.000000000000000000e+00
2.815039193000000051e+00,-2.537080729569999971e+00,-1.975819888479999897e-01,-9.465735791149999301e+00,4.311546683310000030e-03,1.261500082910000167e-02,-8.331708610060000950e-03,1.000000000000000000e+00
2.819795763000000122e+00,-2.519710784829999994e+00,-1.730386636190000271e-01,-9.501530742630000859e+00,1.500795478929999960e-04,7.148568518459999868e-03,-7.572574540970000885e-03,1.000000000000000000e+00
2.825041194999999838e+00,-2.560671448509999948e+00,-8.906122571139998834e-02,-9.437589893110001071e+00,5.502020474520001245e-03,2.169672027230000119e-02,-8.936120197180000280e-03,1.000000000000000000e+00
2.829854693000000143e+00,-2.535527654910000095e+00,-1.918635746689999755e-01,-9.484231232779999132e+00,4.157986491920000194e-03,6.707455031569999407e-03,-8.173272944989999969e-03,1.000000000000000000e+00
2.834988233999999885e+00,-2.552289404609999757e+00,-2.345664058419999753e-01,-9.471905419689999661e+00,1.421263441440000046e-02,1.988736912609999699e-02,-4.149356391280000465e-04,1.000000000000000000e+00
2.840007374999999890e+00,-2.468775547359999933e+00,-2.144078167690000036e-01,-9.454685404819999306e+00,1.736248843370000183e-02,1.613844186070000075e-02,-5.155344959350000554e-03,1.000000000000000000e+00
2.845036213999999841e+00,-2.561092596529999987e+00,-1.156319194490000035e-01,-9.469449258710000095e+00,1.661505177619999885e-02,1.714124903079999873e-02,1.173428632320000151e-02,1.000000000000000000e+00
2.850002134999999992e+00,-2.536359721820000246e+00,-1.273186309160000140e-01,-9.458874088680000014e+00,-2.644272171889999875e-04,2.016989979890000152e-03,-5.433065816760000288e-04,1.000000000000000000e+00
2.854885079999999853e+00,-2.552144150920000243e+00,-2.865876667139999889e-01,-9.441299269030000829e+00,1.257914490999999940e-02,1.340887136760000181e-02,4.374049603940000330e-05,1.000000000000000000e+00
2.859987197999999786e+00,-2.504940208940000357e+00,-2.311830470139999982e-01,-9.487823119789998927e+00,1.604963792489999888e-03,2.174682728950000019e-02,-9.624321013690000440e-03,1.000000000000000000e+00
2.864851633999999869e+00,-2.554327632440000162e+00,-1.500772007530000174e-01,-9.469958377280001116e+00,8.604914881290001011e-03,1.429302245380000003e-02,-3.791016526520000259e-03,1.000000000000000000e+00
2.870005616999999898e+00,-2.525545774600000293e+00,-2.299123694909999960e-01,-9.474956039430001198e+00,2.588374540209999880e-02,2.217867970469999950e-02,1.348928781230000068e-03,1.000000000000000000e+00
2.875013854000000091e+00,-2.496935181659999614e+00,-2.847215623140000318e-01,-9.479759640319999292e+00,2.225427702070000013e-02,2.169934101399999954e-02,-6.264301482590001061e-04,1.000000000000000000e+00
2.879969732000000171e+00,-2.507646837549999841e+00,-1.487755892359999832e-01,-9.444598310569999100e+00,1.889866217970000151e-02,1.275365613399999896e-02,-3.295700764279999896e-03,1.000000000000000000e+00
2.885041832999999833e+00,-2.502831546219999925e+00,-1.227299879509999997e-01,-9.459078086819999953e+00,7.031714194450000479e-04,-3.173701232300000109e-03,-8.838855661450000303e-03,1.000000000000000000e+00
2.890008304999999833e+00,-2.485993224150000014e+00,-2.050412370789999883e-01,-9.474826860100000303e+00,-1.512952381739999987e-03,4.742898046970000538e-03,-8.415387943389999667e-03,1.000000000000000000e+00
2.894978623000000084e+00,-2.505625268590000232e+00,-2.404110402160000159e-01,-9.434311309839999993e+00,1.635760068889999946e-02,2.334136329590000281e-02,7.279883138840000274e-03,1.000000000000000000e+00
2.900022261999999795e+00,-2.530058283579999845e+00,-2.168987020030000157e-01,-9.488950078000000232e+00,7.721452508120000245e-03,2.613921277230000020e-02,7.486719638109999922e-03,1.000000000000000000e+00
2.904809514000000092e+00,-2.519827104690000041e+00,-1.785564589260000001e-01,-9.460337146969999722e+00,1.042167842390000036e-02,5.438902881000000182e-04,-2.052987227220000235e-03,1.000000000000000000e+00
2.910008590999999978e+00,-2.517154086090000131e+00,-2.191489834140000204e-01,-9.461212760760000506e+00,9.664447046820000622e-03,3.029788471759999741e-02,7.458176463839999784e-03,1.000000000000000000e+00
2.914990407999999977e+00,-2.446032092899999899e+00,-2.337210775910000260e-01,-9.496817742630000225e+00,7.868343032900000297e-03,2.021030895410000014e-02,-2.068573422729999903e-02,1.000000000000000000e+00
2.920018365999999865e+00,-2.544230601319999785e+00,-1.655199220190000098e-01,-9.456328495850000238e+00,1.077065616850000039e-02,6.437824107709999751e-03,-6.078676786270000368e-03,1.000000000000000000e+00
