t,ax,ay,az,wx,wy,wz,zv
5.072331000000000235e-03,-2.504724228100000172e+00,3.137846391240000504e-02,-9.466046172269999559e+00,-1.666978001589999869e-02,-6.884685717519999776e-03,-1.065275073049999979e-02,1.000000000000000000e+00
1.015189700000000000e-02,-2.559270641799999968e+00,4.809906419329999794e-02,-9.464527584400000748e+00,-1.561123598370000101e-02,1.466245576739999903e-02,-5.421722307800000244e-03,1.000000000000000000e+00
1.523539699999999948e-02,-2.608777600029999810e+00,5.302946980019999923e-02,-9.442076683139998039e+00,6.130883004519999992e-03,1.360540650780000041e-02,2.817990630870000068e-02,1.000000000000000000e+00
2.026327400000000126e-02,-2.494888185999999841e+00,5.622949425080000369e-02,-9.486131513440000163e+00,-1.318014506250000072e-02,2.014691010120000028e-02,1.842559548089999942e-03,1.000000000000000000e+00
2.526999099999999859e-02,-2.574454766929999749e+00,3.746729600649999908e-02,-9.456095856139999256e+00,-1.404006779189999853e-02,1.380247995260000006e-02,1.474137697370000132e-02,1.000000000000000000e+00
3.012300000000000047e-02,-2.523123223620000299e+00,4.214779567259999832e-02,-9.460060083600000169e+00,-1.215495727960000036e-02,3.095412161200000040e-03,7.600412704050000558e-03,1.000000000000000000e+00
3.526219099999999829e-02,-2.478079090020000042e+00,5.979853467690000174e-02,-9.462750053330001521e+00,-5.627135280520000581e-03,-8.979965001340000502e-03,1.426547532900000184e-03,1.000000000000000000e+00
4.011145399999999778e-02,-2.459889353340000362e+00,3.455775381889999998e-02,-9.485745144470000056e+00,1.967658754440000223e-03,6.876963190730000196e-03,-5.111175589260000089e-03,1.000000000000000000e+00
4.525608099999999662e-02,-2.540121120180000247e+00,6.485283609149999906e-02,-9.448270861599999293e+00,1.122697489339999919e-03,1.994989253580000191e-02,-3.989688586440000642e-03,1.000000000000000000e+00
5.027337300000000314e-02,-2.500377138809999789e+00,7.227229002659999769e-03,-9.488694641930001339e+00,-7.675319444389999517e-03,-7.993844337760000257e-04,2.565725008030000313e-03,1.000000000000000000e+00
5.525911800000000290e-02,-2.530791566290000016e+00,4.552088883489999876e-02,-9.477170208349999569e+00,5.379802081729999005e-03,-1.741385320200000220e-03,6.048628129069999818e-03,1.000000000000000000e+00
6.026929200000000209e-02,-2.537545132209999998e+00,2.192338167199999951e-02,-9.447691015889999377e+00,-1.575701753609999833e-05,-4.558033309880000529e-03,2.197560667989999911e-02,1.000000000000000000e+00
6.523178699999999941e-02,-2.469429919620000025e+00,6.944736537409999799e-02,-9.460689029150000096e+00,5.105961114169999850e-03,9.875267744059999450e-03,-4.996252246200000129e-03,1.000000000000000000e+00
7.014557100000000378e-02,-2.545242116450000314e+00,3.723798076260000089e-02,-9.471211592210000418e+00,1.017299015070000090e-02,-2.244968432929999973e-03,7.014761678870000579e-03,1.000000000000000000e+00
7.527101399999999720e-02,-2.497531393990000126e+00,2.887136276250000175e-02,-9.467005372690000087e+00,-3.837541211400000239e-03,2.382523007690000305e-02,5.621023476119999494e-03,1.000000000000000000e+00
8.026962399999999775e-02,-2.528805945440000258e+00,2.610994207499999983e-03,-9.493156882039999189e+00,-1.454972196369999984e-02,1.572340726849999828e-02,1.005333149809999873e-03,1.000000000000000000e+00
8.510666799999999643e-02,-2.527485802750000232e+00,-1.271964270250000063e-02,-9.476443647640000023e+00,4.422085825350000228e-03,8.931665681299999146e-03,-2.555289538580000127e-03,1.000000000000000000e+00
9.009910899999999667e-02,-2.517027829359999913e+00,3.963381269090000131e-02,-9.463299503910000965e+00,1.035673450679999892e-02,2.375813201070000116e-03,2.421848708760000225e-03,1.000000000000000000e+00
9.525210900000000147e-02,-2.523046943519999807e+00,2.872123196840000239e-02,-9.493776475239998902e+00,9.917625226079999565e-03,1.058516558260000004e-02,2.405813196669999866e-03,1.000000000000000000e+00
1.001060260000000007e-01,-2.513914665770000223e+00,1.558357962460000037e-02,-9.503008413959999956e+00,-7.587458472699999852e-03,1.217087265099999968e-02,-6.049065385010000614e-03,1.000000000000000000e+00
1.052676210000000057e-01,-2.503317576170000169e+00,4.088388581719999693e-02,-9.452817272860000841e+00,1.139982230960000058e-02,1.251613721249999860e-02,-3.765234490860000331e-03,1.000000000000000000e+00
1.102473179999999969e-01,-2.532166069520000118e+00,1.323696626610000072e-02,-9.489374440889999818e+00,1.157484296710000089e-02,-3.381446003909999984e-05,9.286707267169999613e-03,1.000000000000000000e+00
1.152686470000000019e-01,-2.513556646120000071e+00,2.519215366000000095e-02,-9.477851760880000143e+00,5.720557179300000440e-03,1.092061400410000022e-02,1.845818199219999983e-02,1.000000000000000000e+00
1.202621759999999984e-01,-2.473258538000000062e+00,-2.387139448419999845e-03,-9.501637710129999803e+00,1.559384819120000071e-02,-1.937626511790000155e-03,9.260204620660000135e-03,1.000000000000000000e+00
1.250891020000000076e-01,-2.438779199159999855e+00,3.581259445190000147e-03,-9.489260459119998714e+00,-5.627765785900000961e-04,1.237151306120000058e-02,-5.249693989750000428e-03,1.000000000000000000e+00
1.302748499999999976e-01,-2.510060912949999778e+00,4.664367775319999687e-02,-9.470998826239998891e+00,2.820179797709999967e-03,3.936053253710000178e-03,4.762946628029999206e-03,1.000000000000000000e+00
1.351682479999999908e-01,-2.502305768779999884e+00,2.399253436249999816e-02,-9.483492981630000429e+00,9.926563128829999846e-03,1.143821701409999947e-02,2.688137581570000222e-03,1.000000000000000000e+00
1.401095260000000120e-01,-2.534035370520000274e+00,3.345220601309999847e-02,-9.501813651219999102e+00,5.202883039600000089e-04,7.212480530140000755e-03,2.200765302400000366e-03,1.000000000000000000e+00
1.452455169999999907e-01,-2.518824941909999726e+00,2.862721755900000248e-02,-9.501177106880000167e+00,8.321228437130000558e-03,5.636837333439999147e-03,4.290150478479999932e-03,1.000000000000000000e+00
1.502885529999999914e-01,-2.503000180790000417e+00,1.695286667530000041e-02,-9.478248651239999489e+00,1.658493466679999973e-02,1.150394789870000031e-02,-4.801194183529999306e-03,1.000000000000000000e+00
1.550793709999999936e-01,-2.555175773709999820e+00,4.338757116719999668e-02,-9.455228425660001434e+00,1.083068642769999951e-02,6.953844800589999500e-03,3.197884885590000000e-03,1.000000000000000000e+00
1.602463070000000045e-01,-2.485141575749999721e+00,1.446414828229999894e-02,-9.487982109749999893e+00,1.385150104760000077e-02,-1.027063839139999955e-02,-1.137502677740000016e-02,1.000000000000000000e+00
1.652047010000000093e-01,-2.511445937570000009e+00,1.567408690270000182e-02,-9.481147879810000845e+00,2.790666185319999929e-04,7.103160955010000624e-03,-7.025948725640000954e-03,1.000000000000000000e+00
1.700727049999999907e-01,-2.551163615449999700e+00,5.986968195059999553e-02,-9.473352111369999662e+00,1.524219382549999932e-02,9.734510444100001603e-03,8.682350162420000112e-04,1.000000000000000000e+00
1.750807159999999973e-01,-2.483749829129999753e+00,6.099017388050000099e-02,-9.464970651989998984e+00,2.105440478769999863e-03,3.723312169309999937e-03,-5.458063445989999249e-03,1.000000000000000000e+00
1.800757010000000047e-01,-2.542507723049999946e+00,1.455240994600000108e-02,-9.477281852029999953e+00,-1.196194533259999949e-02,-7.495361380280000062e-03,9.844569489360001369e-03,1.000000000000000000e+00
1.850667910000000083e-01,-2.476439798379999946e+00,4.544176831730000615e-02,-9.478886364620001004e+00,1.268293522300000149e-02,-1.694493461400000062e-03,-5.237051285800000365e-03,1.000000000000000000e+00
1.900542909999999863e-01,-2.523036422120000122e+00,2.043142379790000018e-02,-9.485642268619999484e+00,2.526154508809999848e-03,-2.213201252740000079e-03,-4.366778302940000104e-04,1.000000000000000000e+00
1.952243909999999971e-01,-2.510258773609999938e+00,5.989370671360000342e-02,-9.458682950030000924e+00,2.491922490300000140e-02,-5.760387517510000624e-03,1.261607976630000055e-03,1.000000000000000000e+00
2.000755320000000004e-01,-2.484277944660000070e+00,5.035156039440000231e-02,-9.463276707560000389e+00,1.047482015570000121e-03,1.390078105029999948e-02,-1.219962537289999947e-02,1.000000000000000000e+00
2.050649669999999869e-01,-2.531878777009999748e+00,2.294995509060000077e-02,-9.473453233660000805e+00,2.051766403020000018e-02,3.470182418819999881e-04,-7.732762955130000060e-03,1.000000000000000000e+00
2.100417420000000035e-01,-2.493421912840000143e+00,3.351981875599999855e-02,-9.489041847930000273e+00,9.538283571599999802e-03,-2.639056183399999915e-03,-2.280694060029999845e-02,1.000000000000000000e+00
2.150260850000000057e-01,-2.575812611279999942e+00,4.093322311799999641e-02,-9.458013672459999910e+00,1.604223251339999962e-02,8.213594555849999118e-03,3.010970307510000502e-03,1.000000000000000000e+00
2.202470039999999962e-01,-2.506558165529999993e+00,5.021513389869999844e-02,-9.476572242459999629e+00,5.638510920109998832e-03,1.114087924360000065e-02,3.939521498980000196e-03,1.000000000000000000e+00
2.250218589999999907e-01,-2.512527010809999517e+00,3.136926682579999764e-02,-9.461658750970000753e+00,1.878794841470000226e-02,6.574368104339999887e-03,-1.534603070470000330e-04,1.000000000000000000e+00
2.300700529999999966e-01,-2.479699092440000197e+00,-1.049692857670000111e-02,-9.482105911189998793e+00,7.582994643599999703e-03,1.170986425129999856e-02,-1.281598117199999991e-02,1.000000000000000000e+00
2.352397519999999964e-01,-2.543265263419999922e+00,-9.345417029059999159e-03,-9.487973341919998305e+00,4.620308522140000561e-03,7.653094828129999513e-03,5.101228132840000470e-03,1.000000000000000000e+00
2.400138169999999904e-01,-2.471423723790000082e+00,2.177204986799999992e-02,-9.462213462239999373e+00,1.720849890260000041e-03,9.897845797240000312e-03,-9.047796018420000211e-03,1.000000000000000000e+00
2.452095149999999890e-01,-2.545319273340000077e+00,-2.011356718750000050e-02,-9.501751691900000907e+00,1.570700481530000123e-02,4.943042993550000007e-03,1.878143986690000190e-03,1.000000000000000000e+00
2.502007479999999728e-01,-2.526388362900000129e+00,2.061254110200000031e-02,-9.464206681880000360e+00,-6.293544545770000248e-03,1.379370689390000022e-02,9.030859917400000172e-03,1.000000000000000000e+00
2.552327140000000272e-01,-2.474419982990000211e+00,3.094277590879999928e-02,-9.496104041400000639e+00,8.173161186280000073e-03,1.745899766679999757e-02,3.759706160049999975e-03,1.000000000000000000e+00
2.600865230000000139e-01,-2.485964874840000061e+00,8.493370201919999904e-03,-9.480319612289999753e+00,3.659310750659999691e-03,1.077780313790000118e-02,2.380430931230000016e-03,1.000000000000000000e+00
2.650695169999999767e-01,-2.483050156430000044e+00,7.258181263350000495e-03,-9.485116198920000130e+00,3.888837993139999949e-03,3.945304080839999797e-03,1.072532031690000135e-04,1.000000000000000000e+00
2.701050910000000194e-01,-2.494681849780000071e+00,2.390996379579999817e-02,-9.484121342659999954e+00,6.009996286590000300e-04,9.986223652959999239e-03,5.123822018500000242e-03,1.000000000000000000e+00
2.752215439999999846e-01,-2.509944300840000420e+00,2.879000690529999809e-02,-9.484338784810001144e+00,2.102720923719999732e-02,2.222349401559999861e-03,2.704418729990000297e-04,1.000000000000000000e+00
2.802389479999999877e-01,-2.511820031580000112e+00,1.097642147259999916e-02,-9.485115614399999728e+00,1.243817247449999913e-02,-6.178613752130000109e-03,-8.655395358799999883e-03,1.000000000000000000e+00
2.850447280000000250e-01,-2.551639708529999773e+00,1.110020768250000005e-02,-9.466344862959999773e+00,9.162426926200001667e-03,-1.991953002289999653e-03,8.239686489110000303e-03,1.000000000000000000e+00
2.900445730000000277e-01,-2.480834233950000023e+00,3.595347564369999471e-02,-9.475269927689998539e+00,-8.598907850680001519e-03,-5.597323179239999981e-03,-4.064282402400000264e-03,1.000000000000000000e+00
2.950809710000000252e-01,-2.500980949920000196e+00,-7.036706832670000002e-03,-9.489638060260000785e+00,3.005850827320000283e-03,1.028171554210000060e-02,2.410837914789999974e-04,1.000000000000000000e+00
3.000863639999999943e-01,-2.494179453209999675e+00,3.018333127709999647e-02,-9.449366255630000211e+00,1.555231306700000093e-02,6.686858832839999607e-03,1.442038221280000053e-03,1.000000000000000000e+00
3.052185590000000004e-01,-2.511430740000000217e+00,2.855104020039999843e-03,-9.450070604500000471e+00,-2.364726737139999802e-03,-5.577279254789999953e-03,6.331696175039999361e-03,1.000000000000000000e+00
3.100901240000000225e-01,-2.465878072359999784e+00,1.328626931750000011e-02,-9.485656881669999763e+00,-2.525073243309999826e-03,-3.471848089250000220e-03,-1.684844866389999946e-02,1.000000000000000000e+00
3.150790119999999916e-01,-2.537868665069999974e+00,9.911993411739998885e-03,-9.460755664649999730e+00,1.401838287710000137e-02,8.054609410460000091e-03,-2.654527779670000170e-04,1.000000000000000000e+00
3.202416539999999867e-01,-2.513754506780000231e+00,-1.751251898519999919e-02,-9.475563357680000465e+00,6.142822094260000018e-03,1.508811954410000126e-03,-4.765445366500000585e-03,1.000000000000000000e+00
3.250679160000000123e-01,-2.442589697359999867e+00,2.396608703029999912e-02,-9.464751456280000141e+00,1.790621690450000178e-02,-5.876568146049999768e-03,-1.042082346979999845e-02,1.000000000000000000e+00
3.301261639999999997e-01,-2.495271340099999957e+00,1.679921505019999969e-02,-9.486103456389999522e+00,1.104865968230000009e-02,1.004422456029999827e-02,-1.126462221150000172e-02,1.000000000000000000e+00
3.352414439999999995e-01,-2.468132573290000131e+00,1.386014994059999979e-03,-9.470017998510000368e+00,-9.721755981449999723e-03,4.086786415429999667e-03,-1.324012037370000082e-02,1.000000000000000000e+00
3.400561990000000034e-01,-2.573050160829999822e+00,2.622334617149999977e-02,-9.508036471260000511e+00,-1.623509265479999852e-02,-4.211574792859999923e-03,1.158693991600000077e-02,1.000000000000000000e+00
3.450746210000000258e-01,-2.493158293470000064e+00,-5.589414079960000441e-03,-9.468741987230000490e+00,3.171582473440000358e-03,7.234213873739999377e-03,9.642939548939998820e-04,1.000000000000000000e+00
3.501321820000000140e-01,-2.495263741320000062e+00,-1.768565619559999899e-02,-9.484680145589999611e+00,-3.994689788670000019e-03,8.027285337450000557e-03,4.432296846059999903e-04,1.000000000000000000e+00
3.551840379999999797e-01,-2.506540045349999968e+00,-8.024273119129999438e-03,-9.470265251269999851e+00,-1.998708583410000079e-03,6.493294611569999653e-03,2.721354132519999795e-03,1.000000000000000000e+00
3.600993239999999984e-01,-2.448723670070000136e+00,2.299688123859999767e-02,-9.449695341449999120e+00,-1.648965990170000095e-03,1.062359660859999930e-02,-1.260276045650000031e-02,1.000000000000000000e+00
3.650599540000000198e-01,-2.526393331339999992e+00,-5.677660902279999151e-03,-9.483899224349999102e+00,7.898312062029998540e-03,1.673257909720000242e-02,-1.240042783320000237e-02,1.000000000000000000e+00
3.700890379999999813e-01,-2.535451082540000289e+00,1.923521116709999909e-02,-9.483456156749999977e+00,8.261134847999999919e-03,-3.221235238019999787e-03,2.383251441640000037e-03,1.000000000000000000e+00
3.750599319999999848e-01,-2.501102238209999662e+00,4.215004242869999085e-02,-9.448899222639999707e+00,-8.678322657939999824e-03,1.680846698579999826e-02,-2.547997981310000035e-03,1.000000000000000000e+00
3.800470570000000214e-01,-2.497340547589999904e+00,2.503180172429999781e-03,-9.491748768799999070e+00,-2.687939675520000047e-03,-6.785967852919999989e-04,-6.124571897090000903e-03,1.000000000000000000e+00
3.850615980000000049e-01,-2.498705990729999993e+00,2.992082386640000299e-02,-9.479221295660000379e+00,5.323549266899999834e-03,4.441615194079999787e-03,-2.050801180299999856e-03,1.000000000000000000e+00
3.900544619999999907e-01,-2.495987379419999819e+00,5.686009176340000443e-03,-9.534820433289999286e+00,-7.264685817060000279e-03,1.891272142529999787e-03,-4.522074479609999344e-03,1.000000000000000000e+00
3.951905729999999894e-01,-2.496464057020000293e+00,1.807913190059999911e-02,-9.482080776749999274e+00,1.040826924150000006e-02,3.765636123720000113e-03,-1.267309486870000189e-02,1.000000000000000000e+00
4.000766869999999864e-01,-2.498667120019999910e+00,-1.194651774689999869e-02,-9.500790153389999659e+00,1.782752946020000132e-02,-1.193925179539999902e-02,-1.674675731920000120e-03,1.000000000000000000e+00
4.051951200000000197e-01,-2.527949620870000302e+00,-2.109687913639999874e-03,-9.479469132939998488e+00,1.037092646579999920e-03,6.827514618640001011e-03,4.844768904149999826e-03,1.000000000000000000e+00
4.101188669999999981e-01,-2.506437169499999840e+00,-8.112578165319999507e-03,-9.472051550159999778e+00,-1.458373852069999848e-03,1.101225148890000102e-02,1.744028180840000164e-02,1.000000000000000000e+00
4.150178569999999900e-01,-2.435094957690000061e+00,2.495139914010000015e-02,-9.499740936600000296e+00,8.654524572190000486e-03,1.376849040389999980e-02,-6.106473505499999781e-03,1.000000000000000000e+00
4.202369639999999906e-01,-2.495852647119999990e+00,4.833686642100000139e-03,-9.494361581649998882e+00,1.202581264079999844e-02,-1.732815057040000203e-02,-6.765824742619999492e-03,1.000000000000000000e+00
4.250711600000000034e-01,-2.567094467300000016e+00,3.926445878869999975e-03,-9.485520688069998485e+00,-4.327564500270000662e-03,-3.165964270010000314e-03,-3.790790215130000339e-04,1.000000000000000000e+00
4.301197489999999957e-01,-2.504989016520000167e+00,1.676371105360000002e-02,-9.498630345009999587e+00,-9.252023883159999837e-03,4.431169480090000300e-03,-6.659119389950000044e-03,1.000000000000000000e+00
4.352328799999999887e-01,-2.517412737020000346e+00,1.693906876210000273e-02,-9.469438737319999078e+00,-2.391118323430000032e-03,1.435428485270000103e-02,4.420364275569999522e-03,1.000000000000000000e+00
4.400271940000000104e-01,-2.481898940570000267e+00,2.543285566420000043e-03,-9.483642619239999405e+00,4.850610624999999662e-03,-1.288403756920000016e-03,-2.747287042440000032e-03,1.000000000000000000e+00
4.450724420000000126e-01,-2.502924192940000125e+00,-3.219948998019999797e-03,-9.464372686100000820e+00,9.210765361789999967e-03,5.981454625729999697e-03,-1.654648222029999954e-03,1.000000000000000000e+00
4.502212509999999890e-01,-2.540288585699999935e+00,5.480254617060000694e-03,-9.431499759550000306e+00,-6.847803480920000400e-03,-5.808743648229999085e-03,5.795467644930000356e-03,1.000000000000000000e+00
4.552346540000000163e-01,-2.471936057220000205e+00,6.157144665050000125e-03,-9.478864152789999054e+00,-4.641165432990000672e-04,8.548207581039999475e-03,-7.024579681460000821e-03,1.000000000000000000e+00
4.600588019999999889e-01,-2.530324533299999956e+00,-1.388382421870000029e-02,-9.456185287989999466e+00,8.677978068589999386e-03,3.341308794920000349e-03,1.223323121670000062e-02,1.000000000000000000e+00
4.649998980000000226e-01,-2.464988137779999811e+00,6.345154075910000059e-03,-9.459604741050000598e+00,-1.364826457569999875e-03,4.818000830710000154e-03,-7.151123136279999987e-03,1.000000000000000000e+00
4.701046629999999782e-01,-2.504629243290000140e+00,1.519025119180000090e-03,-9.464548627190000119e+00,8.428824367000000665e-05,-1.539138727819999806e-03,-2.710922621190000204e-03,1.000000000000000000e+00
4.750571840000000212e-01,-2.520639005590000092e+00,3.141625233920000010e-02,-9.451272966030000333e+00,-2.131203422320000068e-03,3.159319516270000117e-03,3.446512622759999919e-03,1.000000000000000000e+00
4.800685579999999786e-01,-2.472785075270000021e+00,7.549371345830000087e-03,-9.458386597429999654e+00,9.831737726930000684e-03,1.585854217410000155e-02,-1.255813427270000178e-02,1.000000000000000000e+00
4.850663080000000016e-01,-2.505938280070000079e+00,2.389679036199999617e-03,-9.500411967730000740e+00,-9.082396281880000203e-04,-3.711511613800000213e-03,-6.273939274250000392e-03,1.000000000000000000e+00
4.900221220000000044e-01,-2.562223061870000151e+00,1.083543068289999876e-02,-9.502902615500000039e+00,1.245028618720000167e-02,-8.807845879349998543e-04,8.643023669719999622e-03,1.000000000000000000e+00
4.950226549999999781e-01,-2.442099721880000018e+00,3.471234615900000396e-03,-9.507926581139999556e+00,2.379966666919999981e-03,-4.275173414500000463e-03,-1.152249611909999909e-02,1.000000000000000000e+00
5.000240620000000469e-01,-2.505167295690000184e+00,2.034542373160000070e-02,-9.489638644780001187e+00,8.275531581600000398e-04,8.164369501169999694e-04,-8.518405258659999396e-03,1.000000000000000000e+00
5.049598370000000225e-01,-2.462894672629999615e+00,-4.753233825520000386e-03,-9.489266304339999181e+00,1.032951753589999959e-02,-3.974565304820000186e-03,-9.582292288540001854e-03,1.000000000000000000e+00
5.100462909999999850e-01,-2.548643741590000289e+00,-6.858983066270000692e-03,-9.480486785549999240e+00,-7.168722338969999407e-03,-4.917022772129999754e-03,5.007080733779999994e-03,1.000000000000000000e+00
5.149304120000000040e-01,-2.524251350870000188e+00,1.468537040960000116e-02,-9.458441542490000131e+00,1.677919179199999916e-02,-1.727065443990000171e-02,1.529996190219999955e-02,1.000000000000000000e+00
5.202320769999999595e-01,-2.465222531059999778e+00,2.409226156010000133e-02,-9.470476848189999686e+00,-7.562603335830000301e-03,-1.597831398250000243e-02,-3.833205671979999542e-03,1.000000000000000000e+00
5.250381210000000243e-01,-2.494084176140000331e+00,-5.912702063189999822e-03,-9.500172898280000666e+00,6.540625356140000735e-03,4.306429065760000383e-03,-6.710624322300000159e-03,1.000000000000000000e+00
5.300530260000000382e-01,-2.500597503559999879e+00,2.723792090840000072e-04,-9.471661674059999925e+00,6.866835523399999509e-03,-1.144753862170000067e-02,-4.956286866220000094e-03,1.000000000000000000e+00
5.352198820000000357e-01,-2.513590548390000290e+00,-4.524203079440000663e-02,-9.508291322799999890e+00,7.248627021909999531e-03,1.015140116209999922e-02,2.997660776600000101e-03,1.000000000000000000e+00
5.400689650000000119e-01,-2.450399932720000340e+00,-1.169090244299999908e-02,-9.468759522879999224e+00,3.821566700939999818e-03,-9.752210229639998729e-03,-7.514994591470000249e-03,1.000000000000000000e+00
5.452054689999999981e-01,-2.478414605590000264e+00,3.359311003780000165e-02,-9.461741168550000580e+00,-7.478136103600000785e-03,-1.041715499010000120e-03,-7.022214122119999589e-03,1.000000000000000000e+00
5.502110740000000222e-01,-2.520849433470000012e+00,1.005183799060000056e-02,-9.444092114620000089e+00,-4.020788765050000314e-04,-3.696959465740000048e-03,1.516913296650000079e-03,1.000000000000000000e+00
5.550607829999999465e-01,-2.492002109169999979e+00,-1.276783493400000108e-02,-9.470124381489998910e+00,-1.629098085690000065e-03,-2.435947302729999861e-03,-5.486866459249999974e-03,1.000000000000000000e+00
5.602286199999999550e-01,-2.559254567450000017e+00,1.253717254989999974e-02,-9.446641799100000014e+00,7.704474497589999804e-03,-1.508629322050000082e-02,4.349210299550000311e-03,1.000000000000000000e+00
5.650302830000000220e-01,-2.518485334690000244e+00,1.002093025400000066e-02,-9.456583931919999131e+00,-6.522871553900000050e-03,5.018845200540000481e-03,6.842997390780001642e-04,1.000000000000000000e+00
5.702277940000000100e-01,-2.469036244129999780e+00,1.324725248140000075e-02,-9.479268057410001447e+00,-6.448460277170000102e-03,-1.610719133170000024e-03,-7.456826046109999231e-03,1.000000000000000000e+00
5.752128549999999674e-01,-2.522567051049999787e+00,6.211033701689999860e-03,-9.475110937739998462e+00,4.830263555050000324e-03,-8.812029846009998904e-03,2.492564031850000132e-03,1.000000000000000000e+00
5.800461980000000128e-01,-2.491732644579999878e+00,2.430318491400000266e-02,-9.446586854039999537e+00,8.698325604200000602e-03,-4.594746977090000302e-03,-3.700244007630000033e-03,1.000000000000000000e+00
5.850229569999999546e-01,-2.481408526709999673e+00,1.455007870829999952e-02,-9.466156646910000916e+00,-2.054506912829999823e-02,3.903634846210000085e-03,-5.504587665199999272e-03,1.000000000000000000e+00
5.900187460000000383e-01,-2.546377842480000098e+00,1.003008281650000048e-02,-9.452056809880000188e+00,1.051885820929999993e-02,-1.326873432839999895e-02,9.328983724120000834e-03,1.000000000000000000e+00
5.950160150000000092e-01,-2.474385788459999791e+00,-1.189834720670000269e-02,-9.502652440129999434e+00,-1.366061624140000111e-03,7.216644007710000530e-04,-1.205032342109999812e-03,1.000000000000000000e+00
6.000314799999999504e-01,-2.519461193980000235e+00,9.883324439679999629e-03,-9.462087790030000889e+00,6.652652751650000272e-03,1.255956664680000015e-02,8.431939408179999623e-03,1.000000000000000000e+00
6.050151639999999942e-01,-2.515642804740000127e+00,1.076088815890000050e-02,-9.504583700459999562e+00,-4.555863328279999812e-03,-5.623794160780000093e-03,8.136919699609999543e-03,1.000000000000000000e+00
6.100349240000000339e-01,-2.457767831140000414e+00,1.790370226840000065e-02,-9.493443297760000732e+00,9.041231125590000473e-03,2.120108902449999860e-02,-8.777085691690000857e-03,1.000000000000000000e+00
6.149593410000000482e-01,-2.534062550790000312e+00,1.464857521329999968e-02,-9.469864269249999467e+00,-5.857165902850000605e-03,5.405856296419999339e-03,-2.326270798219999721e-03,1.000000000000000000e+00
6.202048209999999617e-01,-2.491807463379999810e+00,3.235323864510000064e-02,-9.477716151799999267e+00,5.460315849630000343e-03,-9.906964376569999883e-03,-7.524309679870000434e-03,1.000000000000000000e+00
6.250236510000000134e-01,-2.557825703690000285e+00,-2.221025063069999913e-03,-9.492573529189998638e+00,-1.349067036060000099e-02,-3.883162047710000345e-03,1.392266247420000103e-02,1.000000000000000000e+00
6.300650570000000394e-01,-2.496202483469999844e+00,6.403562882390000273e-03,-9.475874907849998863e+00,-2.702109981329999747e-03,-4.293537698690000001e-03,-1.791678555309999740e-02,1.000000000000000000e+00
6.352001219999999782e-01,-2.529035954799999875e+00,7.525171340439999745e-02,-9.472959897180000866e+00,7.654194254430000087e-03,-7.011672947560000126e-03,-9.264518506819998528e-03,1.000000000000000000e+00
6.400267760000000195e-01,-2.527865449709999712e+00,-4.724644768560000430e-03,-9.503535068189998825e+00,-5.191108211869999677e-03,-9.289985522629998910e-03,1.140016363930000057e-03,1.000000000000000000e+00
6.450302679999999622e-01,-2.495548403479999955e+00,2.663355724049999707e-02,-9.451429617899998803e+00,-7.050981745119999124e-03,-3.773157950490000257e-04,-2.161077922210000168e-03,1.000000000000000000e+00
6.501593319999999787e-01,-2.527676941409999767e+00,5.025007392289999701e-03,-9.478419916150000901e+00,-9.479117579760000034e-07,-9.781258180740000363e-03,5.823100917039999817e-03,1.000000000000000000e+00
6.550372759999999461e-01,-2.486159520620000229e+00,4.628370474240000275e-03,-9.523780568360001197e+00,4.738667048510000063e-03,-3.477158490570000145e-03,-6.818474270399999849e-03,1.000000000000000000e+00
6.602026829999999569e-01,-2.521602882190000283e+00,6.100820501079999396e-03,-9.482635488019999670e+00,3.526080865410000185e-03,2.744272816930000067e-03,9.052977897229998877e-03,1.000000000000000000e+00
6.650283869999999986e-01,-2.519946347149999877e+00,-6.622948103979999120e-03,-9.460862047630000049e+00,3.879522904750000011e-03,5.522248335180000509e-03,-3.963040653619999843e-04,1.000000000000000000e+00
6.701914540000000198e-01,-2.507454237590000190e+00,1.731610707220000017e-02,-9.436485146739999053e+00,1.291840430350000082e-02,-7.547220215199999631e-03,-7.443312555550000639e-03,1.000000000000000000e+00
6.750087940000000231e-01,-2.562066994520000307e+00,6.350840606239999998e-03,-9.482962235760000524e+00,5.693907733080000137e-04,-1.276226248589999810e-03,-6.932595744729998753e-03,1.000000000000000000e+00
6.800190120000000338e-01,-2.492873923569999928e+00,1.806175264909999981e-02,-9.474412434079999557e+00,1.118714641779999970e-02,-1.136522460729999864e-02,-4.989793989810000635e-03,1.000000000000000000e+00
6.850210380000000265e-01,-2.488834000529999813e+00,3.772592753469999893e-03,-9.477775773030000295e+00,9.827320463959999391e-03,1.722024008629999964e-02,-7.056110538539999040e-03,1.000000000000000000e+00
6.900188739999999488e-01,-2.504337859130000066e+00,-8.079451643030000421e-03,-9.472913719950000200e+00,-9.105083532629999060e-03,8.820787072180001631e-03,-1.311184605579999952e-03,1.000000000000000000e+00
6.949465439999999994e-01,-2.515655956479999844e+00,1.017899433450000085e-02,-9.442010047640000181e+00,-3.388251410800000463e-03,1.429801061750000067e-02,-1.095184125010000009e-02,1.000000000000000000e+00
6.999476930000000374e-01,-2.529909815019999897e+00,4.969972715590000034e-03,-9.483295413230001358e+00,-9.672580286860001098e-03,4.605846945199999244e-03,-6.880844011900000382e-06,1.000000000000000000e+00
7.051796519999999902e-01,-2.477527593620000079e+00,-1.171161529579999895e-02,-9.486745845950000700e+00,-8.741431869570000235e-03,1.062358729539999991e-02,-1.591031625869999966e-02,1.000000000000000000e+00
7.100271929999999454e-01,-2.546012808559999563e+00,-4.455267513210000273e-03,-9.471399808260001052e+00,-9.399202652280001444e-03,-1.761388848540000000e-03,5.014452151950000297e-03,1.000000000000000000e+00
7.149689890000000547e-01,-2.512181850629999769e+00,-1.058650883960000032e-02,-9.487243858599999413e+00,2.064978703860000098e-03,1.376484706999999905e-02,1.533083152030000063e-02,1.000000000000000000e+00
7.201936759999999493e-01,-2.526094932909999979e+00,-5.321266946350000811e-03,-9.448873503670000673e+00,1.422751788050000132e-02,4.865858238189999657e-03,7.824968546629999799e-03,1.000000000000000000e+00
7.249829970000000179e-01,-2.520425655099999940e+00,-6.568233658499999898e-04,-9.455188093649999459e+00,-4.521165043120000358e-03,9.214576333759999169e-03,2.947684144599999837e-03,1.000000000000000000e+00
7.300685190000000269e-01,-2.521405313789999880e+00,-1.517184560209999984e-02,-9.474756132949998744e+00,-5.559911369350000246e-05,3.358964808289999909e-03,8.793712593620000781e-03,1.000000000000000000e+00
7.351690490000000189e-01,-2.469736793609999648e+00,-1.647468552869999978e-02,-9.483410564050000602e+00,4.899442661550000057e-03,-8.104663342240000026e-03,-6.237274967130000333e-03,1.000000000000000000e+00
7.400138600000000233e-01,-2.478996789390000011e+00,2.638935267150000277e-02,-9.472229829339999796e+00,4.407152533529999812e-03,9.840297512709999042e-03,-8.856599219139999271e-03,1.000000000000000000e+00
7.451647710000000036e-01,-2.492045071529999767e+00,6.328921035380000518e-03,-9.450813531819999724e+00,-2.476750873029999814e-02,-6.026627495879999935e-03,-1.298775896430000168e-03,1.000000000000000000e+00
7.501282989999999984e-01,-2.489883801840000022e+00,1.472074425870000154e-02,-9.448144020350000005e+00,7.301461417230000091e-03,1.083518378439999805e-02,-8.693158160900000013e-04,1.000000000000000000e+00
7.550560480000000352e-01,-2.527195879890000274e+00,3.545982864160000109e-02,-9.397539037759999658e+00,-3.661800408739999957e-03,7.619493640960000105e-03,7.234771735970000305e-03,1.000000000000000000e+00
7.600567849999999570e-01,-2.439097617459999867e+00,5.046940092069999301e-02,-9.430065927350000266e+00,1.965465256940000099e-03,1.955330837519999882e-03,-5.100342910739999805e-03,1.000000000000000000e+00
7.650217900000000348e-01,-2.459189096109999806e+00,2.528591005779999915e-02,-9.441481055329999705e+00,-7.674826309080000353e-03,6.040351465340000267e-03,7.836440578100000234e-03,1.000000000000000000e+00
7.702418509999999774e-01,-2.429328210860000059e+00,-3.211489299470000197e-02,-9.484652673060001149e+00,-8.011749014259999732e-03,-9.806126356120001622e-03,-4.135626833890000340e-03,1.000000000000000000e+00
7.750995379999999768e-01,-2.432174540200000123e+00,-2.057237120509999850e-02,-9.520841592300000045e+00,-6.967667024580000666e-03,-2.173424698409999814e-02,-9.120188653469999893e-03,1.000000000000000000e+00
7.801006750000000212e-01,-2.517198509750000035e+00,2.266659212159999673e-02,-9.485637592450000710e+00,-8.153281174600001194e-03,-9.976010769610001161e-03,1.317919883879999782e-02,1.000000000000000000e+00
7.851178519999999494e-01,-2.533469845589999991e+00,2.754328108009999540e-02,-9.507052136400000464e+00,-1.339309662580000053e-02,-9.928951039909999880e-04,4.695027600969999405e-04,1.000000000000000000e+00
7.901267539999999867e-01,-2.547732471959999856e+00,1.229169276420000005e-02,-9.470794828099998952e+00,-7.499852683399999345e-03,-9.276367723940000601e-03,9.599730372430000797e-03,1.000000000000000000e+00
7.952391030000000027e-01,-2.531966163029999883e+00,-1.155565983239999900e-02,-9.481102871630000095e+00,-5.635176785290000549e-04,8.924984373149999137e-03,6.210274063050000987e-03,1.000000000000000000e+00
8.000292340000000335e-01,-2.490338267609999878e+00,-2.294435075870000004e-03,-9.488675352710000510e+00,7.805333938449999370e-03,-1.886382699009999872e-02,8.503928780559999456e-03,1.000000000000000000e+00
8.050410340000000442e-01,-2.450578065759999813e+00,2.608465465340000389e-03,-9.470889520650001003e+00,-3.637976944449999774e-03,-3.074937732889999800e-03,-8.190035820010000897e-03,1.000000000000000000e+00
8.100835570000000097e-01,-2.557579912240000031e+00,3.009751729880000368e-03,-9.443323468330000026e+00,-2.739981864580000423e-04,-6.634680554270000127e-03,6.532917730509999778e-03,1.000000000000000000e+00
8.150420210000000054e-01,-2.489092651470000028e+00,8.599835955049999273e-03,-9.467252625449999570e+00,-2.485052216800000009e-03,-1.040414907039999975e-02,7.701256312430000348e-03,1.000000000000000000e+00
8.200415469999999818e-01,-2.452556526229999978e+00,2.499594838459999815e-02,-9.489373271839998125e+00,-1.536491792649999875e-02,-8.577872999009999999e-03,-5.048282910140000331e-04,1.000000000000000000e+00
8.252474029999999905e-01,-2.494702015779999726e+00,3.448083210819999356e-02,-9.500815872360000469e+00,-2.140483586119999639e-03,6.164035759870000256e-03,3.078353358429999909e-03,1.000000000000000000e+00
8.301355030000000523e-01,-2.561743461659999888e+00,1.576344226160000112e-02,-9.489383208719999629e+00,-9.726919233799998996e-03,-1.474945805970000016e-02,1.020488142970000026e-02,1.000000000000000000e+00
8.350923139999999467e-01,-2.524761053959999835e+00,4.895919728709999252e-02,-9.490441777860000983e+00,-4.281399305910000425e-03,-3.655892098320000141e-03,1.277735177429999841e-02,1.000000000000000000e+00
8.400839820000000069e-01,-2.496150461020000044e+00,3.337405360979999597e-02,-9.495722348610000196e+00,-1.925769727680000159e-03,-1.332114334220000111e-03,1.160733029249999895e-02,1.000000000000000000e+00
8.452289800000000186e-01,-2.523387719779999649e+00,8.703098254239999970e-03,-9.477610353339999349e+00,-8.119636215270000998e-03,-4.427006468179999800e-03,2.794780535619999923e-03,1.000000000000000000e+00
8.501285429999999588e-01,-2.533309686599999999e+00,4.319482964069999709e-02,-9.472294711269999112e+00,-6.678259931500000156e-03,7.251675240699998956e-03,6.043137051170000169e-03,1.000000000000000000e+00
8.550998520000000491e-01,-2.520945002800000001e+00,1.205323180769999995e-02,-9.490437686199999945e+00,1.369000319390000116e-02,-1.785301417109999914e-02,1.124637294560000035e-02,1.000000000000000000e+00
8.602464260000000085e-01,-2.496255967229999762e+00,-1.374176028340000008e-02,-9.452876309569999691e+00,2.302972716279999804e-04,1.611056271940000065e-03,-3.008865518499999770e-03,1.000000000000000000e+00
8.651029439999999848e-01,-2.543723820840000371e+00,-4.488467100729999319e-03,-9.486137943180001031e+00,-1.100549008700000067e-03,-1.910359016619999793e-03,3.306763945149999821e-03,1.000000000000000000e+00
8.702583830000000242e-01,-2.489740009459999737e+00,1.209221211120000035e-02,-9.487912551639999137e+00,-8.283122442659999335e-03,1.127215288579999988e-02,-9.836596436800000218e-03,1.000000000000000000e+00
8.752569369999999571e-01,-2.600552208000000309e+00,8.885397160229999147e-03,-9.463965858859999969e+00,4.036413971329999920e-03,-7.972819730639998720e-04,1.156472507859999943e-02,1.000000000000000000e+00
8.800843090000000091e-01,-2.509516430809999754e+00,2.292003259309999610e-02,-9.482595156010001247e+00,-7.500971201810000509e-03,3.233879338949999845e-03,-2.380452817309999976e-03,1.000000000000000000e+00
8.850718050000000447e-01,-2.528086398990000205e+00,1.257481941279999828e-02,-9.434098543870000242e+00,-9.343390353020000413e-03,-8.264465257529999415e-03,1.666873926299999951e-03,1.000000000000000000e+00
8.900786550000000519e-01,-2.572502756080000008e+00,2.741534385149999899e-03,-9.478792256600000243e+00,4.569435259330000237e-05,7.194578647610000649e-04,1.845728233459999895e-02,1.000000000000000000e+00
8.952322150000000534e-01,-2.478433894809999760e+00,2.528720924899999917e-02,-9.480472172509999851e+00,-1.195702329280000017e-02,-6.933045107869999051e-03,-7.042400538919999647e-03,1.000000000000000000e+00
9.000956650000000447e-01,-2.544574592450000061e+00,9.782330016930001343e-03,-9.478456156510000952e+00,6.991171394470000302e-04,-5.743904970589999194e-03,9.596503339709998998e-03,1.000000000000000000e+00
9.052353170000000393e-01,-2.523129068839999878e+00,2.035222108180000100e-02,-9.502959314129999058e+00,1.321725919839999812e-02,-1.300178468230000009e-02,4.372057504949999722e-03,1.000000000000000000e+00
9.102299169999999995e-01,-2.494313016460000032e+00,2.267580290790000008e-02,-9.494481993160000854e+00,-8.119383826850000777e-03,-2.990541979670000277e-03,2.788071753460000159e-03,1.000000000000000000e+00
9.150903009999999949e-01,-2.523470721890000323e+00,3.825177004819999699e-02,-9.489270980510001507e+00,-3.390326164659999975e-03,7.642114534970000789e-03,6.445938721300000646e-03,1.000000000000000000e+00
9.200880559999999875e-01,-2.480720836699999765e+00,3.582150841069999675e-02,-9.490759757770000249e+00,-7.908971048890000438e-03,-3.540609963239999599e-03,-6.224989891050000494e-03,1.000000000000000000e+00
9.252466750000000184e-01,-2.509364455120000059e+00,4.045618932390000061e-02,-9.508443298490000473e+00,8.890486322339999706e-03,1.540878415109999885e-02,-8.546417579049999519e-03,1.000000000000000000e+00
9.301462139999999712e-01,-2.531210960749999739e+00,1.570949614279999740e-02,-9.479764316499998955e+00,4.839734639969999787e-03,-2.219905843959999858e-03,2.545360708610000088e-03,1.000000000000000000e+00
9.352381060000000135e-01,-2.454533086999999725e+00,4.887085684999999818e-02,-9.483313533410001384e+00,5.863936617969999973e-03,-6.422026082869999875e-03,-9.328756481409999218e-03,1.000000000000000000e+00
9.400981750000000359e-01,-2.565461605399999900e+00,1.803429952829999766e-02,-9.492450195069999097e+00,7.431610021740000377e-03,-1.909987814720000288e-02,1.129822153600000025e-02,1.000000000000000000e+00
9.452327659999999465e-01,-2.507498076729999692e+00,1.349022749950000086e-02,-9.475191017230001123e+00,9.812444448469999012e-03,-7.794667035339999722e-04,-6.793164648119999482e-03,1.000000000000000000e+00
9.501367389999999524e-01,-2.549807232410000069e+00,-1.054609919740000061e-03,-9.497215217519999086e+00,4.538399167360000243e-03,-1.836509443819999907e-03,8.127636276189998538e-03,1.000000000000000000e+00
9.552509649999999519e-01,-2.473880469290000050e+00,1.679563371189999807e-02,-9.487244443119999815e+00,1.344106998290000091e-02,-5.497203208510000050e-03,-4.522527102380000455e-03,1.000000000000000000e+00
9.602395820000000359e-01,-2.492157884260000067e+00,-1.751270735659999842e-02,-9.464421201420000429e+00,-5.808121059090000544e-03,8.392442949119999565e-03,-6.273263599719999632e-03,1.000000000000000000e+00
9.650808170000000352e-01,-2.534313310679999987e+00,-2.350059297699999897e-02,-9.478061604229999659e+00,5.718780215829999403e-03,-1.143503095949999909e-02,2.419969765469999565e-03,1.000000000000000000e+00
9.702520730000000482e-01,-2.492620825589999978e+00,2.306100968310000054e-02,-9.460351175499999599e+00,1.778652891520000109e-03,1.503940112889999917e-02,-1.278409082440000108e-02,1.000000000000000000e+00
9.750663899999999495e-01,-2.493165307730000002e+00,3.719422381930000132e-02,-9.462630226349999063e+00,-5.941533949229999001e-03,-9.740377776319999320e-03,-1.051792409270000186e-02,1.000000000000000000e+00
9.800828780000000462e-01,-2.583098092109999744e+00,4.573055866339999914e-02,-9.461089426650000078e+00,5.463464767669999741e-04,-1.049087941649999925e-02,9.612119756639999485e-03,1.000000000000000000e+00
9.851147810000000504e-01,-2.486091423820000035e+00,-7.920808178080001585e-04,-9.471817741409999769e+00,-6.248810677790000057e-05,-8.815177716310000459e-04,-1.401558239010000130e-02,1.000000000000000000e+00
9.901132019999999700e-01,-2.538953537700000318e+00,1.602932094800000110e-02,-9.442788630800000860e+00,-1.499369461089999911e-02,1.411245018239999822e-02,1.078868517650000093e-03,1.000000000000000000e+00
9.952607759999999582e-01,-2.494697047350000307e+00,-3.507815753889999971e-03,-9.498877013250000445e+00,-2.015089383350000037e-03,7.835946045819998720e-03,-3.580806311220000038e-03,1.000000000000000000e+00
1.000118437000000027e+00,-2.523227560779999656e+00,1.337902106829999896e-02,-9.486065462470000043e+00,1.118040364239999973e-02,-4.810777958479999818e-03,-1.122844219210000077e-02,1.000000000000000000e+00
1.005218268999999998e+00,-2.474712828459999958e+00,2.153687798890000296e-02,-9.480717087180000391e+00,1.265625096859999965e-02,2.172391489149999924e-02,-1.302994973960000004e-02,1.000000000000000000e+00
1.010262897000000049e+00,-2.562307817540000254e+00,2.643642951650000336e-02,-9.484129525969999364e+00,-2.828478347510000532e-03,7.631795015189999460e-04,5.458612926300000084e-03,1.000000000000000000e+00
1.015206252999999892e+00,-2.467022858480000025e+00,4.053755203099999871e-02,-9.491109886380000304e+00,7.391592022030000000e-03,1.009798888120000057e-02,-8.666260167960000357e-03,1.000000000000000000e+00
1.020245837000000044e+00,-2.543164725659999625e+00,-3.473420864760000219e-03,-9.496386949999999771e+00,5.658260197380000391e-04,8.652656339110000386e-03,9.560267440969999128e-03,1.000000000000000000e+00
1.025244392999999921e+00,-2.506836690210000107e+00,3.238650844370000170e-02,-9.480805934510000199e+00,-8.830706588920000238e-03,8.508957922460000031e-03,3.480450017380000167e-03,1.000000000000000000e+00
1.030119519000000095e+00,-2.507609720409999632e+00,2.399584513109999720e-02,-9.486810727880000016e+00,1.937568420540000148e-03,4.097873810679999833e-03,-4.528479184959999975e-04,1.000000000000000000e+00
1.035083866999999991e+00,-2.499749070040000021e+00,2.365192478090000217e-02,-9.520628241810001668e+00,-3.361661219970000331e-05,-7.237311918290000208e-03,-1.124300644730000026e-03,1.000000000000000000e+00
1.040081562999999987e+00,-2.534356857559999732e+00,2.161146846189999915e-02,-9.492406940449999553e+00,-3.648651763800000395e-03,4.185318481179999862e-03,2.451757667590000363e-03,1.000000000000000000e+00
1.045224973000000057e+00,-2.545426240849999910e+00,-1.173334877860000153e-02,-9.499169274189998902e+00,-6.031416356559999789e-03,-1.128148566929999992e-02,8.948543108999999773e-03,1.000000000000000000e+00
1.050136431999999953e+00,-2.488738723460000024e+00,8.587304696220000519e-03,-9.488519285360000666e+00,6.035674363370000309e-03,1.101819332690000090e-03,-1.449560280890000059e-02,1.000000000000000000e+00
1.055096403999999932e+00,-2.537670804409999814e+00,1.403136233859999865e-03,-9.486602638089998152e+00,4.079745616759999916e-03,2.185815945270000102e-03,-3.897772170600000141e-03,1.000000000000000000e+00
1.060121686000000008e+00,-2.522384680220000064e+00,7.195000954449999944e-03,-9.495625902500000493e+00,2.695247344670000100e-02,1.102104689929999867e-02,9.925419464709999209e-03,1.000000000000000000e+00
1.065081299999999898e+00,-2.508370183390000285e+00,2.628009845210000240e-03,-9.482998476110001462e+00,4.452671855689999819e-03,-5.324744619429999659e-03,4.989254288379999826e-03,1.000000000000000000e+00
1.070102907999999964e+00,-2.480776074019999999e+00,3.472044041719999502e-02,-9.480050147700000096e+00,6.220999173820000554e-03,-7.510743569579999765e-03,-7.037531584500000131e-03,1.000000000000000000e+00
1.075071764000000041e+00,-2.557603877640000078e+00,4.259497775109999840e-04,-9.479407758149999808e+00,3.394550411030000051e-03,8.370270021259999804e-03,-7.625310681760000611e-03,1.000000000000000000e+00
1.080235075000000045e+00,-2.566071846249999844e+00,-2.261616340879999895e-02,-9.518276710249999439e+00,7.446286734190000339e-03,-1.820000819859999772e-03,1.111113931979999803e-02,1.000000000000000000e+00
1.085233579000000059e+00,-2.493343294649999820e+00,-2.163896154029999741e-02,-9.529927985069999608e+00,-2.346105687319999938e-02,8.130110800269999861e-04,8.618131279950001777e-03,1.000000000000000000e+00
1.090111453000000008e+00,-2.439267421069999831e+00,2.005754441759999979e-02,-9.519686577039999875e+00,4.586456343529999626e-03,-9.275327436629999395e-03,-1.803721114990000304e-02,1.000000000000000000e+00
1.095241592999999902e+00,-2.550798873799999811e+00,6.090293398850000345e-02,-9.481234389049999933e+00,-6.042922846970000261e-03,7.580602541569999870e-04,2.191202482209999962e-03,1.000000000000000000e+00
1.100064356999999937e+00,-2.522626380020000170e+00,7.981417161489999523e-02,-9.498993333099999603e+00,1.274725887920000102e-03,-8.839650079610000127e-03,3.306283382699999867e-03,1.000000000000000000e+00
1.105207121000000070e+00,-2.483649875890000303e+00,9.277188026499999518e-02,-9.514529340410000202e+00,2.686904743309999864e-03,-1.074796263129999818e-02,-1.658581942320000099e-02,1.000000000000000000e+00
1.110153641999999996e+00,-2.497015261160000055e+00,1.447825558109999966e-01,-9.538536823460001202e+00,-3.336528781799999802e-03,-2.047992683949999976e-02,-1.279707904910000124e-02,1.000000000000000000e+00
1.115239499000000079e+00,-2.495197982599999698e+00,2.617736302180000141e-02,-9.515072361250000554e+00,-1.478152442720000181e-02,5.039332900200000145e-04,-2.978777512910000050e-02,1.000000000000000000e+00
1.120243260999999935e+00,-2.514899292900000027e+00,-7.055795696449999876e-02,-9.426971468470000559e+00,-2.806617692109999659e-02,1.768438145519999911e-03,-4.228186234830000334e-02,1.000000000000000000e+00
1.125052828000000060e+00,-2.557374452789999975e+00,-9.244052941869999873e-02,-9.472760575219998813e+00,-6.105793174359999513e-03,-1.004346925770000128e-02,-2.238850854340000002e-02,1.000000000000000000e+00
1.130303593000000051e+00,-2.460869012020000302e+00,1.646546218429999903e-02,-9.516499179180000212e+00,-3.038977971300000063e-03,-2.294714096929999832e-03,-3.073199093340000035e-02,1.000000000000000000e+00
1.135025511000000042e+00,-2.482972999540000281e+00,2.812947890359999981e-02,-9.536163664589999200e+00,-7.829366950319999706e-04,1.196619030090000091e-02,-1.919810846449999941e-02,1.000000000000000000e+00
1.140040350000000036e+00,-2.553390643849999808e+00,-6.979957634519999565e-02,-9.492660038430001279e+00,-7.539203390479999427e-03,-7.833228446540000528e-03,-3.167784959080000018e-02,1.000000000000000000e+00
1.145223960999999901e+00,-2.541646137789999926e+00,-1.991877983430000165e-02,-9.491355385569999470e+00,-9.332231245930000182e-03,-8.479764685030000484e-03,-3.753037005659999592e-02,1.000000000000000000e+00
1.150139478999999909e+00,-2.498845983719999886e+00,-1.514905495670000038e-03,-9.406973221050000333e+00,-9.704288095240000064e-03,3.885052166880000220e-03,-4.114182665939999928e-02,1.000000000000000000e+00
1.155212268999999958e+00,-2.586587103270000298e+00,-7.547800100760000686e-02,-9.457144488409999994e+00,-1.571301557120000081e-02,-2.314332174139999837e-03,-3.120257705449999697e-02,1.000000000000000000e+00
1.160204153000000016e+00,-2.561906543270000114e+00,-1.173133240640000102e-01,-9.460641098360000001e+00,-1.468625105919999993e-02,5.045030266050000000e-04,-9.188498370350000471e-03,1.000000000000000000e+00
1.165059008999999923e+00,-2.530829267959999740e+00,-1.482645435749999907e-01,-9.475107430599999603e+00,7.078459020699999961e-06,6.143292412159999556e-03,-1.732402294870000192e-02,1.000000000000000000e+00
1.170086573000000074e+00,-2.466541504699999887e+00,-1.045070157169999958e-01,-9.472872218899999197e+00,-1.104320748710000029e-03,-3.999195992949999660e-03,-1.944133080540000336e-02,1.000000000000000000e+00
1.175074361000000067e+00,-2.493306469769999811e+00,-2.466470028630000227e-02,-9.475631746739999528e+00,-8.883571252229998869e-03,1.120005734260000113e-03,-3.226804733279999698e-02,1.000000000000000000e+00
1.180230142999999954e+00,-2.509185299159999882e+00,-4.517001587090000575e-02,-9.484342876459999516e+00,-9.987677447499999223e-03,2.530036866659999759e-02,-7.289220578970000315e-03,1.000000000000000000e+00
1.185114328000000050e+00,-2.506617786760000133e+00,2.786190944209999965e-02,-9.457827794499999996e+00,-1.209342200310000066e-02,1.093489117920000159e-03,-1.836525090040000072e-02,1.000000000000000000e+00
1.190247926000000067e+00,-2.558319916949999939e+00,1.947928330540000391e-02,-9.464885311799999812e+00,-1.022864598779999953e-02,-4.901106469329999903e-03,-3.770384006199999603e-03,1.000000000000000000e+00
1.195212109999999939e+00,-2.445825610540000028e+00,-2.950006628719999829e-02,-9.462816688829999379e+00,-1.710684504359999804e-03,-8.502921089529999824e-03,-1.398882549260000059e-02,1.000000000000000000e+00
1.200067191999999894e+00,-2.544810154769999944e+00,-2.342260725379999645e-02,-9.477468314519999382e+00,-1.591207645829999934e-02,-2.900329884139999596e-03,-1.031293161210000003e-02,1.000000000000000000e+00
1.205181381000000052e+00,-2.484022216329999644e+00,-5.283441301899999970e-02,-9.556279985419999790e+00,-1.506194844839999977e-02,-3.150793956590000177e-03,-1.175175048409999971e-02,1.000000000000000000e+00
1.210145910999999908e+00,-2.460023208850000032e+00,-2.853427857859999750e-02,-9.485698382719998989e+00,-2.517791464920000194e-02,-7.411345839499999637e-03,-1.109543442730000044e-02,1.000000000000000000e+00
1.215083107000000107e+00,-2.523316700370000110e+00,-1.093674522269999921e-01,-9.498135254970000219e+00,1.651100628079999952e-02,-9.970172308390000404e-03,-8.140441495930000838e-04,1.000000000000000000e+00
1.220088379999999972e+00,-2.461177055059999841e+00,-1.258966444219999925e-01,-9.468111288110000245e+00,-9.159709326920000005e-03,-3.077409695830000090e-03,-2.786989323790000153e-03,1.000000000000000000e+00
1.225086139999999935e+00,-2.501202191460000002e+00,-1.248666346539999972e-01,-9.490504321699999579e+00,1.459898613390000002e-02,5.906420759860000341e-03,1.074568368490000023e-02,1.000000000000000000e+00
1.230220011999999974e+00,-2.433751141859999745e+00,-7.621295508539999153e-02,-9.503964691780000251e+00,-1.115290168670000047e-02,-7.260743528599999767e-03,-1.034214720129999869e-02,1.000000000000000000e+00
1.235196030000000000e+00,-2.501319680359999964e+00,-2.272515619169999945e-02,-9.509076335699999660e+00,-5.918019451199999295e-03,-1.709797419609999924e-02,2.234210493039999815e-03,1.000000000000000000e+00
1.240239086000000102e+00,-2.486949794220000065e+00,4.068885643549999959e-02,-9.472129876100000345e+00,-1.400515530260000065e-02,-8.032797835769999589e-03,1.264484599230000002e-04,1.000000000000000000e+00
1.245135169000000097e+00,-2.491196638009999909e+00,-3.639524632819999411e-02,-9.454244090799999611e+00,-2.650879882280000183e-02,-7.550730369989999864e-03,-1.079532597210000090e-02,1.000000000000000000e+00
1.250077147000000055e+00,-2.547786832499999932e+00,-6.995901382380000089e-02,-9.488300674179999561e+00,-2.572924457490000094e-02,-6.562252063300000847e-03,1.931002130729999981e-03,1.000000000000000000e+00
1.255246569000000090e+00,-2.453136079680000137e+00,-1.142956658770000050e-01,-9.496055526090000143e+00,-1.049537770450000018e-02,-4.430459346619999503e-03,3.235121490429999653e-03,1.000000000000000000e+00
1.260062436999999980e+00,-2.443768678010000084e+00,-7.358442864620000357e-02,-9.468651970850000765e+00,-3.706358000640000427e-02,5.849213339390000287e-03,-4.744921345260000312e-03,1.000000000000000000e+00
1.265025668000000048e+00,-2.458522741159999914e+00,-5.793286866909999611e-02,-9.438352109660000266e+00,-2.429400943220000331e-02,-4.824976436789999920e-03,5.341676995159999608e-03,1.000000000000000000e+00
1.270024550000000030e+00,-2.452917468499999920e+00,-3.668074873869999614e-02,-9.470901795610000562e+00,-3.679147735240000106e-02,-9.978102520110001053e-03,-4.990965127939999725e-03,1.000000000000000000e+00
1.275024428999999904e+00,-2.474591540170000048e+00,1.691938567250000219e-02,-9.459559732860000736e+00,-4.859339073300000117e-02,-4.705555737019999872e-03,-7.667518220840000270e-04,1.000000000000000000e+00
1.280022765000000007e+00,-2.414241847009999553e+00,4.191486027469999709e-03,-9.541590365819999420e+00,-4.093861952419999839e-02,-3.734762780369999934e-03,-9.841692633929999615e-03,1.000000000000000000e+00
1.285041649999999924e+00,-2.460883625070000136e+00,-1.330343051489999914e-02,-9.502056227809999811e+00,-1.956221647560000068e-02,-6.263290531930000397e-03,4.166020080449999406e-03,1.000000000000000000e+00
1.290052492999999911e+00,-2.451410717199999922e+00,9.700859995269999272e-03,-9.469047107650000683e+00,-2.631952427329999761e-02,-8.385915309189998987e-03,-3.501176135610000167e-03,1.000000000000000000e+00
1.294996510000000045e+00,-2.491395083190000026e+00,-2.939194343739999840e-02,-9.459766069089999618e+00,-3.702036291359999537e-02,-1.583346724509999970e-02,-2.111671958119999866e-03,1.000000000000000000e+00
1.300024904000000037e+00,-2.499508247020000073e+00,-3.999621169590000108e-02,-9.446667518060001711e+00,-3.578600659970000014e-02,-1.624141819779999912e-02,5.176067352289999597e-03,1.000000000000000000e+00
1.305101792999999955e+00,-2.511458212530000011e+00,1.639606733460000033e-03,-9.460289216179999627e+00,-1.845869794490000160e-02,-1.753331720829999843e-02,1.188169931990000136e-03,1.000000000000000000e+00
1.310130803999999927e+00,-2.516874392359999657e+00,-5.777652276340000670e-02,-9.450534714879999854e+00,-2.744354493920000276e-02,1.224604714660000072e-02,3.753585508090000449e-03,1.000000000000000000e+00
1.315061422999999952e+00,-2.541748721379999854e+00,2.540903411390000102e-02,-9.463944816079999711e+00,-3.435401618479999586e-02,-2.197071444240000239e-04,1.356835570189999889e-02,1.000000000000000000e+00
1.320036455999999969e+00,-2.602511817640000391e+00,1.011761359949999994e-01,-9.400192767130000959e+00,-4.252965375780000390e-02,-1.516204327340000060e-02,1.481841038910000109e-02,1.000000000000000000e+00
1.325080996000000066e+00,-2.587439628449999862e+00,1.332800418049999991e-01,-9.394929147519999191e+00,-3.738950937990000167e-02,6.615872494880000766e-03,1.658168993889999956e-02,1.000000000000000000e+00
1.330078392000000109e+00,-2.441758653359999975e+00,-2.005963134340000079e-02,-9.464569085449999974e+00,-5.167315155269999738e-02,-1.215496286749999898e-02,1.286630239339999794e-02,1.000000000000000000e+00
1.335075972999999916e+00,-2.471891633559999857e+00,-3.074518011070000167e-02,-9.486632448699999998e+00,-2.830279245970000052e-02,-2.483051037420000266e-03,-5.500861443580000107e-03,1.000000000000000000e+00
1.340086724999999923e+00,-2.514532797670000264e+00,-1.266108548229999756e-02,-9.448141097749999773e+00,-2.101315744220000337e-02,5.383789539340000168e-05,1.088766474280000035e-02,1.000000000000000000e+00
1.345227291999999908e+00,-2.489606153950000067e+00,8.693326463880000909e-02,-9.493604625799999752e+00,-2.758494019510000089e-02,7.244552485640000025e-03,4.340377636250000032e-03,1.000000000000000000e+00
1.350084668000000043e+00,-2.534552380129999616e+00,1.371339224879999930e-01,-9.468695225469998533e+00,-3.739965707060000089e-02,-3.622898831960000288e-03,1.689022779460000109e-02,1.000000000000000000e+00
1.355075199999999924e+00,-2.506901864400000068e+00,3.606948497250000302e-02,-9.475501982879999119e+00,-2.634572237729999530e-02,-6.612452212720000035e-03,1.078491797670000146e-03,1.000000000000000000e+00
1.360203725999999946e+00,-2.530353467140000312e+00,-7.967625184839999264e-02,-9.508712178560001504e+00,-3.405045717949999745e-02,-3.931694198399999889e-03,8.425363339479999616e-03,1.000000000000000000e+00
1.365032191000000061e+00,-2.495371001079999651e+00,-2.609107526110000103e-02,-9.485226089039999309e+00,-1.098320633169999963e-02,-2.022150438279999869e-03,1.854306645690000088e-02,1.000000000000000000e+00
1.370221278999999903e+00,-2.476907123630000207e+00,4.288556276209999629e-02,-9.490247132069999481e+00,-2.137099392709999879e-02,-1.160188391800000100e-02,1.492768432950000029e-02,1.000000000000000000e+00
1.375061577999999951e+00,-2.535443776009999706e+00,1.286458700650000009e-01,-9.494384962530000749e+00,-3.301453962920000013e-02,-1.437806757170000116e-03,1.928540319199999881e-02,1.000000000000000000e+00
1.380062074000000027e+00,-2.470063541350000058e+00,1.902995584890000147e-01,-9.499659103539999094e+00,-1.355029735710000169e-02,-1.545382197949999974e-02,1.216051354999999994e-02,1.000000000000000000e+00
1.385039257999999940e+00,-2.428612463799999954e+00,9.746291502489999592e-02,-9.495012739039999872e+00,-7.212983444329999945e-03,-7.518493104729999203e-03,-2.217585220929999771e-03,1.000000000000000000e+00
1.390008825000000003e+00,-2.417040391690000511e+00,3.320796262819999956e-02,-9.466898989710001544e+00,2.931572031229999833e-03,-1.124280784280000042e-02,1.544937212020000041e-02,1.000000000000000000e+00
1.394951202999999973e+00,-2.408809008309999555e+00,-2.690507907469999807e-02,-9.551589197260000219e+00,-1.676078699529999841e-02,-2.649302594360000013e-02,1.549885887650000009e-02,1.000000000000000000e+00
1.400025209999999909e+00,-2.350552634170000044e+00,1.506762489250000094e-02,-9.493560786659999806e+00,-1.244200021029999957e-02,-1.089233718809999932e-02,8.839765563610000113e-03,1.000000000000000000e+00
1.405010888999999930e+00,-2.547440503279999824e+00,8.152004280939999584e-03,-9.536403318570000565e+00,-4.462148994209999900e-03,-2.236009202899999840e-02,1.826548762620000196e-02,1.000000000000000000e+00
1.410125365000000075e+00,-2.630773451000000041e+00,4.632712261730000114e-02,-9.429808737720000167e+00,-3.267363831399999752e-02,-2.839315868909999749e-02,1.635494269430000022e-02,1.000000000000000000e+00
1.415021319000000055e+00,-2.481151337070000018e+00,1.150146186680000154e-01,-9.401371747789999844e+00,-1.837285980580000144e-02,-2.980667725209999730e-02,1.623770594599999867e-02,1.000000000000000000e+00
1.420023958999999891e+00,-2.567465638699999886e+00,2.347921591550000131e-01,-9.477346733960001046e+00,-2.146362699570000115e-02,-2.723849378529999768e-02,1.769361272449999911e-02,1.000000000000000000e+00
1.424991769000000019e+00,-2.620662099090000030e+00,3.344077495689999902e-01,-9.402163190419999594e+00,-1.494254684079999876e-03,-3.901015967130000428e-02,1.242587435989999864e-02,1.000000000000000000e+00
1.430005740999999997e+00,-2.589605282049999957e+00,3.459835114739999717e-01,-9.428070954139998960e+00,-1.970952376720000020e-03,-2.046024054290000033e-02,4.797238856549999875e-03,1.000000000000000000e+00
1.435089009999999998e+00,-2.612620831460000126e+00,3.579283989529999932e-01,-9.422198847239998898e+00,1.495276112110000173e-02,-4.046331346040000360e-02,9.012702852489999639e-03,1.000000000000000000e+00
1.440212228000000039e+00,-2.588099261400000017e+00,3.102153384030000294e-01,-9.442954635019999543e+00,3.248365828769999696e-03,-3.236790001390000421e-02,-5.797529593109999532e-03,1.000000000000000000e+00
1.445200803999999950e+00,-2.571707806309999622e+00,1.831814883779999958e-01,-9.395696624760001114e+00,2.219112962479999687e-02,-3.643706440930000179e-02,-4.934093449260000368e-03,1.000000000000000000e+00
1.450098480999999939e+00,-2.545470079990000301e+00,-8.712115189369998292e-02,-9.417264313440000478e+00,1.228893268850000074e-02,-1.657701656219999833e-02,-2.623621141540000232e-03,1.000000000000000000e+00
1.455096745999999941e+00,-2.558239837449999943e+00,-3.919005919860000242e-01,-9.447376543110001634e+00,3.284125030039999893e-02,-3.866577986629999870e-03,7.917772978540000769e-03,1.000000000000000000e+00
1.460170513000000003e+00,-2.466862991740000233e+00,-3.850570097009999859e-01,-9.457454869539999365e+00,-1.377683656760000052e-04,-2.007320523259999850e-02,1.195009099320000056e-03,1.000000000000000000e+00
1.465069764000000108e+00,-2.501189916499999999e+00,-2.900331675250000241e-01,-9.475833406789998747e+00,1.997869927440000005e-03,-1.343361381439999933e-02,8.459381759169999626e-03,1.000000000000000000e+00
1.470216868999999926e+00,-2.429527386690000235e+00,-2.292317120160000110e-01,-9.449562070460000740e+00,-2.302907221020000089e-02,-2.100792899729999816e-02,-8.072981610889999951e-03,1.000000000000000000e+00
1.475234826000000110e+00,-2.544162504520000034e+00,-1.957985394970000181e-01,-9.458843109020000028e+00,-3.879996761680000461e-02,-2.159607596700000021e-02,4.213965497909999761e-03,1.000000000000000000e+00
1.480224323999999925e+00,-2.528254449029999851e+00,-1.387128805079999860e-01,-9.470441776880001328e+00,-1.502416469160000080e-02,-8.376156911249999990e-03,-4.582413006570000211e-03,1.000000000000000000e+00
1.485073918000000104e+00,-2.574951902800000081e+00,1.279873696240000081e-01,-9.455794242849998810e+00,-2.033825404940000151e-02,-1.684482581910000040e-02,-8.093927986919999609e-03,1.000000000000000000e+00
1.490024946999999989e+00,-2.553253573470000148e+00,3.073184113849999899e-01,-9.478077970850000256e+00,-2.158063836399999949e-02,-1.201093476269999953e-02,-1.024414971470000157e-02,1.000000000000000000e+00
1.495033325999999940e+00,-2.541883453670000126e+00,3.420990347239999951e-01,-9.443822650019999543e+00,-8.930922485889999235e-03,-1.174306590110000062e-02,-1.663679443300000033e-02,1.000000000000000000e+00
1.501280549000000075e+00,-2.534657009550000062e+00,3.761712540649999603e-01,-9.492955806510000372e+00,1.908432506020000044e-02,-2.642856165769999835e-02,-2.711111120879999836e-02,1.000000000000000000e+00
1.505111681999999895e+00,-2.551290748970000077e+00,3.686575174339999927e-01,-9.393116545139999829e+00,1.761281862850000088e-02,-1.076798699800000057e-02,-2.170711383220000346e-02,1.000000000000000000e+00
1.509973106999999981e+00,-2.515771984080000134e+00,1.356162205339999927e-01,-9.383013084269999027e+00,3.066344186659999624e-02,-3.905463730920000383e-03,-3.570220991969999536e-02,1.000000000000000000e+00
1.515210911000000049e+00,-2.412765636979999684e+00,9.011021417449999182e-02,-9.506635372289998998e+00,5.178223177789999937e-02,-2.042835019529999976e-02,-4.176145792009999802e-02,1.000000000000000000e+00
1.520229767000000010e+00,-2.320889317319999812e+00,1.709851834209999699e-01,-9.611024552050000835e+00,5.506372824309999775e-02,-2.209782227870000018e-02,-5.265944451090000256e-02,1.000000000000000000e+00
1.525074913000000087e+00,-2.320418192670000046e+00,1.629005880999999933e-01,-9.580157704619999492e+00,6.499280035500000496e-02,-2.896811999379999766e-02,-6.015783175830000107e-02,1.000000000000000000e+00
1.530117578000000034e+00,-2.360661063469999821e+00,2.104590243439999897e-01,-9.604036008330000485e+00,6.776431947949999868e-02,-3.226051479579999937e-02,-7.361433655019999911e-02,1.000000000000000000e+00
1.535087196000000098e+00,-2.468830200159999766e+00,2.248978475310000058e-01,-9.470132564800000097e+00,6.484590470789999839e-02,-4.423207044599999915e-02,-5.968195199969999337e-02,1.000000000000000000e+00
1.540241825999999925e+00,-2.450172115310000009e+00,1.033385107939999992e-01,-9.502285360389999269e+00,7.894767820839999894e-02,-4.038394987580000428e-02,-6.180036440489999894e-02,1.000000000000000000e+00
1.545234250000000031e+00,-2.472773969349999934e+00,9.951548190680001293e-02,-9.407112337260000956e+00,8.044659346339999573e-02,-2.447792887690000349e-02,-6.814768165350000573e-02,1.000000000000000000e+00
1.550122414000000060e+00,-2.495389413519999877e+00,2.840423478790000122e-01,-9.518725623060001695e+00,9.884595125910000668e-02,-2.772408165040000233e-02,-5.368414893749999528e-02,1.000000000000000000e+00
1.555089114999999911e+00,-2.367041850550000159e+00,7.188187164520000172e-01,-9.417783953400000740e+00,9.788376837970000355e-02,-2.851210907099999831e-02,-6.798890233040000286e-02,1.000000000000000000e+00
1.560070695000000063e+00,-2.327715656210000095e+00,9.072310181550000685e-01,-9.472408693039998440e+00,1.302093565459999935e-01,-3.482189029459999835e-02,-6.793522834779999742e-02,1.000000000000000000e+00
1.565236819999999973e+00,-2.322867047129999918e+00,5.852288689119999887e-01,-9.563574234089999848e+00,1.364160627129999970e-01,-5.794572085139999829e-02,-6.277170032260000199e-02,1.000000000000000000e+00
1.570133623000000034e+00,-2.329113101909999983e+00,2.649378572690000433e-02,-9.410148928479999952e+00,1.812714785339999968e-01,-5.164255946870000002e-02,-8.015408366920000194e-02,1.000000000000000000e+00
1.575239213999999999e+00,-2.562454240280000128e+00,-2.258871508289999885e-01,-9.503661909439998112e+00,1.780948936939999727e-01,-7.046560943130000809e-02,-6.375654041770000002e-02,1.000000000000000000e+00
1.580233621999999949e+00,-2.596048174579999923e+00,-1.390194622400000024e-01,-9.390174061950000706e+00,1.739115118980000263e-01,-6.592711061240000281e-02,-6.473507732149999527e-02,1.000000000000000000e+00
1.585086755999999930e+00,-2.632825122839999921e+00,1.752862050840000019e-01,-9.389018462170000134e+00,1.440137028690000043e-01,-6.106048822400000214e-02,-8.583203703169998977e-02,1.000000000000000000e+00
1.590075077000000059e+00,-2.732590442190000246e+00,5.440638052330000196e-01,-9.406803125179999725e+00,1.135079115630000107e-01,-7.874439656729999293e-02,-8.354663848880000687e-02,1.000000000000000000e+00
1.595241300000000084e+00,-2.711725056549999735e+00,4.876533877579999898e-01,-9.335467489250000028e+00,1.202263459559999997e-01,-5.470630526539999733e-02,-1.014008522030000053e-01,1.000000000000000000e+00
1.600075590999999964e+00,-2.768871715880000028e+00,1.958804273610000035e-01,-9.251344852449999934e+00,1.582542061810000011e-01,-5.859266221520000040e-02,-1.058281958099999975e-01,1.000000000000000000e+00
1.605080593999999916e+00,-2.912101206160000011e+00,-5.319693075500000340e-02,-9.200781955420000102e+00,1.632233262059999968e-01,-3.892268985510000112e-02,-7.643965631719999709e-02,1.000000000000000000e+00
1.610119373000000076e+00,-2.794246395629999657e+00,-2.310367338780000002e-01,-9.240980694819999286e+00,1.669793874030000014e-01,-2.146966941649999794e-02,-7.022329419849999976e-02,1.000000000000000000e+00
1.615241906000000061e+00,-2.676135856770000210e+00,-5.076110839640000094e-01,-9.413319375209999507e+00,1.718959510330000107e-01,-4.825131595130000006e-02,-7.978065311910000068e-02,1.000000000000000000e+00
1.620081018000000039e+00,-2.463717387189999997e+00,-4.784896919630000078e-01,-9.537573531389998749e+00,1.496402770280000072e-01,-2.672742120920000228e-02,-9.384484589099999219e-02,1.000000000000000000e+00
1.625229126000000024e+00,-2.363597993710000011e+00,-4.082854712060000058e-01,-9.627141574110000377e+00,1.338759064670000110e-01,-3.145427256819999934e-02,-1.035914346579999978e-01,1.000000000000000000e+00
1.630234213000000043e+00,-2.501765086039999808e+00,-2.887469271070000065e-01,-9.605620647180000304e+00,1.302523165939999950e-01,-1.914687640959999645e-02,-1.004396304490000058e-01,1.000000000000000000e+00
1.635067360000000081e+00,-2.637453659420000207e+00,-2.255935199109999900e-01,-9.510342994640000214e+00,9.146115183830000328e-02,-4.360621422529999819e-02,-9.578164666889998902e-02,1.000000000000000000e+00
1.640063553999999924e+00,-2.671697289809999543e+00,-1.262014817210000139e-01,-9.453574228709999971e+00,9.319475293160001117e-02,-3.661376237869999606e-02,-9.838541597130000260e-02,1.000000000000000000e+00
1.645232830999999951e+00,-2.667980899629999847e+00,1.864654054190000021e-01,-9.478115380249999333e+00,1.002211272719999990e-01,-2.490828372540000377e-02,-1.094833239909999978e-01,1.000000000000000000e+00
1.650244889999999964e+00,-2.549692373859999694e+00,2.450759815540000108e-01,-9.392453112789999281e+00,1.299946904179999918e-01,-3.292718902230000466e-02,-1.217171549799999919e-01,1.000000000000000000e+00
1.655030355999999925e+00,-2.718160350290000249e+00,1.518119795239999958e-01,-9.223630331569999896e+00,1.750271320339999992e-01,-3.167859092349999822e-02,-1.096090078350000080e-01,1.000000000000000000e+00
1.660040210000000016e+00,-2.631919990690000155e+00,-8.837236894770001197e-03,-8.940876635260000427e+00,1.623412668700000006e-01,-4.698666185139999812e-02,-1.216438189149999932e-01,1.000000000000000000e+00
1.665055898000000090e+00,-2.644672212500000175e+00,3.027951252740000015e-03,-9.068353845139998981e+00,1.812568306920000205e-01,-3.600509464740000304e-02,-1.107988581060000005e-01,1.000000000000000000e+00
1.670128663999999930e+00,-2.494430797619999751e+00,2.289817741099999804e-01,-9.432806750489998393e+00,1.941779553889999843e-01,-4.417594522239999544e-02,-1.111634522680000070e-01,1.000000000000000000e+00
1.675050678999999931e+00,-2.323750259709999710e+00,2.081038212539999821e-01,-9.454380284400000889e+00,1.946768760680000210e-01,-4.793748259539999668e-02,-1.316265910859999999e-01,1.000000000000000000e+00
1.680019391000000084e+00,-2.488593469770000066e+00,3.050886795709999988e-01,-9.434583697040000771e+00,2.118942141529999990e-01,-4.811449348930000453e-02,-1.343220025299999842e-01,1.000000000000000000e+00
1.685071221000000063e+00,-2.617635152490000117e+00,4.374484738589999866e-01,-9.441894896830000050e+00,2.275473177430000216e-01,-8.001638948919999328e-02,-1.269094347949999979e-01,1.000000000000000000e+00
1.690066698999999950e+00,-2.429293139540000368e+00,4.228438656519999950e-01,-9.410886010580000516e+00,2.166076004509999986e-01,-6.139890849589999672e-02,-1.301791220900000157e-01,1.000000000000000000e+00
1.695182905000000018e+00,-2.478890990930000093e+00,1.602378716970000172e-01,-9.400385659360001256e+00,2.467442750930000095e-01,-8.008975535630000198e-02,-1.335036903619999937e-01,1.000000000000000000e+00
1.700025287999999968e+00,-2.667695360690000239e+00,-1.832304055539999976e-01,-9.299887057299999427e+00,2.474842965599999833e-01,-9.584131836889998868e-02,-1.274490654469999928e-01,1.000000000000000000e+00
1.705007565000000058e+00,-2.855947357260000263e+00,-4.212081176760000267e-01,-9.245281606889998116e+00,2.412802428009999944e-01,-6.192693859339999662e-02,-1.157457008960000033e-01,1.000000000000000000e+00
1.710057490999999930e+00,-2.627478501109999698e+00,-5.935485150990000847e-01,-9.295614202280001237e+00,2.391930520529999826e-01,-6.739134341480000623e-02,-1.323248445989999855e-01,1.000000000000000000e+00
1.715014674000000072e+00,-2.655303496629999760e+00,-6.156706958619999615e-01,-9.362169033689999864e+00,2.449962794779999842e-01,-6.543846428390000247e-02,-1.154929846529999943e-01,1.000000000000000000e+00
1.720174099000000068e+00,-2.644108733389999966e+00,-6.525766042589999927e-01,-9.379994028709999654e+00,2.338304370640000018e-01,-4.454422742130000057e-02,-1.217545717950000023e-01,1.000000000000000000e+00
1.725033747999999978e+00,-2.600674957599999892e+00,-7.922671798260000342e-01,-9.416454166110000301e+00,2.156516760590000137e-01,-5.969586968420000084e-02,-1.208661422130000024e-01,1.000000000000000000e+00
1.730181607000000010e+00,-2.359610239250000241e+00,-8.296027848779999880e-01,-9.526832357139999985e+00,1.897143572569999770e-01,-5.438471585509999789e-02,-1.438737064600000004e-01,1.000000000000000000e+00
1.735035008999999961e+00,-2.435247371770000058e+00,-7.179185527410000267e-01,-9.671321492100000583e+00,1.974718570710000121e-01,-8.309985697269998972e-02,-1.191048547629999926e-01,1.000000000000000000e+00
1.740035377999999966e+00,-2.292735674370000254e+00,-5.945950650090000567e-01,-9.670604868260001652e+00,1.651674509050000128e-01,-9.563327580690000884e-02,-1.116821840410000127e-01,1.000000000000000000e+00
1.745016974999999970e+00,-2.258993271500000066e+00,-5.847566848230000280e-01,-9.756386378180000207e+00,1.488176435230000039e-01,-1.041328534479999957e-01,-1.038111820820000059e-01,1.000000000000000000e+00
1.750183803000000093e+00,-2.244836589729999776e+00,-4.587809655489999972e-01,-9.913094943239999068e+00,1.275748759510000052e-01,-1.227030232550000016e-01,-1.114660352470000088e-01,1.000000000000000000e+00
1.755025641000000025e+00,-2.174909505409999610e+00,-3.271974163309999684e-01,-9.945252999530000082e+00,1.173642203209999957e-01,-1.422585397960000053e-01,-1.305123716589999816e-01,1.000000000000000000e+00
1.760185322000000108e+00,-2.142075011170000209e+00,-3.118875824640000016e-01,-9.928693494389998264e+00,1.250807791950000192e-01,-1.848737299439999759e-01,-1.240291744470000124e-01,1.000000000000000000e+00
1.765167211000000069e+00,-2.112981310899999965e+00,-5.315676770800000783e-01,-9.877570040880000235e+00,1.173503547910000055e-01,-2.035806775089999965e-01,-1.224945038560000116e-01,1.000000000000000000e+00
1.770178255000000034e+00,-2.247867335729999638e+00,-5.375869008370000035e-01,-1.007099417940000130e+01,1.077682599430000027e-01,-2.329830676319999960e-01,-1.110298484560000021e-01,1.000000000000000000e+00
1.775181459999999989e+00,-2.337601236529999849e+00,3.051291942450000058e-02,-1.003814755630000022e+01,8.630032092329999183e-02,-2.746815979480000114e-01,-1.154706552619999965e-01,1.000000000000000000e+00
1.780035518999999899e+00,-2.371797374520000279e+00,1.637581913099999953e-01,-1.004889457580000034e+01,6.900923699139999146e-02,-3.272534906860000148e-01,-1.189203038810000002e-01,1.000000000000000000e+00
1.785027340000000073e+00,-2.395532616500000156e+00,-1.858701064070000242e-01,-9.934371540029999892e+00,9.411696344610000209e-02,-3.443710505960000390e-01,-1.495377868409999977e-01,1.000000000000000000e+00
1.789982125000000091e+00,-2.714250775640000057e+00,-1.027823875349999971e+00,-9.875804784770000566e+00,1.274884194140000204e-01,-3.690397739410000155e-01,-1.428432464599999896e-01,1.000000000000000000e+00
1.795019753000000051e+00,-2.438926790940000089e+00,-6.617705490619999464e-01,-1.006585506289999898e+01,1.355751007799999852e-01,-3.886280357840000144e-01,-1.285645514729999994e-01,1.000000000000000000e+00
1.799902113999999997e+00,-2.449948097300000072e+00,8.560038234200000387e-03,-1.027070192820000116e+01,1.171953454609999945e-01,-4.635157585140000092e-01,-1.153480559589999954e-01,1.000000000000000000e+00
1.805015151999999956e+00,-2.383129646520000033e+00,-3.331753216969999820e-01,-1.016064697779999904e+01,9.707880765199999873e-02,-5.075637102130000633e-01,-1.190932020549999859e-01,1.000000000000000000e+00
1.810022569000000026e+00,-2.498585871479999998e+00,-6.531120993750000325e-01,-1.019167223060000005e+01,1.174857839939999898e-01,-5.274387001989999657e-01,-1.068857088690000068e-01,1.000000000000000000e+00
1.814959712999999919e+00,-2.338378358389999967e+00,-4.611801356459999668e-01,-1.020434934140000038e+01,1.383332461119999857e-01,-5.570882558820000607e-01,-8.323081582780000875e-02,1.000000000000000000e+00
1.819830982000000041e+00,-2.292738304719999842e+00,-4.968342904159999684e-01,-1.033662196889999940e+01,1.682898700240000045e-01,-5.964282751080000056e-01,-8.077831566330000157e-02,1.000000000000000000e+00
1.824755989000000023e+00,-2.438239247059999837e+00,-5.534645977200000067e-01,-1.032935986889999924e+01,1.782830059530000066e-01,-6.442599296569999634e-01,-6.112103164200000799e-02,1.000000000000000000e+00
1.829684827999999985e+00,-2.301189760590000244e+00,-6.636730947479999587e-01,-1.036238769380000058e+01,2.212152928110000250e-01,-6.807096600530000430e-01,-4.147552698849999581e-02,1.000000000000000000e+00
1.834741675999999933e+00,-2.355479423050000243e+00,-6.714703975599999319e-01,-1.046207790200000076e+01,2.499388009309999881e-01,-7.381637692450000454e-01,-2.279571071270000346e-02,1.000000000000000000e+00
1.839909923000000003e+00,-2.466931088539999983e+00,-4.483758548579999670e-01,-1.056119878600000028e+01,2.418168485159999936e-01,-8.051787018780000027e-01,6.063315086069999763e-03,0.000000000000000000e+00
1.844908071999999954e+00,-2.387300502470000030e+00,-4.995343066219999906e-01,-1.054199256580000110e+01,2.694003880020000019e-01,-8.388409018520001093e-01,1.967170089479999828e-02,0.000000000000000000e+00
1.849757372000000011e+00,-2.539662270490000040e+00,-1.713325172879999747e-01,-1.062849362210000059e+01,3.007296919820000025e-01,-8.925728797910000845e-01,1.801629550759999837e-02,1.000000000000000000e+00
1.854940778000000012e+00,-2.486489483229999742e+00,-3.154974709230000396e-02,-1.068173304489999964e+01,3.423983752729999885e-01,-9.096007943150000719e-01,5.513062700630000194e-03,0.000000000000000000e+00
1.860102531999999975e+00,-2.353610122050000086e+00,-1.268954736000000028e-01,-1.074840361160000057e+01,4.223032593729999506e-01,-9.872948527339999725e-01,3.928599879150000002e-02,0.000000000000000000e+00
1.865102110999999896e+00,-2.098238207530000121e+00,2.045533622309999855e-01,-1.113197155180000131e+01,4.753590822219999623e-01,-1.039061546329999919e+00,3.729537874460000374e-02,0.000000000000000000e+00
1.869950105000000029e+00,-1.917914081349999966e+00,-5.910596756909999860e-02,-1.099228367959999986e+01,5.160515904429999745e-01,-1.116137742999999904e+00,5.833958461880000418e-02,0.000000000000000000e+00
1.874958882999999910e+00,-1.827762831909999885e+00,-1.959587715599999946e-01,-1.111566923630000048e+01,5.575311779980000049e-01,-1.224941611290000010e+00,6.030807271599999964e-02,0.000000000000000000e+00
1.879974794000000005e+00,-1.839338703409999942e+00,7.393810092210000018e-02,-1.115735967559999864e+01,5.590863823889999917e-01,-1.342515945429999746e+00,3.428244963290000280e-02,0.000000000000000000e+00
1.884913027999999935e+00,-1.887151278820000000e+00,-6.017486630909999606e-02,-1.126130286509999934e+01,5.590358376499999782e-01,-1.463387131690000009e+00,3.273792192339999851e-02,0.000000000000000000e+00
1.889927590000000102e+00,-1.790267067859999894e+00,-5.389875431480000562e-02,-1.106146885959999970e+01,5.333599448200000426e-01,-1.589774370190000008e+00,1.379310805349999967e-02,0.000000000000000000e+00
1.895007217999999938e+00,-2.019330821170000068e+00,3.283985722819999786e-01,-1.111948616420000135e+01,5.114588737490000092e-01,-1.719211339949999973e+00,-2.545613609250000145e-02,0.000000000000000000e+00
1.899972970000000094e+00,-2.012818370530000234e+00,5.446017115019999855e-01,-1.127477375660000014e+01,4.903079569340000332e-01,-1.824637770649999879e+00,-4.819936677810000153e-02,0.000000000000000000e+00
1.904996753999999903e+00,-1.844480304090000189e+00,5.300641041160000233e-01,-1.136262739660000065e+01,5.319277644159999818e-01,-1.972257256509999834e+00,-5.615809932350000061e-02,0.000000000000000000e+00
1.910007731999999958e+00,-1.724815083129999982e+00,5.732472661519999457e-01,-1.142382099319999966e+01,6.115765571589999450e-01,-2.090484380719999979e+00,-8.149852603670000584e-02,0.000000000000000000e+00
1.915201402000000108e+00,-1.623783543240000071e+00,6.074087712119999871e-01,-1.169207562410000101e+01,6.893820762630000765e-01,-2.248357057569999817e+00,-1.008539721370000086e-01,0.000000000000000000e+00
1.920064946999999966e+00,-1.452208102309999971e+00,1.041834718910000124e+00,-1.198868658079999960e+01,7.864494323729999126e-01,-2.421020746229999965e+00,-1.010086908940000111e-01,0.000000000000000000e+00
1.925210113999999972e+00,-1.233809973789999903e+00,1.223704174839999936e+00,-1.208791735490000008e+01,8.958754539489999225e-01,-2.646513223649999969e+00,-1.448988616469999990e-01,0.000000000000000000e+00
1.930154447999999912e+00,-1.067149631299999957e+00,1.601578287299999959e+00,-1.248935646730000038e+01,1.044819593429999971e+00,-2.899190187449999900e+00,-2.027467787269999766e-01,0.000000000000000000e+00
1.935051397000000062e+00,-1.067295104190000066e+00,2.151161403950000217e+00,-1.263103872820000007e+01,1.233520746229999965e+00,-3.136754989619999989e+00,-2.689406871800000265e-01,0.000000000000000000e+00
1.940022915999999986e+00,4.860374769940000172e-01,2.603041394469999936e+00,-1.338299925130000112e+01,1.525341391560000259e+00,-3.487973928450000205e+00,-3.390220403670000104e-01,0.000000000000000000e+00
1.945184079999999982e+00,6.991111225489999859e-01,4.133755462739999942e+00,-1.339677643220000114e+01,1.900329470630000017e+00,-3.623954534530000160e+00,-3.476885259149999907e-01,0.000000000000000000e+00
1.950108796000000089e+00,2.198435926949999786e+00,6.273699745490000090e+00,-1.321939040530000042e+01,2.293443441390000448e+00,-4.162632942200000130e+00,-3.965986073020000280e-01,0.000000000000000000e+00
1.955076008000000032e+00,7.087274574830000340e-01,7.247735332030000421e+00,-1.390680217609999936e+01,2.828005313870000315e+00,-4.650697231289999678e+00,-5.082665681840000671e-01,0.000000000000000000e+00
1.960188024999999890e+00,-8.851401823780000733e-01,7.023058561639999198e+00,-1.369838972730000037e+01,3.330559492109999464e+00,-5.143726348880000465e+00,-5.807927250859999946e-01,0.000000000000000000e+00
1.965057100999999973e+00,-1.358183664700000071e+00,6.576548135319999489e+00,-1.388257140569999848e+01,3.858920335769999710e+00,-5.425778865809999907e+00,-7.466905117030000483e-01,0.000000000000000000e+00
1.970043634999999904e+00,-2.488305884999999940e+00,7.035085684039999343e+00,-1.408718446219999976e+01,4.374938011170000252e+00,-5.613362789149999976e+00,-8.486135602000000056e-01,0.000000000000000000e+00
1.975212106999999939e+00,-2.857190343060000082e+00,8.257646534060000931e+00,-1.370765907540000050e+01,4.859555721280000462e+00,-5.686296939850000065e+00,-9.503709673880000874e-01,0.000000000000000000e+00
1.980190134000000102e+00,-3.797582895450000162e+00,7.105262797589999124e+00,-1.225781214930000118e+01,5.437376976009999474e+00,-5.648829460140000869e+00,-1.034794330600000034e+00,0.000000000000000000e+00
1.985189107000000064e+00,-5.961140693509999089e+00,5.367625350029999964e+00,-1.063655651710000072e+01,6.150966644290000396e+00,-5.572077751159999259e+00,-9.460152387619999992e-01,0.000000000000000000e+00
1.990241313999999928e+00,-7.631763290939999500e+00,1.954663410940000068e+00,-1.011811950320000086e+01,7.031357288360000624e+00,-5.506263256069999557e+00,-6.993893980979999370e-01,0.000000000000000000e+00
1.995062098000000006e+00,-1.090803069450000073e+01,1.449236977540000026e+00,-9.737845928360000514e+00,7.693024635310000470e+00,-5.350694179530000483e+00,-3.822304308410000018e-01,0.000000000000000000e+00
2.000169563000000039e+00,-1.067699374140000046e+01,2.989253529020000077e-01,-8.058716783870000455e+00,8.318954467770000250e+00,-5.182734489440000480e+00,-1.518177539109999974e-01,0.000000000000000000e+00
2.005005097000000180e+00,-1.112255724220000097e+01,-6.772143772660000671e+00,-9.817176070189999493e+00,8.779304504389999764e+00,-4.688097000119999969e+00,-6.851989030839999995e-02,0.000000000000000000e+00
2.010067407999999833e+00,-1.696324141830000087e+01,-8.505995856469999339e+00,-1.130824698710000042e+01,8.821424484249998699e+00,-3.973670959469999708e+00,2.499520182609999974e-01,0.000000000000000000e+00
2.015178600000000042e+00,-1.869902826959999942e+01,-7.156583819510000666e+00,-1.009788452440000128e+01,8.721082687380000920e+00,-3.256386756900000012e+00,6.764386296269999654e-01,0.000000000000000000e+00
2.020168071000000065e+00,-1.422069861420000159e+01,-8.067495133610000480e+00,-8.711746392589999388e+00,8.704634666439998725e+00,-2.762691974640000048e+00,6.718229055399999039e-01,0.000000000000000000e+00
2.025166811000000067e+00,-1.126194467010000011e+01,-9.247610342090000657e+00,-8.898166205299999021e+00,8.884482383730000876e+00,-2.299818277359999552e+00,8.203725814820000961e-01,0.000000000000000000e+00
2.030155407000000078e+00,-1.076415881460000001e+01,-1.421299929180000099e+01,-9.721039170470000101e+00,8.327470779419998692e+00,-1.811851382259999754e+00,1.146888375279999872e+00,0.000000000000000000e+00
2.035173556999999800e+00,-1.015105497360000086e+01,-1.249536418329999954e+01,-1.382014329880000147e+01,7.513823509219998975e+00,-1.444226622579999786e+00,2.059780836109999846e+00,0.000000000000000000e+00
2.040041519999999942e+00,-8.523741356519998646e+00,-9.812100082100000620e+00,-1.762606235319999826e+01,6.114661216740000071e+00,-1.069325208660000026e+00,2.762660980220000173e+00,0.000000000000000000e+00
2.045027417000000014e+00,-6.028641865850000059e+00,-5.792414358400000296e+00,-1.942992963800000084e+01,5.050061702729999880e+00,-3.015401959419999889e-01,3.331098556520000198e+00,0.000000000000000000e+00
2.050205409999999784e+00,-5.977934007400000027e+00,6.095827542499999696e-01,-2.126733561980000076e+01,4.539085388180000180e+00,4.906036257739999629e-01,3.991264581680000312e+00,0.000000000000000000e+00
2.055171601000000070e+00,-8.264722756060001174e+00,5.136670814539999519e+00,-2.019555628279999837e+01,4.348020553590000503e+00,1.673491358760000214e+00,5.032252788540000132e+00,0.000000000000000000e+00
2.060174973000000076e+00,-6.213396375700000362e+00,7.592741194110000258e+00,-1.853003714599999796e+01,4.498415470119999426e+00,2.524459600449999730e+00,6.016819477080000311e+00,0.000000000000000000e+00
2.065020126999999928e+00,-3.767408706459999479e+00,9.143750739169998809e+00,-1.443781225579999905e+01,4.711337089539999745e+00,3.035947084430000054e+00,6.463521003719999491e+00,0.000000000000000000e+00
2.070196759999999969e+00,-1.492367386480000002e+00,6.046735156419999591e+00,-1.317420218700000056e+01,4.876939296719999817e+00,3.206842660899999586e+00,6.415061473849999807e+00,0.000000000000000000e+00
2.075175494999999870e+00,3.647898822199999724e-01,1.630429557130000040e+00,-1.251871933990000052e+01,4.957392692570000037e+00,3.362758398059999987e+00,6.191210746769999496e+00,0.000000000000000000e+00
2.080156967999999829e+00,2.263624146180000185e+00,-3.070213281340000155e-01,-1.122777001329999891e+01,4.865363121030000570e+00,3.437384843830000314e+00,6.046632766719999275e+00,0.000000000000000000e+00
2.085156882000000156e+00,3.869565597119999367e+00,-8.219470824930000807e-01,-1.028152961169999990e+01,4.555246829989999746e+00,3.405251502990000123e+00,5.876853942869999514e+00,0.000000000000000000e+00
2.090026465000000222e+00,4.169902004130000783e+00,-1.167879704029999965e+00,-9.716714293010001668e+00,4.040935993189999742e+00,3.351204872129999845e+00,5.690480232239999658e+00,0.000000000000000000e+00
2.095147045000000041e+00,4.725312657889999990e+00,-1.326880325550000128e+00,-9.567957563740000282e+00,3.439519405360000004e+00,3.316978693009999812e+00,5.495404720309999824e+00,0.000000000000000000e+00
2.100003698000000085e+00,4.883841716370000086e+00,-4.554814856130000034e-01,-8.990856763960000109e+00,2.757131576540000406e+00,3.305727720259999725e+00,5.300904273989999638e+00,0.000000000000000000e+00
2.105014406000000005e+00,4.919222826359999523e+00,7.955852183329999994e-01,-9.362752386529999526e+00,2.142981290820000329e+00,3.426782131199999970e+00,5.163639545440000589e+00,0.000000000000000000e+00
2.110205145000000115e+00,5.066619957709999511e+00,2.797806426200000196e+00,-1.042467551539999882e+01,1.721938490870000171e+00,3.516175746919999678e+00,5.113391876219999688e+00,0.000000000000000000e+00
2.115171651999999902e+00,4.069767266949999573e+00,5.329581158309999900e+00,-1.149017358010000045e+01,1.512835025790000065e+00,3.627711057659999572e+00,5.199166774750000108e+00,0.000000000000000000e+00
2.120157242999999969e+00,2.683972541750000218e+00,7.992775700449999299e+00,-1.185376256210000001e+01,1.523231506349999931e+00,3.858831167219999525e+00,5.402279376980001047e+00,0.000000000000000000e+00
2.125168105999999835e+00,1.715484360210000059e+00,9.807606277810000606e+00,-1.142290797000000069e+01,1.686376571660000101e+00,4.204202175139999831e+00,5.695289134980000334e+00,0.000000000000000000e+00
2.130112731000000093e+00,1.430688052159999835e+00,1.031653312049999904e+01,-1.047488594570000053e+01,1.916609168050000145e+00,4.634446620940000372e+00,6.018833637240000201e+00,0.000000000000000000e+00
2.135195148999999848e+00,1.905044224509999662e+00,1.020812535279999977e+01,-9.772841838419999760e+00,2.143479108809999811e+00,5.100924491879999856e+00,6.366851329800000237e+00,0.000000000000000000e+00
2.140137183999999859e+00,2.608078219590000302e+00,9.556748187460000210e+00,-9.262281841529999227e+00,2.289424419399999966e+00,5.447509765619999555e+00,6.806299209589999677e+00,0.000000000000000000e+00
2.145142391999999898e+00,3.518721238149999930e+00,8.894411821210001179e+00,-9.013491205099999348e+00,2.358774900440000266e+00,5.641627788540000132e+00,7.276457786559999974e+00,0.000000000000000000e+00
2.150198563000000007e+00,4.373431649340000504e+00,8.464232351970000678e+00,-8.838226992650000113e+00,2.331465721129999835e+00,5.697580337519999816e+00,7.670056819920000102e+00,0.000000000000000000e+00
2.155190262000000079e+00,4.713865088939999559e+00,8.731905383519999120e+00,-8.768408775539999311e+00,2.274381637569999892e+00,5.690471172330000549e+00,7.993714809419999234e+00,0.000000000000000000e+00
2.160168157000000200e+00,5.116794732200000695e+00,9.352973335319999748e+00,-8.434567281550000573e+00,2.201535940170000316e+00,5.651022434229999725e+00,8.171695709230000659e+00,0.000000000000000000e+00
2.165165484000000085e+00,4.970646139599999458e+00,1.024616253019999945e+01,-8.022981453619999925e+00,2.155371665950000182e+00,5.622055053709999584e+00,8.275108337400000735e+00,0.000000000000000000e+00
2.170150850999999825e+00,4.614679615309999150e+00,1.133110413109999826e+01,-7.421099848330000803e+00,2.224214077000000067e+00,5.615792274480000401e+00,8.267484664919999560e+00,0.000000000000000000e+00
2.175167279000000065e+00,4.289344960640000259e+00,1.216102818380000095e+01,-6.944909738549999823e+00,2.417349338529999780e+00,5.617727756499999892e+00,8.214840888979999534e+00,0.000000000000000000e+00
2.180136128000000006e+00,4.487957315450000095e+00,1.239784138220000109e+01,-6.400228276340000910e+00,2.658991575240000405e+00,5.594221115110000753e+00,8.030000686650000219e+00,0.000000000000000000e+00
2.185009743999999809e+00,4.428930249200000446e+00,1.238960429970000021e+01,-5.772532430840000117e+00,2.921863079069999980e+00,5.467640876769999103e+00,7.767185211180000159e+00,0.000000000000000000e+00
2.189970253999999894e+00,4.364381789180000304e+00,1.236531975329999966e+01,-5.243906615899999402e+00,3.218591690059999788e+00,5.322055339810000341e+00,7.381455898280000483e+00,0.000000000000000000e+00
2.195166109000000088e+00,3.870395033690000375e+00,1.223142449309999868e+01,-4.881941727970000144e+00,3.466732025149999785e+00,5.122583389279999899e+00,6.901644706729999967e+00,0.000000000000000000e+00
2.200163768999999991e+00,2.424313889829999624e+00,1.164130755989999955e+01,-4.911868956459999325e+00,3.679720640180000224e+00,4.915729045869999148e+00,6.423678874970000230e+00,0.000000000000000000e+00
2.205018030999999823e+00,7.575909301769999660e-01,1.115591239940000001e+01,-5.206369789190000041e+00,3.885387897490000242e+00,4.746149539950000218e+00,5.898213863370000531e+00,0.000000000000000000e+00
2.210202577000000002e+00,-9.467737778620000100e-01,1.066884316820000045e+01,-5.796780736909999732e+00,3.978773355480000440e+00,4.574890136719999667e+00,5.388171672819999536e+00,0.000000000000000000e+00
2.215174243999999959e+00,-2.266036175750000048e+00,1.017016767029999968e+01,-6.883702697910000445e+00,3.989570617680000097e+00,4.483450889590000266e+00,4.897400379180000485e+00,0.000000000000000000e+00
2.220138555000000125e+00,-4.031918597809999838e+00,9.639099722930000169e+00,-7.853025284450000143e+00,3.898452758789999972e+00,4.435531139370000098e+00,4.507284164430000573e+00,0.000000000000000000e+00
2.224999728999999871e+00,-6.421587875240000187e+00,9.630487377410000605e+00,-8.599365045039998989e+00,3.803746461869999873e+00,4.517005443569999557e+00,4.280102729800000283e+00,0.000000000000000000e+00
2.230131789000000087e+00,-7.373320444550000019e+00,9.660931030989999613e+00,-8.687653569339998327e+00,3.691724300380000656e+00,4.513654232030000379e+00,4.151280403140000352e+00,0.000000000000000000e+00
2.235120354000000198e+00,-8.937507451089999222e+00,9.951966817949999822e+00,-8.882679882359999723e+00,3.604174852369999904e+00,4.533490657809999824e+00,4.124826431269999816e+00,0.000000000000000000e+00
2.240004944999999914e+00,-9.710521868110001620e+00,9.744180392080000530e+00,-9.122483494729999975e+00,3.540278434750000258e+00,4.487148761750000325e+00,4.140222549439999788e+00,0.000000000000000000e+00
2.245108710999999868e+00,-1.074692126410000093e+01,9.324421194570000182e+00,-9.393788745309999300e+00,3.453115701680000260e+00,4.411768436430000051e+00,4.156326770779999791e+00,0.000000000000000000e+00
2.250200308000000149e+00,-1.144119181479999980e+01,9.674040103410000313e+00,-9.987670584019999964e+00,3.400728702549999927e+00,4.252089500430000335e+00,4.133606433869999819e+00,0.000000000000000000e+00
2.255124685000000184e+00,-1.300231651109999831e+01,1.039531614989999930e+01,-1.044470006629999936e+01,3.335590600969999819e+00,4.072055816649999826e+00,4.096507549290000050e+00,0.000000000000000000e+00
2.260172858999999868e+00,-1.514235987029999997e+01,1.075762736700000133e+01,-1.094735382010000002e+01,3.274639844890000262e+00,3.871358394619999643e+00,4.078066349030000204e+00,0.000000000000000000e+00
2.265131452999999961e+00,-1.815513649640000082e+01,1.069148403900000055e+01,-1.099905127410000105e+01,3.311237335209999522e+00,3.723223447799999697e+00,4.104577541350000303e+00,0.000000000000000000e+00
2.270020629999999873e+00,-2.030190419550000058e+01,1.038550319640000019e+01,-1.084648404660000054e+01,3.345802068709999855e+00,3.532181501390000200e+00,4.089530944819999903e+00,0.000000000000000000e+00
2.275163816000000061e+00,-2.165985609719999871e+01,1.021154948200000057e+01,-1.039511156720000074e+01,3.287971496579999986e+00,3.328918457029999889e+00,3.995047569270000043e+00,0.000000000000000000e+00
2.280013563999999882e+00,-2.282878063409999925e+01,9.868685308150000779e+00,-9.464153490389998424e+00,3.179903268809999961e+00,3.103829860689999887e+00,3.803277730940000545e+00,0.000000000000000000e+00
2.285001552000000213e+00,-2.387445522350000005e+01,9.145373956460000286e+00,-8.576174723590000326e+00,3.025951385499999979e+00,2.808018207549999978e+00,3.536208391190000189e+00,0.000000000000000000e+00
2.289967166999999915e+00,-2.507971831719999756e+01,8.653758898530000465e+00,-7.480781871360000501e+00,2.846481561660000104e+00,2.436216592790000135e+00,3.225326061250000098e+00,0.000000000000000000e+00
2.294966660000000047e+00,-2.571737558479999919e+01,8.448626786560000212e+00,-6.299694018450000321e+00,2.675895452499999827e+00,2.057594060900000077e+00,2.884016036989999865e+00,0.000000000000000000e+00
2.300129888999999928e+00,-2.567936295719999862e+01,8.474394849539999441e+00,-4.770308860700000153e+00,2.560194969179999891e+00,1.628383159639999800e+00,2.580254077909999832e+00,0.000000000000000000e+00
2.305000874000000088e+00,-2.496310853829999843e+01,8.341150746700000340e+00,-2.913821454079999818e+00,2.430026769639999973e+00,1.187745332720000047e+00,2.321485996249999850e+00,0.000000000000000000e+00
2.310197759999999878e+00,-2.454245852940000105e+01,8.249346323230000166e+00,-1.038877987999999863e+00,2.340115070339999992e+00,7.265482544900000450e-01,2.143879652020000304e+00,0.000000000000000000e+00
2.315139323999999998e+00,-2.412354805769999899e+01,8.368814414179999162e+00,7.108353164820000458e-01,2.345865726470000023e+00,2.466325759890000135e-01,1.961320757870000042e+00,0.000000000000000000e+00
2.320015263000000161e+00,-2.467784081340000313e+01,8.369080371639999072e+00,1.613229269870000149e+00,2.365517377849999825e+00,-2.581712305550000197e-01,1.771947145459999762e+00,0.000000000000000000e+00
2.324971453999999937e+00,-2.503933253079999943e+01,7.833251493450000602e+00,1.907287619520000144e+00,2.330244779590000093e+00,-6.670014262200000266e-01,1.525378108020000179e+00,0.000000000000000000e+00
2.330005658999999785e+00,-2.431330724400000065e+01,6.469432160950000288e+00,1.962437113690000068e+00,2.198150873179999909e+00,-9.883481264110000053e-01,1.237741947169999968e+00,0.000000000000000000e+00
2.334987833000000013e+00,-2.245965739889999924e+01,5.103172449559999713e+00,2.375799449759999682e+00,1.932046413420000164e+00,-1.131024241450000023e+00,9.565615057950000999e-01,0.000000000000000000e+00
2.340159444999999838e+00,-1.944542882040000009e+01,4.612299149910000118e+00,3.416921198099999835e+00,1.629602551459999882e+00,-1.220240831379999946e+00,7.061673402789999665e-01,0.000000000000000000e+00
2.344994881999999947e+00,-1.588423855979999999e+01,4.528769218309999900e+00,4.597460769480000486e+00,1.354199171069999874e+00,-1.252244710920000115e+00,4.722566902640000230e-01,0.000000000000000000e+00
2.350154653000000149e+00,-1.282443130250000074e+01,4.642375723739999849e+00,5.840283778549999916e+00,1.195228576660000153e+00,-1.353760838510000175e+00,2.943282723429999637e-01,0.000000000000000000e+00
2.355143301000000022e+00,-1.343411569049999876e+01,-7.883599286419999963e+00,-1.278010116239999938e+01,3.362410068509999461e-01,-1.517147779460000123e+00,-6.010287627580000042e-02,0.000000000000000000e+00
2.360154184000000210e+00,-8.404220074079999492e+00,-3.481877420589999872e+01,-5.139646615480000236e+00,-2.510666608809999811e+00,-9.598089456559999455e-01,-4.069828689100000174e-01,0.000000000000000000e+00
2.365124353000000124e+00,-2.111723273660000189e+01,-1.597446418970000082e+01,-4.321913234379999835e+01,-3.936938285830000162e+00,-2.560669481749999754e-01,6.854036450390000867e-01,0.000000000000000000e+00
2.370221057999999825e+00,-4.527396994720000123e+01,1.381677411460000116e+01,-3.466312304090000396e+01,-8.070319175719999905e+00,-1.014087557789999927e+00,1.930801272390000045e-01,0.000000000000000000e+00
2.375189969000000012e+00,-1.826969811060000026e+01,2.551720255650000269e+01,-3.490089485520000068e+01,-8.344224929810000191e+00,-3.489165306090000196e-01,-2.709229290490000053e-01,0.000000000000000000e+00
2.380043049999999827e+00,1.739737634719999981e+00,3.039231853010000250e+01,-4.617190136819999680e+00,-6.600252151490000330e+00,1.397090435029999966e+00,-8.354158401489999441e-01,0.000000000000000000e+00
2.385023197999999844e+00,6.928330944189998952e+00,2.289634435030000148e+01,-1.425609842880000144e+01,-2.559442043300000247e+00,3.810195922850000194e+00,5.367483496670000243e-01,0.000000000000000000e+00
2.389993336999999940e+00,1.991131497829999830e+01,1.422035959150000117e+01,-2.347812366329999989e+01,7.434971630570000323e-02,3.728294849400000111e+00,1.234887480740000099e+00,0.000000000000000000e+00
2.394960189999999933e+00,1.099643027790000005e+01,3.957878671350000044e+00,-3.638476037080000225e+00,1.568440675740000012e+00,1.549133181570000017e+00,1.208374261859999965e+00,0.000000000000000000e+00
2.400046854999999812e+00,3.996438703630000422e+00,-7.739271479500000162e+00,-4.665813005690000459e+00,2.165727376940000060e+00,-1.291699409479999949e-01,5.485833883289999990e-01,0.000000000000000000e+00
2.405024993000000055e+00,-1.833917409020000111e+00,-4.713569028600000266e+00,-1.481911809630000043e+01,8.683962225910000221e-01,-2.094098091130000228e+00,5.641351267699999672e-02,1.000000000000000000e+00
2.410221337999999935e+00,-6.505326481150000006e+00,-6.911378055830000866e-01,-5.768226258080001223e+00,-5.480022430419999591e-01,-3.626594781880000173e+00,-6.609073281289999935e-01,0.000000000000000000e+00
2.415041721000000141e+00,-6.240908067480000376e+00,-2.192994466550000077e+00,-7.899172118600000125e+00,-7.490422725679999338e-01,-2.812890529630000191e+00,-8.425428271289999715e-01,0.000000000000000000e+00
2.419926020000000122e+00,1.413289319720000048e+00,2.351223811430000143e+00,-1.169432954050000006e+01,-8.527401089669999212e-01,-1.763219237329999745e+00,-1.387765407560000108e+00,0.000000000000000000e+00
2.424966635000000093e+00,-1.201894377190000007e+01,3.454088606980000087e+00,-8.640541689560000904e+00,-3.087310791019999834e-01,3.239776492120000073e-01,-3.566727042199999698e-01,0.000000000000000000e+00
2.430050199000000077e+00,-4.029112892739999729e+00,6.673214611869999757e-01,-1.070379640809999877e+01,-2.487149387599999761e-01,1.011590123179999967e+00,2.998360395430000325e-01,0.000000000000000000e+00
2.435036204000000204e+00,-2.015263279470000057e+00,-1.255392860049999948e+00,-9.779376208629999567e+00,-1.434729993339999843e-01,6.792233586310000293e-01,4.638914763930000462e-01,0.000000000000000000e+00
2.440040456999999829e+00,-2.349578236180000168e+00,1.481647839539999900e+00,-9.269362155179999618e+00,-1.692004948849999968e-01,2.780693471429999675e-01,2.322898805139999856e-01,1.000000000000000000e+00
2.444991044000000002e+00,-4.581017876459999805e+00,1.839959904050000095e+00,-1.057953173059999941e+01,-3.459010720250000337e-01,-1.914249509569999896e-01,1.612000912429999988e-01,1.000000000000000000e+00
2.450042341000000068e+00,-1.726568941059999807e+00,-7.717117369230000468e-02,-9.104106711040000022e+00,-2.523266375059999844e-01,-5.414269566539999801e-01,-9.693346917629999671e-02,1.000000000000000000e+00
2.455161289999999941e+00,-3.398391269679999827e+00,-1.500723126890000092e+00,-1.138321542660000141e+01,8.657364547250000208e-02,-3.577612936500000340e-01,-1.487628817559999983e-01,0.000000000000000000e+00
2.460190250000000134e+00,-2.537254917090000284e+00,-1.196128514450000013e-01,-8.925704200569999358e+00,3.499436378479999776e-01,-5.039664506909999897e-01,-1.679593920709999966e-01,0.000000000000000000e+00
2.465160603000000172e+00,-4.507172011269999778e+00,1.103924899060000131e+00,-1.065985439049999961e+01,3.079341053960000241e-01,-3.827853798870000102e-01,-7.349336147310001066e-02,0.000000000000000000e+00
2.470000865999999906e+00,-5.491681353280000621e+00,1.492906607919999962e+00,-1.079810667689999981e+01,5.529758706690000164e-02,-1.569678932430000062e-01,1.801273077730000116e-01,0.000000000000000000e+00
2.474996895999999946e+00,-4.302782534359999467e+00,1.858686816349999882e+00,-1.015825628330000008e+01,-1.052300482989999980e-01,-9.347210079430000318e-02,1.908397972579999879e-01,1.000000000000000000e+00
2.479988142999999923e+00,-4.542098655480000247e+00,1.156115616479999941e+00,-9.631543608460001238e+00,-8.292658627030000118e-02,-7.519327849149999576e-02,6.760957837099999812e-02,1.000000000000000000e+00
2.484995796000000201e+00,-3.322993791129999597e+00,4.104482021980000450e-01,-9.782196526739998177e+00,1.306609213350000132e-01,-9.913531690840000909e-02,-3.576778993009999824e-02,1.000000000000000000e+00
2.490055000999999990e+00,-3.155355835770000006e+00,2.167501786439999800e-01,-1.005846904429999888e+01,2.685415744779999780e-01,-2.253997772930000087e-01,-8.385891467330000570e-02,1.000000000000000000e+00
2.494975436999999907e+00,-2.847643931559999508e+00,-3.957943480210000531e-01,-1.058629347980000013e+01,3.157953023910000101e-01,-3.548798263069999903e-01,-9.806511551139998617e-02,1.000000000000000000e+00
2.500081604000000013e+00,-2.905792753669999673e+00,-1.136874836370000086e+00,-1.113594980779999943e+01,1.724291741849999782e-01,-4.109116494659999508e-01,-7.750869542360000475e-02,1.000000000000000000e+00
2.505002503000000047e+00,-3.111188777269999761e+00,-9.241917245020000449e-01,-1.096727549509999911e+01,7.778891827909999689e-03,-4.160403013229999614e-01,-4.933800920840000076e-02,1.000000000000000000e+00
2.510170499000000000e+00,-2.723921105780000129e+00,-9.206112904660000706e-02,-1.129137300920000087e+01,-8.460766822100000695e-02,-3.993139863009999568e-01,-3.825560212140000083e-02,1.000000000000000000e+00
2.514964803999999887e+00,-1.914026280129999869e+00,3.712827513710000304e-01,-1.186561315890000046e+01,-1.116640865800000021e-01,-4.870410561559999629e-01,-5.289180576799999700e-02,1.000000000000000000e+00
2.519958932000000207e+00,-1.683379787680000073e+00,7.838980684749999872e-01,-1.212389233910000108e+01,1.061389036480000006e-02,-5.740635395049999978e-01,2.363905310629999673e-02,0.000000000000000000e+00
2.524959180000000192e+00,-1.290426471770000028e+00,1.645631217910000110e+00,-1.246035833640000057e+01,2.225741446020000069e-01,-8.342925906179999851e-01,8.492194116119999858e-02,0.000000000000000000e+00
2.530044984999999969e+00,-1.381151429440000022e+00,2.198440164730000035e+00,-1.256998424779999901e+01,5.093107223510000559e-01,-1.132932543749999965e+00,1.008500605819999951e-01,0.000000000000000000e+00
2.535033110000000089e+00,-1.508189663380000045e+00,2.310890485870000344e+00,-1.328196464260000020e+01,7.109406590459999009e-01,-1.442936658860000110e+00,6.116926297550000224e-02,0.000000000000000000e+00
2.540166515000000125e+00,-1.616682186800000087e+00,2.079676714930000170e+00,-1.364184541769999903e+01,8.697362542150000042e-01,-1.699637770649999879e+00,3.832423686980000049e-02,0.000000000000000000e+00
2.544996310999999789e+00,-1.255876990299999996e+00,1.466457869199999875e+00,-1.496443725229999977e+01,9.274093508720000489e-01,-2.013829946520000025e+00,-1.108442898839999934e-02,0.000000000000000000e+00
2.550044622000000150e+00,-7.818584524060000485e-01,1.267950582199999898e+00,-1.460200445460000118e+01,8.857850432399999585e-01,-2.336607694630000065e+00,-3.802337124940000090e-02,0.000000000000000000e+00
2.555086876999999923e+00,8.812014546899999204e-03,1.086936574050000104e+00,-1.526194954179999996e+01,8.588259220119999204e-01,-2.695483446119999904e+00,-5.825549736619999724e-02,0.000000000000000000e+00
2.560167954000000190e+00,1.076378866610000040e+00,1.047119600510000081e+00,-1.626803563260000018e+01,8.298260569570000689e-01,-3.112654447559999760e+00,-7.876282185319999352e-02,0.000000000000000000e+00
2.565184872000000116e+00,1.724342497179999878e+00,1.225157223199999867e+00,-1.634152523170000038e+01,7.915420532229999750e-01,-3.580464124680000637e+00,-1.125020012260000007e-01,0.000000000000000000e+00
2.569999201999999983e+00,2.291941601380000026e+00,1.091545894480000056e+00,-1.602698815769999996e+01,8.200258612630000332e-01,-4.082211494450000089e+00,-1.450904905800000089e-01,0.000000000000000000e+00
2.575174457000000139e+00,2.458870823940000339e+00,1.008823333739999883e+00,-1.581114409749999972e+01,8.567768931389999620e-01,-4.544606685639999810e+00,-2.335992604490000069e-01,0.000000000000000000e+00
2.580042521000000200e+00,2.322605765850000115e+00,1.413983731720000137e+00,-1.577817004869999806e+01,8.901422023770000358e-01,-5.022376060490000071e+00,-2.968454360960000038e-01,0.000000000000000000e+00
2.585022947000000126e+00,2.440849283429999961e+00,1.916607674920000060e+00,-1.552041343099999970e+01,9.339116215710000501e-01,-5.477406978609999477e+00,-3.456589281560000226e-01,0.000000000000000000e+00
2.590021345999999891e+00,2.593040224940000193e+00,2.052292595049999946e+00,-1.479345057109999928e+01,1.005244135860000165e+00,-5.910363674160000080e+00,-4.137758910659999900e-01,0.000000000000000000e+00
2.594991632000000159e+00,2.888934265590000106e+00,2.824225062050000012e+00,-1.436519593240000070e+01,1.098247170450000088e+00,-6.345216751099999719e+00,-4.163978993890000146e-01,0.000000000000000000e+00
2.600187982000000009e+00,3.269515883440000437e+00,3.060758858970000329e+00,-1.437047182700000114e+01,1.118085384370000046e+00,-6.760528564450000388e+00,-4.014804363250000230e-01,0.000000000000000000e+00
2.604996395000000131e+00,3.791748490209999822e+00,3.353326385549999955e+00,-1.466636031470000034e+01,1.193843007089999908e+00,-7.222633838650000193e+00,-3.081891536710000268e-01,0.000000000000000000e+00
2.610015066999999966e+00,3.937319282919999885e+00,3.899887670150000041e+00,-1.594617099210000077e+01,1.284569859500000133e+00,-7.795244693760000843e+00,-2.219564765689999997e-01,0.000000000000000000e+00
2.614959980000000073e+00,4.813532500869999176e+00,5.095965294660000033e+00,-1.751240324079999766e+01,1.431962490079999872e+00,-8.479492187500000000e+00,-1.907023340459999827e-01,0.000000000000000000e+00
2.620025699999999791e+00,4.768583352080000282e+00,8.318057455889999119e+00,-1.963695443179999955e+01,1.631049633029999946e+00,-9.067151069639999506e+00,-3.177959620949999953e-01,0.000000000000000000e+00
2.625003098000000090e+00,-5.332721794429999829e-01,8.900661529249999759e+00,-2.001945620410000259e+01,1.879209041600000019e+00,-9.107357025149999785e+00,-7.245795130730000588e-01,0.000000000000000000e+00
2.629972404000000097e+00,-7.685985879520000452e+00,6.959036463580000387e+00,-2.525898182840000317e+01,2.261153459550000022e+00,-9.095980644229999967e+00,-1.191112518309999979e+00,0.000000000000000000e+00
2.635101575000000196e+00,-1.303867727979999991e+01,4.651107019469999493e+00,-2.547462130590000129e+01,2.679316043850000106e+00,-9.082717895510000972e+00,-1.697821855549999981e+00,0.000000000000000000e+00
2.640028383000000201e+00,-1.737182572630000266e+01,4.133439820919999619e+00,-2.461593293099999968e+01,2.997602224350000011e+00,-9.081089019780000271e+00,-1.793131113050000058e+00,0.000000000000000000e+00
2.645005296999999977e+00,-1.915412415339999797e+01,-7.851722531290000751e-01,-2.532619483150000050e+01,3.037557363509999941e+00,-9.088282585139999981e+00,-1.504878044129999815e+00,0.000000000000000000e+00
2.650178347000000212e+00,-2.100801599049999879e+01,-5.509049836710000037e+00,-2.680087809269999966e+01,3.005331277850000316e+00,-9.059238433839999161e+00,-1.014098763470000053e+00,0.000000000000000000e+00
2.655177686000000037e+00,-2.207949605230000145e+01,-9.600001638250001079e+00,-2.572805363059999806e+01,2.648671388629999957e+00,-8.476033210749999824e+00,-4.996472895149999816e-01,0.000000000000000000e+00
2.660182255000000051e+00,-2.094339125040000127e+01,-1.002404888830000118e+01,-2.695143690300000117e+01,1.984989523890000385e+00,-7.576858997339999569e+00,-1.617637425660000128e-01,0.000000000000000000e+00
2.665025389999999827e+00,-2.791446243520000081e+01,-9.438283136080000801e+00,-3.299154942639999888e+01,1.289667367939999920e+00,-6.799849987030000875e+00,-2.610590755939999896e-01,0.000000000000000000e+00
2.670011557000000035e+00,-2.023868698400000099e+01,-6.198040985659999613e+00,-2.969063039670000137e+01,7.277019023899998773e-01,-5.567893505099999807e+00,-4.414932727809999791e-01,0.000000000000000000e+00
2.675181681000000200e+00,-4.651255195769999240e+00,2.353795415490000043e+00,-2.636772632969999819e+01,5.580304265019999654e-01,-4.475526809690000718e+00,-5.540650486949999509e-01,0.000000000000000000e+00
2.680122482999999889e+00,-1.992226833399999952e+00,7.839812167139999843e+00,-2.219737307460000153e+01,8.417090773579999352e-01,-2.680843114850000042e+00,-5.215491652489999685e-01,0.000000000000000000e+00
2.685021419999999992e+00,1.423045896070000005e+01,7.986425454639999977e+00,-2.583448337629999969e+01,1.557606577869999898e+00,-1.014993071559999960e+00,3.987756371500000285e-01,0.000000000000000000e+00
2.690013169000000204e+00,2.069333980029999864e+01,8.055974207160000233e+00,-2.395796703489999757e+01,2.696005821229999544e+00,-3.686831593509999894e-01,2.140607118609999748e+00,0.000000000000000000e+00
2.695130429000000216e+00,1.051253032440000013e+01,6.490037142080000265e+00,-2.038559370149999950e+01,3.289478778839999951e+00,-6.226353049280000107e-01,3.608963727949999978e+00,0.000000000000000000e+00
2.700011411000000194e+00,3.535168515080000073e+00,8.444759589740000294e+00,-2.659526667280000112e+01,3.566662311549999576e+00,-1.128068685529999948e+00,4.508410453799999829e+00,0.000000000000000000e+00
2.705003264000000129e+00,7.278680505389998778e+00,7.018717902080000570e+00,-2.404004326060000096e+01,3.568499088289999843e+00,-1.015820145610000003e+00,4.602142810819999319e+00,0.000000000000000000e+00
2.710018509999999825e+00,1.316094639960000023e+01,1.222608634689999890e-01,-2.153737771850000016e+01,3.553206920619999654e+00,-3.507396876810000008e-01,4.246763706210000322e+00,0.000000000000000000e+00
2.715150826999999989e+00,1.296169457789999946e+01,-3.444597725059999949e+00,-2.050562176440000073e+01,3.347821474079999859e+00,6.824887990950000427e-01,4.212399959559999907e+00,0.000000000000000000e+00
2.719992817000000063e+00,1.085569377349999876e+01,-4.070954138650000331e+00,-1.963344730049999853e+01,2.850093364720000189e+00,1.652935385699999982e+00,4.249273777009999975e+00,0.000000000000000000e+00
2.725151588000000125e+00,1.251799102569999889e+01,-6.753246179969999652e+00,-1.935188544430000235e+01,2.106000661850000011e+00,2.115345716479999805e+00,4.306501865390000461e+00,0.000000000000000000e+00
2.729991877999999872e+00,1.475570097839999839e+01,-9.135360511960001872e+00,-1.777772123359999767e+01,1.395870685580000048e+00,2.203993320470000405e+00,4.428297996519999558e+00,0.000000000000000000e+00
2.735009610000000091e+00,1.581622008559999948e+01,-7.718109449009999956e+00,-1.561475760210000097e+01,8.280260562899999233e-01,2.372885465620000023e+00,4.387862682340000653e+00,0.000000000000000000e+00
2.740174528999999914e+00,1.405721953200000129e+01,-4.509177798130000525e+00,-1.445852771160000039e+01,5.727846026420000403e-01,2.738482952120000036e+00,4.167281627659999543e+00,0.000000000000000000e+00
2.745157992000000213e+00,1.465726047789999953e+01,-1.983947519229999790e+00,-1.362816526740000000e+01,4.808619320390000174e-01,2.962021827699999665e+00,3.813465833660000026e+00,0.000000000000000000e+00
2.750031397999999960e+00,1.389450968069999881e+01,-1.093474086060000072e+00,-1.276279814539999968e+01,6.675727963449999969e-01,3.145198583600000042e+00,3.626062154770000046e+00,0.000000000000000000e+00
2.755024214000000082e+00,1.213494915519999928e+01,1.873280501309999846e-01,-1.225303777450000098e+01,1.151662707329999868e+00,3.405339479449999818e+00,3.666446208949999619e+00,0.000000000000000000e+00
2.760016271000000021e+00,1.092226380249999984e+01,1.503805164689999918e+00,-1.168564471420000039e+01,1.863462328909999632e+00,3.723456382749999793e+00,3.738129138949999763e+00,0.000000000000000000e+00
2.765156183000000212e+00,9.273583572260001517e+00,2.429226796309999603e+00,-1.104410154520000020e+01,2.645247697829999911e+00,4.138061046599999848e+00,3.785040140150000010e+00,0.000000000000000000e+00
2.770349400999999823e+00,8.220708257769999250e+00,2.546189626429999908e+00,-1.042677511800000012e+01,3.422521829609999511e+00,4.524453639979999942e+00,3.757491827009999952e+00,0.000000000000000000e+00
2.775154381000000114e+00,7.805252894930000629e+00,1.838192455990000029e+00,-9.886035086880001543e+00,4.120713710780000483e+00,4.923048019409999476e+00,3.668806791309999760e+00,0.000000000000000000e+00
2.780133558999999810e+00,7.593567708060001031e+00,7.676184762600000155e-01,-9.619115504039999820e+00,4.686012744900000193e+00,5.175404071810000062e+00,3.543583393100000034e+00,0.000000000000000000e+00
2.784997103999999890e+00,6.967079484780000165e+00,-2.268550642790000127e-01,-9.530080545289999705e+00,5.084660053249999478e+00,5.366637229920000252e+00,3.368892908099999861e+00,0.000000000000000000e+00
2.790019614999999842e+00,5.603113437289999332e+00,-7.564360610539999641e-01,-9.743165077560000498e+00,5.284205913540000132e+00,5.522403717039999549e+00,3.167968511579999813e+00,0.000000000000000000e+00
2.794954617000000141e+00,4.131173921810000316e+00,-5.566657318490000339e-01,-9.987478860839999584e+00,5.372544765469998929e+00,5.642059803010000429e+00,2.922071695330000107e+00,0.000000000000000000e+00
2.799998645000000064e+00,3.067879796890000232e+00,1.230525161700000009e-01,-1.026313821499999968e+01,5.386079311369999623e+00,5.762793540950000626e+00,2.636792659759999768e+00,0.000000000000000000e+00
2.804991858999999810e+00,2.300801784190000365e+00,1.050105411389999910e+00,-1.054229885520000032e+01,5.404678821560000124e+00,5.858834743500000108e+00,2.335629701609999831e+00,0.000000000000000000e+00
2.810008191000000100e+00,1.270791066320000162e+00,1.515973302989999993e+00,-1.128537581460000006e+01,5.470023155210000709e+00,5.962346076970000297e+00,2.044701814650000227e+00,0.000000000000000000e+00
2.815033482000000031e+00,4.019764341900000093e-01,2.318331449529999588e+00,-1.211209084220000065e+01,5.564580917359999823e+00,6.039404392239999808e+00,1.766624689099999923e+00,0.000000000000000000e+00
2.820141365000000011e+00,-3.173061003809999892e-01,4.041072210600000325e+00,-1.242947336880000186e+01,5.599594593049999069e+00,6.098798274990000934e+00,1.410922288889999932e+00,0.000000000000000000e+00
2.825124225999999794e+00,-1.145055585539999976e+00,5.232389781110000193e+00,-1.290737262059999857e+01,5.606891155240000479e+00,6.116648674010000342e+00,9.612649679180000906e-01,0.000000000000000000e+00
2.830041067999999882e+00,-2.163569342359999759e+00,6.204243347430000277e+00,-1.349534318939999977e+01,5.591514587399999847e+00,6.174575328830000487e+00,4.694716632370000142e-01,0.000000000000000000e+00
2.835003423999999939e+00,-3.575606908450000176e+00,6.661772595880000480e+00,-1.394719380769999972e+01,5.546862125399999677e+00,6.219325065609999648e+00,3.244550153609999932e-02,0.000000000000000000e+00
2.840016235999999861e+00,-5.036890005360000089e+00,7.136486203370000503e+00,-1.410065769180000039e+01,5.505789756769999599e+00,6.291380882259999474e+00,-3.667719066139999984e-01,0.000000000000000000e+00
2.844979717999999824e+00,-6.346026146030000703e+00,8.045518864119999947e+00,-1.386107736670000001e+01,5.422182083130000940e+00,6.355720996859999694e+00,-6.836984157559999886e-01,0.000000000000000000e+00
2.850176196000000051e+00,-7.096577386830000833e+00,9.167503955199999055e+00,-1.356374627900000007e+01,5.299052715299999328e+00,6.383640289309999716e+00,-9.715140461920001025e-01,0.000000000000000000e+00
2.854976214000000123e+00,-7.789967647520000149e+00,1.060419154000000042e+01,-1.305148298529999984e+01,5.142993927000000021e+00,6.378888607030000379e+00,-1.263867616650000025e+00,0.000000000000000000e+00
2.860010898000000079e+00,-8.718159766769998598e+00,1.213363514999999992e+01,-1.239057343700000047e+01,5.030101299290000050e+00,6.297582149510000171e+00,-1.430020093920000290e+00,0.000000000000000000e+00
2.864980302999999839e+00,-9.647607439039999733e+00,1.319223702539999898e+01,-1.104570547319999996e+01,4.889849185940000176e+00,6.113806247710000363e+00,-1.510865688320000233e+00,0.000000000000000000e+00
2.870005962000000022e+00,-1.071435988770000058e+01,1.377989779770000034e+01,-9.153736711129999648e+00,4.787690162659999693e+00,5.838082313539999291e+00,-1.460139155390000054e+00,0.000000000000000000e+00
2.875146689999999783e+00,-1.185435877440000141e+01,1.424876969339999988e+01,-7.837548898380000573e+00,4.666717529300000500e+00,5.431523323059999520e+00,-1.306461215020000122e+00,0.000000000000000000e+00
2.879992920999999928e+00,-1.251127720720000092e+01,1.408428172650000043e+01,-6.915263957350000545e+00,4.453607559199999955e+00,4.916995525359999952e+00,-1.033949375149999961e+00,0.000000000000000000e+00
2.884992463000000118e+00,-1.333684306480000004e+01,1.415047649239999927e+01,-6.549335718750000090e+00,4.176422119140000611e+00,4.359046459200000001e+00,-7.238892912859999917e-01,0.000000000000000000e+00
2.890020455000000155e+00,-1.485891000839999876e+01,1.371378252670000109e+01,-7.000961880639998469e+00,3.789288759230000192e+00,3.722540140150000010e+00,-3.898336291309999480e-01,0.000000000000000000e+00
2.894920308000000109e+00,-1.664744060789999835e+01,1.137269987780000058e+01,-7.815850861310000397e+00,3.243766546249999827e+00,3.126665353779999990e+00,7.139554247260000881e-03,0.000000000000000000e+00
2.900029179000000124e+00,-1.903632078080000056e+01,8.887137446289999687e+00,-9.913092605160001014e+00,2.651464462279999879e+00,2.589551925659999920e+00,4.669054746630000308e-01,0.000000000000000000e+00
2.904970735000000026e+00,-2.214138522989999913e+01,7.285090372430000016e+00,-1.184724748109999837e+01,2.048242807390000308e+00,2.115931749340000056e+00,9.262169599529999076e-01,0.000000000000000000e+00
2.909986516000000023e+00,-2.666634687270000015e+01,7.088767005339999372e+00,-1.314398941960000045e+01,1.477334618570000035e+00,1.762753129010000031e+00,1.415531635280000033e+00,0.000000000000000000e+00
2.914987076000000066e+00,-2.987832738969999724e+01,8.572613816229999628e+00,-1.323195762589999980e+01,1.054265141489999946e+00,1.538473844529999690e+00,1.827451944350000135e+00,0.000000000000000000e+00
2.920015508000000093e+00,-3.314905703289999650e+01,1.039836618510000044e+01,-1.267246730160000112e+01,8.204540014269999793e-01,1.590824007990000011e+00,2.247493505479999598e+00,0.000000000000000000e+00
2.924989418000000008e+00,-3.493314643499999761e+01,1.238930619359999952e+01,-1.103824931199999959e+01,8.223981857300000087e-01,1.861072778700000097e+00,2.593093872070000305e+00,0.000000000000000000e+00
2.930042698999999917e+00,-3.633627720269999628e+01,1.411749659839999893e+01,-8.514708155230000131e+00,1.069469571109999961e+00,2.175703048709999976e+00,2.906332969670000210e+00,0.000000000000000000e+00
