t,ax,ay,az,wx,wy,wz,zv
4.955448999999999792e-03,-2.510797118270000183e+00,7.078771242640000683e-01,-9.464711124269999942e+00,1.338888704780000043e-02,-3.618739079679999734e-03,-3.231993317600000137e-02,1.000000000000000000e+00
1.023302300000000081e-02,-2.564680684149999834e+00,7.375872028730000585e-01,-9.474028403200000170e+00,-2.699503209439999864e-03,-1.298010116440000052e-03,-2.090000361199999962e-02,1.000000000000000000e+00
1.506453800000000058e-02,-2.521757780490000211e+00,8.034951877399998388e-01,-9.412819024470000073e+00,-2.339757513249999827e-03,1.641326583920000096e-02,-2.524280548099999688e-02,1.000000000000000000e+00
2.014837699999999857e-02,-2.528755092029999929e+00,7.996681767980000632e-01,-9.439277407809999687e+00,1.890179701150000030e-02,1.223730109629999827e-02,-2.181637659670000035e-02,1.000000000000000000e+00
2.527642399999999873e-02,-2.498321375320000204e+00,8.142117390000001009e-01,-9.413919679189998391e+00,1.020488329229999984e-02,1.326794177290000105e-02,-4.106695950030000292e-02,1.000000000000000000e+00
3.026318100000000011e-02,-2.569822430959999959e+00,8.250302162649999493e-01,-9.399757882850000357e+00,3.232448827479999631e-03,6.055551581079999385e-03,-2.253991365429999782e-02,1.000000000000000000e+00
3.526058599999999654e-02,-2.494846100429999769e+00,7.718417930440000241e-01,-9.472284189879999872e+00,7.042702753100000407e-03,4.168486222619999584e-03,-1.898926682769999999e-02,1.000000000000000000e+00
4.014394500000000032e-02,-2.529850486049999958e+00,6.709466659470000316e-01,-9.470008061639999752e+00,-2.932454925030000218e-03,1.049379538739999944e-02,-2.464889176190000059e-02,1.000000000000000000e+00
4.513497500000000079e-02,-2.531232880320000156e+00,6.404372536540000604e-01,-9.419058211119999413e+00,9.112707339229998964e-04,1.469018310310000151e-02,-2.612129971390000222e-02,1.000000000000000000e+00
5.027861599999999820e-02,-2.460961366479999857e+00,5.755751976430000250e-01,-9.464652087560001092e+00,-6.702773971479999721e-04,2.317568659779999790e-02,-2.985537238420000322e-02,1.000000000000000000e+00
5.514438599999999663e-02,-2.580855573890000088e+00,6.709217507019999971e-01,-9.482798569630000785e+00,5.204465240239999901e-03,1.939674094319999986e-02,-2.172700501979999560e-02,1.000000000000000000e+00
6.027504999999999669e-02,-2.568406718940000388e+00,7.284540483460000271e-01,-9.439738011060001099e+00,-6.483303382989999246e-03,1.327612670140000065e-03,-2.917373739180000036e-02,1.000000000000000000e+00
6.527098100000000569e-02,-2.572046244490000078e+00,7.568164386730000803e-01,-9.446897819689999309e+00,-7.950861938300000237e-03,1.244353782390000135e-02,-1.746210083370000263e-02,1.000000000000000000e+00
7.028653499999999721e-02,-2.644777426440000134e+00,7.621366107829999903e-01,-9.412566511019999638e+00,3.969291690739999712e-03,1.614303141829999746e-02,-6.397559307520000495e-03,1.000000000000000000e+00
7.513630500000000045e-02,-2.538980133449999954e+00,8.023256325040000192e-01,-9.414780679939999786e+00,2.536778803909999717e-03,2.555391006169999840e-02,-1.600170508030000077e-02,1.000000000000000000e+00
8.012981299999999418e-02,-2.554741766200000264e+00,9.102694360030000320e-01,-9.444517062030000076e+00,-1.583660952750000003e-02,2.181084267800000032e-02,-1.184677705169999949e-02,1.000000000000000000e+00
8.509815299999999583e-02,-2.531123866989999804e+00,8.676338248469999126e-01,-9.410504902310000475e+00,-5.365788470950000159e-03,1.123914774510000048e-02,-4.176257178190000141e-03,1.000000000000000000e+00
9.011085200000000517e-02,-2.476131170820000005e+00,8.208434320999998812e-01,-9.452245610449999447e+00,9.890895336870000887e-03,1.134136691690000066e-02,-1.888535544280000103e-02,1.000000000000000000e+00
9.516160899999999423e-02,-2.510381230950000209e+00,7.530097398670000386e-01,-9.457619120189999506e+00,1.156389992679999860e-02,1.892296038570000227e-02,-1.791591383520000150e-02,1.000000000000000000e+00
1.001068940000000018e-01,-2.475535250759999695e+00,7.211261896760000623e-01,-9.425551080269999105e+00,1.025627925990000092e-02,2.202792651949999833e-02,-2.821682021019999986e-02,1.000000000000000000e+00
1.050851240000000020e-01,-2.519270639850000215e+00,6.507316339790000237e-01,-9.457922487050000271e+00,3.683823719619999659e-02,1.192995160820000192e-02,-2.538578584790000120e-02,1.000000000000000000e+00
1.100566540000000038e-01,-2.564476393750000138e+00,5.853982706620000087e-01,-9.460161205880000423e+00,9.681919589640000656e-03,-3.484200453390000254e-03,-1.469365879890000004e-02,1.000000000000000000e+00
1.150753669999999979e-01,-2.545074358669999981e+00,5.835424501950000620e-01,-9.409364500109999696e+00,1.387207023800000015e-02,1.765896799039999836e-03,-2.575467899440000291e-02,1.000000000000000000e+00
1.200751590000000008e-01,-2.573730544310000035e+00,6.262927007060000717e-01,-9.415761507670000086e+00,7.933950982989998804e-03,1.859807968140000239e-02,-2.003053575750000231e-02,1.000000000000000000e+00
1.252526959999999967e-01,-2.614737092959999565e+00,6.478988217059999943e-01,-9.404387880739998096e+00,-3.487680107360000177e-03,2.903995849190000103e-02,-7.235839962959999920e-03,1.000000000000000000e+00
1.302389170000000096e-01,-2.505755324719999955e+00,6.678821638100000957e-01,-9.407446099260001304e+00,-1.844632066790000136e-02,1.146213151509999952e-02,-1.995771564540000167e-02,1.000000000000000000e+00
1.351234380000000124e-01,-2.630241536079999776e+00,7.013219304669999765e-01,-9.414445748889999521e+00,-4.145551938559999608e-03,3.527054796000000242e-03,2.993101254109999717e-03,1.000000000000000000e+00
1.400874159999999924e-01,-2.546499715299999966e+00,7.118170940610000219e-01,-9.436173012050000253e+00,-3.225450403989999805e-03,1.691029779609999964e-02,-1.364457420999999789e-02,1.000000000000000000e+00
1.451242869999999907e-01,-2.529472884910000108e+00,7.841328270790000055e-01,-9.446300438310000658e+00,6.973118055610000483e-03,2.198303863409999809e-02,-1.702863350510000137e-02,1.000000000000000000e+00
1.502715259999999886e-01,-2.549175656510000110e+00,9.032139645329999578e-01,-9.430479184330000209e+00,-1.683083362879999809e-02,2.106307819490000136e-02,-9.978597983719998329e-03,1.000000000000000000e+00
1.551211899999999921e-01,-2.503985684689999935e+00,9.479621839290000018e-01,-9.470990642939998594e+00,-2.299625426529999794e-02,1.267386600379999916e-02,-1.162820868190000100e-02,1.000000000000000000e+00
1.601395630000000125e-01,-2.502769879159999711e+00,9.230574597750000887e-01,-9.459115496219999031e+00,1.532065216450000057e-04,1.717684417959999821e-02,-9.813334792850000876e-03,1.000000000000000000e+00
1.652850499999999889e-01,-2.496982820190000396e+00,9.139785196539998990e-01,-9.415613623629999651e+00,-2.936552278699999970e-03,1.120853051539999826e-02,-1.950285770000000085e-02,1.000000000000000000e+00
1.702566560000000062e-01,-2.515269002990000224e+00,8.531501030729999879e-01,-9.433179090930000399e+00,3.201480023559999909e-03,3.187788417560000025e-03,-1.795490272340000137e-02,1.000000000000000000e+00
1.752638350000000067e-01,-2.492237963760000063e+00,7.095639083070000019e-01,-9.520029691389998661e+00,3.251114115120000425e-02,1.390264369549999886e-02,-1.419942826029999862e-02,1.000000000000000000e+00
1.801189830000000103e-01,-2.414915070099999728e+00,6.651417059949999988e-01,-9.536238483389999132e+00,1.960984990000000025e-02,2.811565762389999466e-03,-1.121718436479999907e-02,1.000000000000000000e+00
1.850739540000000127e-01,-2.383110941820000050e+00,6.188337630029999703e-01,-9.510792491970001095e+00,3.137480840089999778e-02,-2.126303687689999958e-02,-4.666557535529999683e-03,1.000000000000000000e+00
1.901172879999999954e-01,-2.444648821849999987e+00,6.804601250280000180e-01,-9.424755545980000093e+00,3.365655988450000358e-02,-1.345168519770000189e-02,2.166287973520000104e-03,1.000000000000000000e+00
1.951126709999999875e-01,-2.491872929840000417e+00,7.362528855290000340e-01,-9.457187743029999538e+00,1.726121455429999868e-02,-4.249411448840000050e-02,9.094526991250000830e-03,1.000000000000000000e+00
2.000905930000000110e-01,-2.526445938309999750e+00,8.780926019539999627e-01,-9.457023492380001173e+00,2.830364555120000111e-02,-3.262661769990000266e-02,-7.890291512009999300e-03,1.000000000000000000e+00
2.051244740000000011e-01,-2.571092889280000016e+00,8.962775163339998796e-01,-9.417764079660001286e+00,1.207714993509999973e-02,-1.627438329160000099e-02,-2.516767708579999846e-03,1.000000000000000000e+00
2.102535650000000034e-01,-2.543770290329999906e+00,7.534249696039999611e-01,-9.427717318400000934e+00,3.072156198319999851e-02,-2.951803058390000539e-02,-6.773596629500000521e-03,1.000000000000000000e+00
2.152789350000000046e-01,-2.479287589030000127e+00,6.471615204080000128e-01,-9.448996837789998438e+00,2.981938980520000212e-02,-2.037089876829999840e-02,-1.308997347950000001e-02,1.000000000000000000e+00
2.201207069999999988e-01,-2.430277036009999669e+00,5.070160041469999879e-01,-9.535729364830000776e+00,4.699164628980000841e-02,-5.434477701779999621e-03,-1.211760751899999995e-02,1.000000000000000000e+00
2.252598779999999967e-01,-2.331407934850000085e+00,4.193700155289999953e-01,-9.572543722480000739e+00,4.286798462270000054e-02,-4.947831481700000478e-02,9.048670530319999697e-03,1.000000000000000000e+00
2.301353869999999968e-01,-2.128820100540000038e+00,2.758746591169999873e-01,-9.710102765910001210e+00,5.942483991380000802e-02,-8.852732926610000497e-02,3.476287797089999687e-02,0.000000000000000000e+00
2.351239479999999993e-01,-1.962339498529999782e+00,2.457700099659999859e-01,-9.690414315099999953e+00,8.664233982560001768e-02,-1.383044868709999986e-01,5.227061733599999704e-02,0.000000000000000000e+00
2.401144209999999946e-01,-2.031286193509999727e+00,3.535482841729999937e-01,-9.631009939980000212e+00,9.205502271649999846e-02,-2.211796194310000074e-01,7.490947842600000073e-02,0.000000000000000000e+00
2.451135550000000107e-01,-2.213602516420000388e+00,6.458811982740000346e-01,-9.621566988850000612e+00,8.741891384119999941e-02,-3.039477765560000266e-01,7.231599837539999520e-02,0.000000000000000000e+00
2.500966640000000241e-01,-2.836427541019999943e+00,1.035593997889999951e+00,-9.361712522090000377e+00,5.731051415209999916e-02,-3.931716084480000317e-01,9.227301925419999218e-02,0.000000000000000000e+00
2.550935529999999729e-01,-2.817816656309999779e+00,1.171826103570000166e+00,-9.201666337040000698e+00,3.360575810070000335e-02,-4.045563340189999857e-01,4.069746285680000270e-02,0.000000000000000000e+00
2.602586150000000265e-01,-2.939922694539999881e+00,1.025454954259999996e+00,-9.230160610120000442e+00,3.175926953550000514e-02,-3.709060847760000112e-01,2.560635283590000089e-02,0.000000000000000000e+00
2.652731799999999973e-01,-2.907131308789999924e+00,7.548224883769999449e-01,-9.301057854639999789e+00,3.870386630299999658e-02,-2.414893656969999969e-01,-5.254245363180000232e-03,0.000000000000000000e+00
2.701213170000000274e-01,-2.933104831219999653e+00,6.079548973199999651e-01,-9.347814929640000159e+00,5.477837845680000317e-02,-1.120918467639999971e-01,-5.632201209659999305e-04,0.000000000000000000e+00
2.750719870000000178e-01,-2.865447883799999929e+00,6.865764890159999911e-01,-9.426713109790000544e+00,4.318650439380000011e-02,-2.452126890420000191e-02,2.504391968249999878e-02,0.000000000000000000e+00
2.800590050000000275e-01,-2.673073254330000204e+00,7.632320048039999971e-01,-9.440051899310001104e+00,5.406976863739999806e-02,-4.352065734569999893e-03,3.004825673999999766e-02,1.000000000000000000e+00
2.852737340000000010e-01,-2.597465932420000012e+00,7.640096381129999337e-01,-9.442078436710000133e+00,4.124810919170000117e-03,-2.317659929390000068e-02,5.264282971619999724e-02,1.000000000000000000e+00
2.901164990000000277e-01,-2.532140058290000439e+00,8.156112305349999536e-01,-9.396620753869999731e+00,2.235920354720000169e-02,-5.171871185299999757e-02,3.326452150939999963e-02,1.000000000000000000e+00
2.951301929999999851e-01,-2.585529995440000395e+00,7.366204767319999291e-01,-9.340589070040000053e+00,1.740550808609999875e-02,-7.331863790749999776e-02,1.004104316229999933e-02,1.000000000000000000e+00
3.001497980000000232e-01,-2.661772984900000250e+00,7.139695228550000383e-01,-9.370911143069999838e+00,2.950149215759999971e-02,-1.051508933310000005e-01,-4.413073882460000034e-03,1.000000000000000000e+00
3.051602010000000198e-01,-2.737943493650000004e+00,6.389701767759999873e-01,-9.387599827539998998e+00,1.988025568430000153e-02,-8.162419497969999882e-02,8.334182202819999385e-03,1.000000000000000000e+00
3.101310150000000099e-01,-2.770339742600000044e+00,6.306392785429999481e-01,-9.406523139199999051e+00,2.502285316589999975e-02,-3.856516629460000206e-02,1.491189934309999909e-02,1.000000000000000000e+00
3.152947680000000030e-01,-2.744472895419999947e+00,6.426803564060000751e-01,-9.386545934580000861e+00,3.628509864209999991e-02,-3.006286919120000276e-02,1.208519376810000129e-02,1.000000000000000000e+00
3.201280300000000079e-01,-2.730163507300000347e+00,7.033540938810000087e-01,-9.373500575039999561e+00,1.317521929740000063e-02,-1.592874340710000169e-02,1.651351712639999997e-02,1.000000000000000000e+00
3.251852519999999802e-01,-2.688313785820000135e+00,7.579526761620000164e-01,-9.379214861039999462e+00,1.195476856079999775e-02,-4.293172620239999598e-03,9.194869548079999400e-03,1.000000000000000000e+00
3.301505089999999809e-01,-2.664020471570000215e+00,7.528915203149999513e-01,-9.400433590149999574e+00,1.201904937620000037e-02,-1.413462683559999974e-02,6.499371957029999834e-03,1.000000000000000000e+00
3.350038880000000274e-01,-2.686309460259999504e+00,6.723629624860000265e-01,-9.364872447430000690e+00,7.159676868470000143e-03,-1.027616579090000030e-02,8.455526083710000404e-03,1.000000000000000000e+00
3.401004899999999775e-01,-2.658675311150000109e+00,6.056119509230000197e-01,-9.385552247360001488e+00,8.923120796679999411e-03,-1.701752841470000055e-02,-9.136805310849999834e-03,1.000000000000000000e+00
3.451291389999999737e-01,-2.673812090000000197e+00,6.815747352060000930e-01,-9.398448553819999773e+00,1.663526520129999728e-02,7.911837659779999421e-03,-1.169268228110000030e-02,1.000000000000000000e+00
3.500985189999999969e-01,-2.723700741030000039e+00,7.552232511980000451e-01,-9.419752038610001321e+00,-8.717162534589999526e-03,6.159156560899999890e-03,-1.049340819009999962e-03,1.000000000000000000e+00
3.550929700000000078e-01,-2.680060921259999951e+00,8.028556477270000213e-01,-9.406292253049999275e+00,6.049671210349999309e-04,8.768390864129999365e-03,-3.703602124010000468e-03,1.000000000000000000e+00
3.601123949999999740e-01,-2.660269886860000099e+00,8.028280290679999931e-01,-9.402044532479999717e+00,2.891758922489999668e-03,6.139570847149999899e-03,-7.292381022130000646e-03,1.000000000000000000e+00
3.650998309999999858e-01,-2.658169115190000209e+00,7.885000823780000667e-01,-9.403476611110001215e+00,1.396348699929999930e-02,1.492925360799999927e-02,-5.969288758930000119e-03,1.000000000000000000e+00
3.699618040000000052e-01,-2.676080619459999976e+00,7.293791273019999410e-01,-9.376993677849998932e+00,4.687451757490000009e-03,1.280560716989999868e-02,-1.304496079680000052e-02,1.000000000000000000e+00
3.749321119999999841e-01,-2.682097395530000039e+00,6.720453479039999456e-01,-9.399603569069999054e+00,1.829610764980000095e-02,7.725035771730000105e-03,-1.084644719960000184e-02,1.000000000000000000e+00
3.801159729999999959e-01,-2.681148131979999683e+00,7.259338822190000151e-01,-9.368234032820000223e+00,5.940058734270000501e-03,1.152822002770000076e-02,-2.206372469659999974e-02,1.000000000000000000e+00
3.850739029999999952e-01,-2.668942438140000206e+00,7.313885674279999582e-01,-9.408793422220000480e+00,9.736474603409999221e-03,1.471143215889999904e-02,-1.938460953529999933e-02,1.000000000000000000e+00
3.902335359999999920e-01,-2.672235342200000030e+00,7.075310873050000282e-01,-9.411379347060000455e+00,2.596700564030000186e-03,3.540339320900000308e-02,-8.511705324049999993e-03,1.000000000000000000e+00
3.951032789999999739e-01,-2.677628141160000030e+00,7.161647678770000081e-01,-9.376782665449999499e+00,1.231142785399999898e-02,3.273139148950000160e-02,4.011129494760000760e-03,1.000000000000000000e+00
4.001049130000000065e-01,-2.642666425629999871e+00,6.602840368310000096e-01,-9.381793771610000832e+00,3.115487284960000158e-03,2.267423458399999911e-02,-1.091397926209999869e-02,1.000000000000000000e+00
4.049819000000000058e-01,-2.650503110609999879e+00,7.218442017530000143e-01,-9.402260805580000991e+00,6.088569294659999798e-03,2.361088991170000317e-02,-5.504228174690000211e-03,1.000000000000000000e+00
4.102398369999999961e-01,-2.592715523029999858e+00,7.159251139020000876e-01,-9.402005954039999835e+00,-1.237012073400000148e-02,2.429489605129999882e-02,-3.326413407920000148e-02,1.000000000000000000e+00
4.151187170000000259e-01,-2.689244344670000064e+00,6.694683370230000152e-01,-9.415580305880000722e+00,5.260852631179999649e-04,2.815444767479999971e-02,-1.892053335909999953e-02,1.000000000000000000e+00
4.200675460000000139e-01,-2.686922331470000369e+00,5.778758027359999216e-01,-9.425018580830000658e+00,-2.845363691450000180e-03,3.127807378770000590e-02,-1.689834333960000060e-02,1.000000000000000000e+00
4.251269890000000107e-01,-2.633131412309999586e+00,5.815113827589999396e-01,-9.398902727319999428e+00,-8.988375775520000485e-03,6.092948839069999706e-02,-1.965087465940000208e-02,1.000000000000000000e+00
4.302352079999999801e-01,-2.721384865299999678e+00,6.411207789389999911e-01,-9.406069550210000685e+00,-2.458193339409999942e-02,4.588435962799999879e-02,-5.611328873779999372e-03,1.000000000000000000e+00
4.351684169999999741e-01,-2.636215349800000052e+00,6.601223434630000275e-01,-9.397510980699999905e+00,8.119082078340000841e-03,4.857892543080000181e-02,-2.017564512790000208e-02,1.000000000000000000e+00
4.403071980000000107e-01,-2.649836755649999986e+00,6.339044908840000270e-01,-9.395482105230000158e+00,-1.776188425720000297e-02,4.526127129790000897e-02,-1.825555972749999881e-02,1.000000000000000000e+00
4.452011000000000163e-01,-2.648895967670000129e+00,6.006746041189999774e-01,-9.383542076579999502e+00,-2.891399711370000111e-02,6.818994134660000261e-02,-1.279463246460000106e-02,1.000000000000000000e+00
4.501522669999999948e-01,-2.608690214010000119e+00,5.886312247020000221e-01,-9.396851640010000395e+00,-2.488762140269999701e-02,4.893939942119999997e-02,-2.307683788240000311e-02,1.000000000000000000e+00
4.551313410000000226e-01,-2.617397836599999916e+00,6.323183176709999964e-01,-9.420777874520000594e+00,-3.741862997409999697e-02,5.298198014499999609e-02,-1.240704581139999950e-02,1.000000000000000000e+00
4.601260830000000190e-01,-2.615579096740000331e+00,6.240607038709999888e-01,-9.421313296570000162e+00,-2.446323074399999950e-02,6.096542254089999668e-02,-1.309661194679999884e-02,1.000000000000000000e+00
4.651273830000000054e-01,-2.639550631699999705e+00,5.813621470140000191e-01,-9.413409976100000520e+00,-4.105830565090000384e-02,5.448576435449999783e-02,-9.233287535610000540e-03,1.000000000000000000e+00
4.701224359999999769e-01,-2.556720372800000085e+00,6.409771326840000283e-01,-9.370389165019998856e+00,-3.613190352919999626e-02,5.549928545950000291e-02,-1.471578516070000051e-02,1.000000000000000000e+00
4.751205279999999864e-01,-2.550135733709999908e+00,6.480338462629999796e-01,-9.372159681830000366e+00,-3.743449971080000521e-02,7.849706709379999925e-02,-1.433758065099999951e-02,1.000000000000000000e+00
4.801266330000000249e-01,-2.581339265750000056e+00,5.703211495719999746e-01,-9.418120638010000434e+00,-3.405422344799999973e-02,6.206959113480000484e-02,1.847063191240000098e-03,1.000000000000000000e+00
4.853315510000000277e-01,-2.521067167880000071e+00,5.069467017709999856e-01,-9.456998942460000279e+00,-3.640116378660000068e-02,5.397727712989999760e-02,-1.327879168090000117e-02,1.000000000000000000e+00
4.901715039999999801e-01,-2.592792387659999864e+00,5.495260892270000808e-01,-9.488096676039999622e+00,-5.502597987649999328e-02,4.689339920880000040e-02,4.193572327489999974e-03,1.000000000000000000e+00
4.951731300000000169e-01,-2.574709618480000017e+00,6.928474590449998916e-01,-9.433346264199998998e+00,-5.611376464369999262e-02,4.659501463169999497e-02,-3.378589637580000065e-03,1.000000000000000000e+00
5.002780260000000423e-01,-2.606190213890000162e+00,6.752827954549999179e-01,-9.408830247100000932e+00,-6.314523518089999732e-02,3.919511288400000237e-02,-4.163695033639999883e-03,1.000000000000000000e+00
5.051927219999999830e-01,-2.554221833979999801e+00,6.167596601420000102e-01,-9.426972052989999185e+00,-6.207437440750000063e-02,3.238729014990000127e-02,-1.975032873450000004e-02,1.000000000000000000e+00
5.103023049999999561e-01,-2.530424486549999852e+00,6.223897019190000046e-01,-9.433881686250000342e+00,-5.348656326530000504e-02,4.092739149930000458e-02,-1.082959957420000056e-02,1.000000000000000000e+00
5.153128529999999596e-01,-2.547786540240000175e+00,5.822659274529999873e-01,-9.412247946589999970e+00,-5.767699331050000350e-02,4.257581382989999996e-02,-1.165821030740000000e-02,1.000000000000000000e+00
5.201845640000000159e-01,-2.563011289640000356e+00,6.102719420909999970e-01,-9.480071775009999868e+00,-4.531442001460000285e-02,3.440311551090000086e-02,-1.129903458060000157e-02,1.000000000000000000e+00
5.251963189999999670e-01,-2.642402514000000036e+00,6.165441907609999772e-01,-9.455354682390000320e+00,-6.566963344809999270e-02,3.066988103090000431e-02,1.376099698249999906e-02,1.000000000000000000e+00
5.301921720000000171e-01,-2.501420218120000261e+00,7.200367870039999785e-01,-9.448183183319999401e+00,-5.494450032710000015e-02,1.597683317960000085e-02,-2.548454515640000487e-02,1.000000000000000000e+00
5.351764869999999785e-01,-2.587124571149999941e+00,7.512271672990000759e-01,-9.404036583080001677e+00,-5.857777968050000006e-02,-8.578535635020000539e-04,-4.242563620210000087e-03,1.000000000000000000e+00
5.401636309999999774e-01,-2.715696882790000544e+00,7.631401618019999500e-01,-9.469722230429999499e+00,-4.851076379420000279e-02,5.414525512610000564e-04,-1.017617760230000003e-03,1.000000000000000000e+00
5.451674340000000063e-01,-2.625099789280000095e+00,7.680326830840000785e-01,-9.426386946579999204e+00,-5.543059855699999927e-02,9.677832014860001178e-03,-9.722256101669999109e-03,1.000000000000000000e+00
5.501527379999999745e-01,-2.620245919509999855e+00,8.328904282460000141e-01,-9.480139579550000306e+00,-5.357269942759999848e-02,1.143685448909999985e-02,-7.023395039140000254e-03,1.000000000000000000e+00
5.551314739999999581e-01,-2.551122114400000029e+00,8.222494995049999256e-01,-9.453948907239999144e+00,-4.159156605599999973e-02,1.814568601550000174e-02,-1.643528230490000006e-02,1.000000000000000000e+00
5.603142909999999643e-01,-2.604300162359999504e+00,7.210838849050000832e-01,-9.458188444510000181e+00,-3.285590559240000180e-02,8.125405758620000626e-03,4.698120988909999969e-03,1.000000000000000000e+00
5.651817890000000455e-01,-2.592458333400000203e+00,6.665861326499999961e-01,-9.433877594589999305e+00,-3.548277169469999520e-02,-5.443106405439999788e-03,1.877350360159999940e-02,1.000000000000000000e+00
5.702696800000000010e-01,-2.522132459020000272e+00,7.070046522779999121e-01,-9.447698614669999273e+00,-4.040769115089999641e-02,1.814769767220000135e-02,-1.672903262079999953e-02,1.000000000000000000e+00
5.753066110000000233e-01,-2.589763687480000076e+00,7.238993807170001071e-01,-9.413654306250000658e+00,-4.308126121759999622e-02,6.283403374250000686e-03,-1.024177391080000055e-02,1.000000000000000000e+00
5.801604500000000497e-01,-2.648979554299999872e+00,7.492213804350000839e-01,-9.395611869079999678e+00,-3.104425780479999619e-02,5.984393879770000951e-03,-1.705610193309999988e-04,1.000000000000000000e+00
5.853400260000000133e-01,-2.612488144989999928e+00,7.967492936759998923e-01,-9.386288744939999873e+00,-3.048947267230000049e-02,-2.581654116510000499e-03,1.000237464900000095e-02,1.000000000000000000e+00
5.901741329999999897e-01,-2.589370011989999831e+00,7.488372764880000254e-01,-9.424162840790000217e+00,-3.586616739630000411e-02,7.420860230920000612e-03,9.159447625280000768e-03,1.000000000000000000e+00
5.951508239999999672e-01,-2.532520582040000079e+00,7.356297851949999966e-01,-9.430584398269999724e+00,-2.837319858370000031e-02,-1.122383773329999924e-02,-1.102332025770000161e-02,1.000000000000000000e+00
6.001646349999999464e-01,-2.544801679209999890e+00,6.935700742309999223e-01,-9.458076800829999797e+00,-3.262715041639999841e-02,7.347015663979999597e-03,2.119658049199999936e-03,1.000000000000000000e+00
6.051272880000000409e-01,-2.568922851770000015e+00,6.544613220269999143e-01,-9.455605442280001327e+00,-3.406377881770000088e-02,4.584174603219999446e-04,1.016282476480000023e-02,1.000000000000000000e+00
6.103022900000000250e-01,-2.566257431950000001e+00,6.913176921940000774e-01,-9.468241636489999280e+00,-2.754515968260000044e-02,-1.332918647679999860e-02,3.713310696179999981e-03,1.000000000000000000e+00
6.151819840000000150e-01,-2.597967452209999806e+00,7.429124895489999103e-01,-9.433980470449998990e+00,-2.382066473359999853e-02,-7.761823013420000514e-03,-8.058408275249999420e-03,1.000000000000000000e+00
6.201835610000000498e-01,-2.656179402679999857e+00,6.731267134000000762e-01,-9.400433590149999574e+00,-2.895631454890000220e-02,-1.589619182049999829e-02,-4.706448409710000530e-03,1.000000000000000000e+00
6.253173680000000401e-01,-2.568430392080000235e+00,6.787522251319999533e-01,-9.402921315319998641e+00,-2.309888973830000192e-02,-6.639168597760000332e-03,-3.350613638760000304e-03,1.000000000000000000e+00
6.301408090000000239e-01,-2.573753048399999965e+00,7.121023407430000507e-01,-9.390544648819998841e+00,-3.034548461440000205e-02,4.050962626930000067e-03,9.551383554940000298e-03,1.000000000000000000e+00
6.351683479999999937e-01,-2.551190211200000224e+00,7.262744392850000175e-01,-9.394755544520000612e+00,-4.064396396280000462e-02,5.342648364600000553e-03,2.021197974679999829e-02,1.000000000000000000e+00
6.401604810000000034e-01,-2.534551795610000102e+00,7.770758943050000145e-01,-9.442302308589999527e+00,-4.620940610770000317e-02,-1.989891054110000043e-03,1.297917962070000049e-02,1.000000000000000000e+00
6.451591869999999673e-01,-2.566976101609999894e+00,7.286073392120000491e-01,-9.417408690349999389e+00,-4.883347824219999578e-02,-2.029906585809999886e-02,1.032932847740000021e-02,1.000000000000000000e+00
6.501531950000000171e-01,-2.626737327359999874e+00,7.513981399519998883e-01,-9.414994614950000340e+00,-4.229648783800000339e-02,7.307438179850000645e-03,1.393184438349999964e-02,1.000000000000000000e+00
6.550762999999999447e-01,-2.536290748229999892e+00,7.618268141809999561e-01,-9.412712641489999754e+00,-3.293531388040000368e-02,-6.291118450460000087e-03,1.360341906549999980e-02,1.000000000000000000e+00
6.601289710000000088e-01,-2.566983115879999833e+00,7.856785952159999198e-01,-9.420198028810000679e+00,-2.435852587220000212e-02,-6.988341920080000326e-05,1.080695725979999820e-02,1.000000000000000000e+00
6.651274019999999787e-01,-2.539929396999999867e+00,7.499199571579999724e-01,-9.426098192759999606e+00,-4.737716540689999867e-02,-1.785095222290000033e-02,-2.421520650389999592e-03,1.000000000000000000e+00
6.701324269999999750e-01,-2.556768888120000138e+00,7.472454772519999677e-01,-9.443929033010000751e+00,-3.160992637279999573e-02,-4.699573852119999853e-03,1.301680691540000115e-02,1.000000000000000000e+00
6.753061059999999616e-01,-2.542786832250000018e+00,7.976394474490000608e-01,-9.403060431529999263e+00,-3.901425749060000170e-02,-1.819308474659999883e-02,9.601429104800000142e-03,1.000000000000000000e+00
6.801370180000000376e-01,-2.552039813769999999e+00,7.966587658490000834e-01,-9.390320776939999448e+00,-4.231963306669999508e-02,-1.239476352929999754e-02,-3.119854489340000408e-03,1.000000000000000000e+00
6.851276020000000022e-01,-2.572850254340000031e+00,7.486378083930000926e-01,-9.432366605510001278e+00,-1.931194961069999938e-02,-3.117614425720000026e-02,5.909903440619999025e-03,1.000000000000000000e+00
6.901177349999999544e-01,-2.562941439270000288e+00,7.476696209479999355e-01,-9.402816101380000902e+00,-2.844019047920000320e-02,-1.183745544400000016e-02,1.479799672960000097e-02,1.000000000000000000e+00
6.951273620000000264e-01,-2.560344116250000024e+00,7.402013308939999758e-01,-9.443177337859999909e+00,-3.862936422230000416e-02,-4.129714518790000150e-02,1.981712318959999788e-02,1.000000000000000000e+00
7.001864519999999592e-01,-2.552583126860000107e+00,7.904278355699999592e-01,-9.414724565830001168e+00,-4.491454735399999509e-02,-1.957915723320000079e-02,1.766249351199999928e-02,1.000000000000000000e+00
7.051480260000000388e-01,-2.623705704570000297e+00,7.976888395489999395e-01,-9.426085333280001421e+00,-4.321483895179999840e-02,-2.197692170739999964e-02,2.009312435979999922e-02,1.000000000000000000e+00
7.103015790000000163e-01,-2.577299342709999941e+00,7.632569200499998985e-01,-9.404203756339999387e+00,-3.749303892249999937e-02,-2.738278545440000003e-02,1.691288128500000043e-02,1.000000000000000000e+00
7.153229199999999732e-01,-2.529786480909999913e+00,9.113724288089999348e-01,-9.454557394530000991e+00,-3.065836057070000023e-02,-4.068350419399999890e-02,1.689267531040000020e-02,1.000000000000000000e+00
7.201867610000000086e-01,-2.537883570380000009e+00,8.939257655760001198e-01,-9.416886127779999782e+00,-3.138677775859999991e-02,-2.795161306859999736e-02,1.114310510460000091e-02,1.000000000000000000e+00
7.253224900000000419e-01,-2.635048351840000080e+00,8.201075190409999882e-01,-9.439988770950000330e+00,-3.087003342809999801e-02,-2.812369912860000071e-02,3.660923242569999458e-02,1.000000000000000000e+00
7.301781630000000467e-01,-2.564834997929999805e+00,7.921887077629999885e-01,-9.375958489589999445e+00,-4.843130707740000290e-02,-5.417115986349999718e-02,1.577869057659999838e-02,1.000000000000000000e+00
7.351842050000000350e-01,-2.498917879910000028e+00,8.608961871549999367e-01,-9.358506419530000286e+00,-3.021928295489999944e-02,-5.601160973310000124e-02,2.293223142619999974e-02,1.000000000000000000e+00
7.401364820000000400e-01,-2.477178634049999939e+00,8.479506347340000083e-01,-9.475623563430000118e+00,-3.256586939100000050e-02,-4.668618738649999572e-02,2.421524934470000237e-02,1.000000000000000000e+00
7.451593429999999740e-01,-2.480617960850000081e+00,7.552561305539999825e-01,-9.476599130469999466e+00,-1.854946464300000208e-02,-6.847308576109999156e-02,1.429537311200000139e-02,1.000000000000000000e+00
7.501527049999999752e-01,-2.463921093070000179e+00,8.138090764839999158e-01,-9.433715682029999883e+00,-1.820629276340000186e-02,-7.309141755100000137e-02,1.043877936899999942e-02,1.000000000000000000e+00
7.563604430000000489e-01,-2.461323477790000158e+00,9.916618441189999356e-01,-9.492702708530000422e+00,-2.379997633400000173e-02,-7.761330902580000635e-02,1.335469074550000093e-02,1.000000000000000000e+00
7.601220899999999725e-01,-2.475549863799999972e+00,9.202773275369999784e-01,-9.507946454889999899e+00,-2.510893624280000243e-03,-7.828040421010000471e-02,7.045719306919999599e-03,1.000000000000000000e+00
7.653115129999999988e-01,-2.535293553890000329e+00,8.158486925519999877e-01,-9.503152790870000644e+00,2.625902928409999670e-02,-8.783902972939999776e-02,2.278220374139999869e-03,1.000000000000000000e+00
7.703232890000000221e-01,-2.533464584899999927e+00,7.698411207459999739e-01,-9.455364619260000936e+00,2.770450711250000211e-02,-1.020608246330000080e-01,1.157671678810000054e-03,1.000000000000000000e+00
7.751756109999999866e-01,-2.543118256170000091e+00,7.441598592610000340e-01,-9.391310957019999961e+00,2.450218051670000063e-02,-8.782135695219998872e-02,1.459074392909999983e-02,1.000000000000000000e+00
7.801583469999999743e-01,-2.465027593009999851e+00,8.021246300390000306e-01,-9.407501628839998631e+00,3.726663067939999657e-02,-1.080464050170000107e-01,1.368444785479999877e-02,1.000000000000000000e+00
7.851751259999999455e-01,-2.421437165349999976e+00,8.963910597109999712e-01,-9.489580777110001364e+00,4.105751961469999295e-02,-1.047159731389999959e-01,1.622038334610000077e-02,1.000000000000000000e+00
7.903093650000000414e-01,-2.387435527020000059e+00,7.953846542600000458e-01,-9.471436048610000213e+00,4.816495254639999862e-02,-1.247002780440000097e-01,9.778192266819999909e-03,1.000000000000000000e+00
7.951586149999999575e-01,-2.512176589930000148e+00,6.697018535180000454e-01,-9.463080308200000346e+00,5.737944692369999211e-02,-1.232587024570000050e-01,2.015545032920000243e-02,1.000000000000000000e+00
8.001710229999999813e-01,-2.495650110290000168e+00,6.614294074740000307e-01,-9.460386831330000135e+00,5.816796049480000425e-02,-1.585922837260000107e-01,1.780932210390000214e-02,1.000000000000000000e+00
8.052641799999999961e-01,-2.453699266520000144e+00,6.799344937190000548e-01,-9.492375960789999567e+00,5.696154758330000678e-02,-1.768483519550000105e-01,2.959272451700000264e-02,0.000000000000000000e+00
8.103046369999999943e-01,-2.344852084449999818e+00,8.047862504639999859e-01,-9.606227380900000057e+00,7.133248448369999828e-02,-1.740752905609999901e-01,2.088975906370000094e-02,0.000000000000000000e+00
8.153129590000000038e-01,-2.454910103620000061e+00,8.443365358900000173e-01,-9.595311434610000134e+00,7.061550021170000246e-02,-1.832034289840000219e-01,3.937910124659999705e-02,0.000000000000000000e+00
8.201820060000000190e-01,-2.442453357629999822e+00,7.019241341429999226e-01,-9.575172901939998482e+00,7.272717356680000189e-02,-2.105367332699999983e-01,3.027991019190000299e-02,0.000000000000000000e+00
8.253193810000000186e-01,-2.441172670170000281e+00,5.828703596200000003e-01,-9.572956394940000280e+00,6.772413104770000358e-02,-2.116493731740000106e-01,3.847265988589999852e-02,0.000000000000000000e+00
8.301634249999999549e-01,-2.586703423129999901e+00,7.249661331649999152e-01,-9.563047579860000980e+00,6.842101365330000018e-02,-2.420189529659999839e-01,5.500916391610000122e-02,0.000000000000000000e+00
8.353073619999999977e-01,-2.585074360620000178e+00,8.792880953489999873e-01,-9.612126960330000358e+00,5.927112326029999878e-02,-2.745957672600000121e-01,5.430834740399999305e-02,0.000000000000000000e+00
8.403016110000000038e-01,-2.712792978040000413e+00,9.572820201339999890e-01,-9.580743395549999875e+00,6.688801944260000520e-02,-2.817853689189999677e-01,6.085875257849999997e-02,0.000000000000000000e+00
8.453100559999999764e-01,-2.779601199690000524e+00,8.863687012600000026e-01,-9.571231470839999034e+00,6.507052481169998959e-02,-2.839216887950000157e-01,4.843880236149999963e-02,0.000000000000000000e+00
8.501596489999999617e-01,-2.813396209520000024e+00,8.446576576029999339e-01,-9.578243395430000362e+00,9.939356148240000022e-02,-2.789850234990000066e-01,5.589121580120000321e-02,0.000000000000000000e+00
8.551266050000000396e-01,-2.822179819960000113e+00,8.813421052689999202e-01,-9.612245033749999834e+00,1.097489669919999994e-01,-2.727686464790000098e-01,5.279526859519999282e-02,0.000000000000000000e+00
8.603067949999999575e-01,-2.867176022759999832e+00,8.640468332060000645e-01,-9.564508300069999081e+00,1.110854372380000038e-01,-2.982850968840000117e-01,5.371143296360000180e-02,0.000000000000000000e+00
8.651575339999999503e-01,-2.742804085419999982e+00,7.649179851299999777e-01,-9.569135959869999652e+00,1.310617476700000061e-01,-2.989342212680000110e-01,4.282340407369999991e-02,0.000000000000000000e+00
8.701706169999999796e-01,-2.809912166800000222e+00,6.608463468890000136e-01,-9.644227148949999773e+00,1.329217851160000019e-01,-3.014702796939999763e-01,5.726870149369999580e-02,0.000000000000000000e+00
8.751565390000000111e-01,-2.745411637570000174e+00,5.048822800540000433e-01,-9.637584057669998927e+00,1.282572448250000052e-01,-3.124456703660000167e-01,6.748557090760000376e-02,0.000000000000000000e+00
8.801589050000000469e-01,-2.756507032080000030e+00,5.750706821869999708e-01,-9.646897244939999894e+00,1.262362897400000072e-01,-3.246257603170000228e-01,7.053919136519999633e-02,0.000000000000000000e+00
8.853258870000000336e-01,-2.741211555540000067e+00,5.013888484480000240e-01,-9.631417936260000090e+00,1.193487718700000089e-01,-3.390003144740000307e-01,7.563405483960000675e-02,0.000000000000000000e+00
8.901852070000000339e-01,-2.757825421209999739e+00,5.891945942049999774e-01,-9.658160981749999152e+00,1.097813323140000019e-01,-3.616298735140000553e-01,8.692569285630000198e-02,0.000000000000000000e+00
8.953064739999999633e-01,-2.821587114760000237e+00,6.165647220919999727e-01,-9.552250876040000449e+00,1.025248095390000058e-01,-4.047231078149999828e-01,9.038680046800000312e-02,0.000000000000000000e+00
9.001851339999999979e-01,-2.839054382390000075e+00,4.027876409749999720e-01,-9.654320088420000445e+00,1.127524599429999969e-01,-3.954851627350000065e-01,9.958713501690000247e-02,0.000000000000000000e+00
9.052473149999999968e-01,-2.695565072129999962e+00,4.757057603329999940e-01,-9.700122639169999061e+00,1.095576882359999976e-01,-3.945207297800000235e-01,9.716837853189999596e-02,0.000000000000000000e+00
9.101720039999999790e-01,-2.543186937490000243e+00,6.712402420659999702e-01,-1.040859181100000086e+01,1.010690182450000030e-01,-4.066098630430000083e-01,9.397747367620000458e-02,0.000000000000000000e+00
9.152759750000000194e-01,-2.834661115869999914e+00,4.922716221429999650e-01,-9.752153270660000928e+00,8.631283789869999279e-02,-4.428885281090000348e-01,1.109274253250000092e-01,0.000000000000000000e+00
9.201811479999999488e-01,-2.712490780230000009e+00,5.071439779080000321e-01,-9.920697234940000442e+00,8.183237910269999804e-02,-4.487775564190000233e-01,1.112594753499999978e-01,0.000000000000000000e+00
9.253067550000000363e-01,-2.777053268770000471e+00,4.496416370100000393e-01,-9.988044678030000512e+00,1.006283611059999999e-01,-4.852047860620000153e-01,1.196575164789999979e-01,0.000000000000000000e+00
9.301688919999999694e-01,-2.646211843150000131e+00,6.088037327019999445e-01,-9.838038825479999971e+00,1.144841536879999955e-01,-5.164775252340000344e-01,1.093221157790000009e-01,0.000000000000000000e+00
9.353153640000000379e-01,-2.493356154129999780e+00,7.384140821510000174e-01,-1.028997829110000062e+01,1.632336378099999985e-01,-5.527643561360000568e-01,1.472366303209999838e-01,0.000000000000000000e+00
9.401954019999999579e-01,-1.343762779029999965e+00,9.451426695290000568e-01,-1.080564700930000122e+01,2.080372720960000088e-01,-5.849623084070000312e-01,1.826695948840000028e-01,0.000000000000000000e+00
9.452921610000000197e-01,-2.739906318159999632e+00,1.303374946799999989e+00,-9.672543142849999498e+00,2.252501249309999953e-01,-7.159888148309999645e-01,9.742672741410000892e-02,0.000000000000000000e+00
9.501467959999999602e-01,-3.183782012049999999e+00,5.486855832820000112e-01,-9.696146136750000366e+00,2.533685266969999961e-01,-7.596239447589999694e-01,1.208069473509999908e-01,0.000000000000000000e+00
9.551735679999999729e-01,-3.028659547139999741e+00,6.007048531270000602e-01,-1.024437623140000042e+01,2.194820791479999977e-01,-8.427165746690000736e-01,1.124135330320000098e-01,0.000000000000000000e+00
9.601459159999999882e-01,-2.363899607000000014e+00,1.481266877400000181e+00,-1.036725909919999999e+01,2.131763696669999875e-01,-8.435657024379999980e-01,7.107394933699999473e-02,0.000000000000000000e+00
9.653210490000000421e-01,-2.196901849250000094e+00,1.911992436209999813e+00,-1.081874263769999978e+01,2.273514717819999920e-01,-8.733397126200000971e-01,4.585846140980000263e-02,0.000000000000000000e+00
9.703199900000000211e-01,-2.166202321210000115e+00,1.720151182970000248e+00,-1.073629933229999978e+01,2.433017194269999905e-01,-9.156880378720000380e-01,-1.452750898899999969e-02,0.000000000000000000e+00
9.751780859999999995e-01,-2.440726095440000076e+00,1.192749722200000084e+00,-1.076179150099999937e+01,2.250778675079999902e-01,-1.011387586589999943e+00,-6.834515929219998898e-02,0.000000000000000000e+00
9.803161750000000119e-01,-2.436659868920000083e+00,1.344906542240000169e+00,-1.088402788760000028e+01,1.978284418579999981e-01,-1.113309502599999945e+00,-9.091110527519999374e-02,0.000000000000000000e+00
9.853249870000000410e-01,-2.485098613390000377e+00,1.806008534609999883e+00,-1.109432951109999976e+01,2.358183413740000123e-01,-1.239735364910000026e+00,-1.189034804700000031e-01,0.000000000000000000e+00
9.903016270000000176e-01,-2.013029382929999667e+00,1.888333474340000206e+00,-1.113559324940000117e+01,2.669992148879999916e-01,-1.353904843330000052e+00,-1.344767361879999901e-01,0.000000000000000000e+00
9.952899139999999978e-01,-2.101746654049999830e+00,1.786487110930000011e+00,-1.129878591579999991e+01,3.332386016849999688e-01,-1.471199631690000009e+00,-1.993254721159999909e-01,0.000000000000000000e+00
1.000126426000000013e+00,-2.333735793279999804e+00,1.123782934279999868e+00,-1.138030684569999984e+01,4.039077162740000171e-01,-1.562384366989999940e+00,-2.215030044319999947e-01,0.000000000000000000e+00
1.005228605000000108e+00,-2.035422854920000191e+00,5.239802906910000502e-01,-1.158171789130000029e+01,4.323879778390000150e-01,-1.680483222010000111e+00,-2.597738802430000216e-01,0.000000000000000000e+00
1.010141594999999892e+00,-2.039089999120000218e+00,-1.798226612030000005e-01,-1.191339314720000075e+01,3.921454250810000319e-01,-1.834246873859999738e+00,-2.460527569060000086e-01,0.000000000000000000e+00
1.015301320000000063e+00,-1.853562312949999846e+00,-5.317566603130000624e-01,-1.211409341420000096e+01,3.306686282160000157e-01,-1.955695867540000021e+00,-2.542191743849999686e-01,0.000000000000000000e+00
1.020187578999999900e+00,-1.849646016290000139e+00,-7.379558169890000352e-01,-1.202662438950000023e+01,2.496639937159999822e-01,-2.100720167159999985e+00,-2.623883187770000291e-01,0.000000000000000000e+00
1.025318619000000098e+00,-2.051381325419999957e+00,-2.425956104069999952e+00,-1.248478667520000052e+01,1.755008846520000054e-01,-2.263677120210000115e+00,-2.001572549339999951e-01,0.000000000000000000e+00
1.030174753000000054e+00,-2.294615935159999509e+00,-3.519833875569999826e+00,-1.238818157349999893e+01,4.134994000199999908e-02,-2.404975414279999946e+00,-1.212171539660000102e-01,0.000000000000000000e+00
1.035280913000000025e+00,-2.124178119949999832e+00,-2.648996797700000183e+00,-1.217995850970000049e+01,-1.080639660359999921e-01,-2.534978866579999934e+00,-5.752530694009999612e-02,0.000000000000000000e+00
1.040189927999999986e+00,-2.227357047140000379e+00,-1.662743388490000029e+00,-1.209591244529999976e+01,-2.984587550159999991e-01,-2.713186264040000406e+00,-2.570470422509999950e-02,0.000000000000000000e+00
1.045318538999999936e+00,-2.334871373179999932e+00,-1.582684201740000018e+00,-1.197318856739999937e+01,-4.858990013600000824e-01,-2.850393056870000219e+00,-2.316699828949999977e-03,0.000000000000000000e+00
1.050146843999999913e+00,-2.474713705240000117e+00,-1.444314572579999956e+00,-1.198451426359999950e+01,-6.159239411350000415e-01,-2.994677066800000009e+00,2.924146316949999963e-02,0.000000000000000000e+00
1.055231169000000024e+00,-2.874609679900000270e+00,-1.315284434170000072e+00,-1.209092179740000006e+01,-6.824694275859999326e-01,-3.164581298829999945e+00,5.096724256869999969e-02,0.000000000000000000e+00
1.060286848999999920e+00,-3.103920247570000512e+00,-1.375997407680000117e+00,-1.230052550180000104e+01,-7.418121695520000225e-01,-3.334738492969999690e+00,1.148250922560000026e-01,0.000000000000000000e+00
1.065303067000000103e+00,-3.104378512729999873e+00,-1.066240918959999950e+00,-1.212410276700000011e+01,-7.848232388500000489e-01,-3.496431589130000628e+00,1.636410057540000074e-01,0.000000000000000000e+00
1.070155750999999933e+00,-2.939638909170000147e+00,-7.365444888869999707e-01,-1.204223696920000108e+01,-8.455756306649999665e-01,-3.649577617649999883e+00,2.062620669599999901e-01,0.000000000000000000e+00
1.075304156000000066e+00,-3.177460700080000144e+00,-7.527499929520000688e-01,-1.234544484000000075e+01,-9.246224761010000126e-01,-3.813293933869999819e+00,2.798424959179999782e-01,0.000000000000000000e+00
1.080318120000000048e+00,-4.285555505229999618e+00,-1.016516664720000129e+00,-1.181670504329999893e+01,-1.026140213009999913e+00,-3.975118875500000204e+00,3.522120714190000168e-01,0.000000000000000000e+00
1.085180915000000024e+00,-5.472116821109999307e+00,-1.669229097249999905e+00,-1.160871929550000026e+01,-1.105089545250000027e+00,-4.105459213259999629e+00,4.038852155210000405e-01,0.000000000000000000e+00
1.090128551999999917e+00,-6.362578052379999960e+00,-3.023397973349999823e+00,-1.231616263140000100e+01,-1.196118712429999897e+00,-4.151554107669999993e+00,4.594288468359999933e-01,0.000000000000000000e+00
1.095257029000000104e+00,-7.181660393099999595e+00,-4.597631157609999519e+00,-1.292195761079999983e+01,-1.299989819529999924e+00,-4.168025016780000591e+00,6.089654564859999786e-01,0.000000000000000000e+00
1.100183249999999946e+00,-8.042993729560000915e+00,-5.290379613259999836e+00,-1.273205112499999991e+01,-1.417788863179999970e+00,-4.139180183409999714e+00,8.251494765279999699e-01,0.000000000000000000e+00
1.105178106000000104e+00,-9.034170420510001520e+00,-4.681898463580000502e+00,-1.296273970299999867e+01,-1.600234746929999785e+00,-4.015030384059999236e+00,9.979786872859999214e-01,0.000000000000000000e+00
1.110256152000000052e+00,-1.023692708440000132e+01,-3.999987043760000027e+00,-1.277009531670000086e+01,-1.906865715979999987e+00,-3.858778953550000335e+00,1.125463724139999844e+00,0.000000000000000000e+00
1.115226040000000030e+00,-1.022953054440000109e+01,-4.606567912780000995e+00,-1.152860121809999860e+01,-2.226214647289999959e+00,-3.729010820390000536e+00,1.250268340110000098e+00,0.000000000000000000e+00
1.120172912999999992e+00,-9.269058203789999340e+00,-2.929717526870000199e+00,-1.176558977310000031e+01,-2.530879020690000036e+00,-3.462050914760000264e+00,1.306479811670000046e+00,0.000000000000000000e+00
1.125264218000000094e+00,-8.630392051459999436e+00,-2.737294966609999936e+00,-1.158954230130000163e+01,-2.742546558379999944e+00,-3.164627552030000235e+00,1.282093405720000190e+00,0.000000000000000000e+00
1.130128207000000051e+00,-1.075503676599999991e+01,-2.995656564470000394e+00,-1.209516776440000108e+01,-2.968406438830000216e+00,-2.943401575090000222e+00,1.237918496129999824e+00,0.000000000000000000e+00
1.135288043000000080e+00,-1.019799091229999988e+01,-1.775161707059999650e+00,-1.501757379920000091e+01,-3.089924812320000047e+00,-2.555074214940000310e+00,1.171477317809999974e+00,0.000000000000000000e+00
1.140175603000000093e+00,-8.340884204720000028e+00,-1.338344991759999880e+00,-1.394499016019999971e+01,-3.116664648059999987e+00,-2.178301334379999954e+00,1.086130619049999968e+00,0.000000000000000000e+00
1.145141286999999952e+00,-6.717325556280000498e+00,-1.275709671890000063e+00,-1.210191782319999909e+01,-2.980562686920000370e+00,-1.672053813930000077e+00,9.588735103609999921e-01,0.000000000000000000e+00
1.150305388999999900e+00,-4.998239079930000273e+00,-1.510966873010000100e+00,-1.061227781590000063e+01,-2.757941722870000056e+00,-1.073096394540000054e+00,8.892174363140000759e-01,0.000000000000000000e+00
1.155175754999999915e+00,-2.429654958590000469e+00,-1.843872547449999955e+00,-9.671922380599999869e+00,-2.499050855640000179e+00,-5.608339309690000274e-01,8.050186038019999657e-01,0.000000000000000000e+00
1.160312110000000008e+00,3.283588978579999873e-01,-2.623852711830000128e+00,-8.814361548409999969e+00,-2.247732162479999740e+00,-1.376776844260000077e-01,6.581526994709999689e-01,0.000000000000000000e+00
1.165172046999999989e+00,-8.657122091349999105e-01,-1.592106986859999962e+00,-6.079745445619999522e+00,-2.041669368740000046e+00,-4.612166807059999568e-02,3.568309247490000224e-01,0.000000000000000000e+00
1.170318219000000104e+00,-2.263152875399999875e+00,4.368318397979999990e-01,-8.983979863929999254e+00,-1.692443728450000018e+00,-9.170416742560001666e-02,-6.154868751759999534e-02,0.000000000000000000e+00
1.175299555999999912e+00,-3.279439019300000258e+00,-1.387212921439999969e+00,-1.075718313039999963e+01,-1.420889616010000189e+00,4.568794742229998970e-03,-3.705036342140000105e-01,0.000000000000000000e+00
1.180121878000000013e+00,-1.319426210150000056e+00,-3.120029086330000201e+00,-1.014671197590000062e+01,-1.027657032010000027e+00,2.828486263749999674e-01,-6.213284134859999863e-01,0.000000000000000000e+00
1.185330926000000007e+00,2.252788644709999843e-01,-2.984051466870000446e+00,-8.421012803450000916e+00,-7.663149833679999690e-01,5.827146768569999580e-01,-7.700521945949999614e-01,0.000000000000000000e+00
1.190308221000000000e+00,9.799215027689999191e-01,-2.882393173380000118e+00,-7.362632461799999639e+00,-7.284218072889999673e-01,7.815964818000000758e-01,-9.221658110619999071e-01,0.000000000000000000e+00
1.195155406999999892e+00,1.666070633219999930e+00,-4.312566261749999796e+00,-6.975064053789999718e+00,-8.061524033550000468e-01,8.172529935840000537e-01,-1.052937507630000047e+00,0.000000000000000000e+00
1.200188695000000028e+00,2.296773113189999993e+00,-4.725097553830000408e+00,-6.713246762529999856e+00,-9.167529344560000348e-01,7.726935148239999496e-01,-1.211852192879999901e+00,0.000000000000000000e+00
1.205230680000000110e+00,2.142911315870000166e+00,-3.952409300030000239e+00,-6.245616975819999972e+00,-9.687492847440000165e-01,6.337463259699999130e-01,-1.325850009920000128e+00,0.000000000000000000e+00
1.210308595000000098e+00,1.473542566759999950e+00,-2.786968221320000438e+00,-6.144525084049999641e+00,-9.697242379189999761e-01,5.788609385490000037e-01,-1.446548223500000008e+00,0.000000000000000000e+00
1.215272676999999968e+00,1.657995317179999928e+00,-2.127013927899999768e+00,-6.127090549640000106e+00,-9.959961771969999544e-01,4.851295053959999715e-01,-1.608937621120000161e+00,0.000000000000000000e+00
1.220199291999999991e+00,9.795758311369999749e-01,-1.846833881470000049e+00,-6.283337342409999415e+00,-9.617953300480001078e-01,5.158935189250000164e-01,-1.709527850149999750e+00,0.000000000000000000e+00
1.225166283999999939e+00,4.792772986759999965e-01,-1.935924808200000014e+00,-6.585068126390000387e+00,-9.235763549800000138e-01,6.155667304990000144e-01,-1.773277044300000105e+00,0.000000000000000000e+00
1.230303981000000046e+00,1.842652284939999829e-01,-1.778186315579999954e+00,-6.720013187930000242e+00,-8.515588641169999917e-01,8.155340552330000436e-01,-1.786340713500000010e+00,0.000000000000000000e+00
1.235319579000000001e+00,2.699734174500000305e-01,-1.579624521910000245e+00,-7.101244794119999426e+00,-8.030244112010000990e-01,9.407293796539999420e-01,-1.792897939679999997e+00,0.000000000000000000e+00
1.240192190999999999e+00,4.274532591430000306e-01,-1.529138635650000078e+00,-7.416680278330000320e+00,-7.520152330399999530e-01,1.032578468320000109e+00,-1.834300279620000085e+00,0.000000000000000000e+00
1.245312685999999891e+00,4.517087986729999560e-01,-1.666638203970000065e+00,-7.509198403019999191e+00,-7.451245784759999990e-01,1.115676164629999967e+00,-1.899093389509999730e+00,0.000000000000000000e+00
1.250300514999999946e+00,2.891767150919999918e-01,-1.606313353000000221e+00,-7.466350025900000631e+00,-7.289403676989999470e-01,1.244050264359999991e+00,-1.947328209879999994e+00,0.000000000000000000e+00
1.255228350999999964e+00,4.421015786280000498e-02,-1.439440390669999958e+00,-7.499371421020000206e+00,-7.198522686959999417e-01,1.374670028689999768e+00,-1.959309816359999790e+00,0.000000000000000000e+00
1.260322989000000060e+00,4.684232386419999450e-02,-1.341328829879999907e+00,-7.468911400820000601e+00,-7.040756344799999900e-01,1.547594666479999992e+00,-2.013812541959999702e+00,0.000000000000000000e+00
1.265307224999999924e+00,1.934106214470000112e-02,-1.288255995860000169e+00,-7.387888483600000278e+00,-7.108122110369999858e-01,1.698115229609999943e+00,-2.056504487990000296e+00,0.000000000000000000e+00
1.270307937000000109e+00,1.046177278159999974e-01,-1.216568112420000070e+00,-7.311275199519999823e+00,-6.930586695670000186e-01,1.838357925419999983e+00,-2.090921640399999948e+00,0.000000000000000000e+00
1.275310151000000003e+00,2.081951710649999898e-01,-1.081590317649999911e+00,-7.216486207280000009e+00,-6.727589964869999939e-01,1.927693247799999954e+00,-2.139533042909999683e+00,0.000000000000000000e+00
1.280158517000000051e+00,1.838503458170000215e-01,-1.005703740409999991e+00,-7.115045940459999940e+00,-6.474545001979999936e-01,1.992945432659999794e+00,-2.183677673340000069e+00,0.000000000000000000e+00
1.285092421999999956e+00,9.165246604730001301e-02,-9.993729299529999777e-01,-7.113283606960001393e+00,-6.157870888710000878e-01,2.080978631969999881e+00,-2.230353593829999870e+00,0.000000000000000000e+00
1.290322079000000066e+00,-1.615027770659999973e-01,-9.326834393200000850e-01,-7.211189269920000200e+00,-5.953493714329999298e-01,2.140339851379999825e+00,-2.277570962909999608e+00,0.000000000000000000e+00
1.295169250000000050e+00,-4.591056309260000412e-01,-9.709350632369999623e-01,-7.338287125089999030e+00,-5.447578430180000097e-01,2.212283611299999730e+00,-2.300439357759999748e+00,0.000000000000000000e+00
1.300128967000000024e+00,-7.395412595499999409e-01,-1.064960231499999965e+00,-7.594525739439998979e+00,-5.161632299420000347e-01,2.305163860319999980e+00,-2.316179752350000065e+00,0.000000000000000000e+00
1.305185373000000038e+00,-1.065835626089999932e+00,-1.155414993930000023e+00,-7.888658907889999128e+00,-5.145805478100000663e-01,2.364456176760000083e+00,-2.348933935170000264e+00,0.000000000000000000e+00
1.310125246999999993e+00,-1.497678206239999810e+00,-1.201738865140000057e+00,-8.166571593909999649e+00,-4.913875460620000246e-01,2.436743736269999960e+00,-2.342394828799999829e+00,0.000000000000000000e+00
1.315125274999999982e+00,-1.714217116750000214e+00,-1.191343435600000111e+00,-8.448836045400000216e+00,-4.998871386050000032e-01,2.526878833770000110e+00,-2.357703685759999779e+00,0.000000000000000000e+00
1.320119277000000091e+00,-1.983245800700000006e+00,-1.135568868339999815e+00,-8.837156148550000978e+00,-5.140454173089999967e-01,2.615578889850000088e+00,-2.355509281159999802e+00,0.000000000000000000e+00
1.325152847000000023e+00,-2.308721325140000502e+00,-1.096625170500000079e+00,-9.141890790519999754e+00,-5.284663438800000224e-01,2.724811553959999522e+00,-2.347495317459999953e+00,0.000000000000000000e+00
1.330049929999999936e+00,-2.750610083000000206e+00,-1.078663251220000063e+00,-9.272589300529999079e+00,-5.294654369349999223e-01,2.869496822359999921e+00,-2.290025711059999747e+00,0.000000000000000000e+00
1.335096802000000027e+00,-2.911101965990000373e+00,-1.076151341470000133e+00,-9.329539268239999572e+00,-5.214573144910000790e-01,2.954726696010000264e+00,-2.238638639449999967e+00,0.000000000000000000e+00
1.340174366999999922e+00,-3.081604078600000296e+00,-1.132624631579999930e+00,-9.451603805419999560e+00,-5.042844414710000445e-01,3.062674283979999856e+00,-2.168208599090000188e+00,0.000000000000000000e+00
1.345159977000000007e+00,-3.183083508389999761e+00,-1.249643210479999933e+00,-9.545622982330000283e+00,-4.990422427650000325e-01,3.143193244929999519e+00,-2.096905708309999561e+00,0.000000000000000000e+00
1.350140754000000110e+00,-3.377037808259999885e+00,-1.373895174699999888e+00,-9.663728552749999423e+00,-4.897319972519999509e-01,3.204893589020000100e+00,-1.994533181190000226e+00,0.000000000000000000e+00
1.355306866000000054e+00,-3.499427047350000208e+00,-1.478468478849999990e+00,-9.842925428470000071e+00,-4.960450232029999795e-01,3.251742362979999967e+00,-1.896152377129999955e+00,0.000000000000000000e+00
1.360158940000000038e+00,-3.759548056090000312e+00,-1.536654856489999998e+00,-1.006814054350000021e+01,-4.869408607479999707e-01,3.277996540070000187e+00,-1.788382410999999950e+00,0.000000000000000000e+00
1.365146970999999931e+00,-4.053313560280000338e+00,-1.431345931539999894e+00,-1.026918450940000049e+01,-4.671573042869999748e-01,3.311759710309999605e+00,-1.700022459029999933e+00,0.000000000000000000e+00
1.370153288000000025e+00,-4.363212160880000745e+00,-1.155039657809999953e+00,-1.050364442269999898e+01,-4.476765990259999883e-01,3.343621253970000318e+00,-1.623100638389999961e+00,0.000000000000000000e+00
1.375149860999999918e+00,-4.644328026850000235e+00,-1.138793383339999910e+00,-1.066396708659999959e+01,-3.802340626719999950e-01,3.382710933690000310e+00,-1.541560292240000019e+00,0.000000000000000000e+00
1.380124337000000034e+00,-4.778661970759999988e+00,-1.209754048490000011e+00,-1.109873914430000141e+01,-3.440238237380000008e-01,3.453376054760000091e+00,-1.475606560710000181e+00,0.000000000000000000e+00
1.385165179999999996e+00,-5.038309224509999851e+00,-1.356191760229999987e+00,-1.135520279960000067e+01,-2.930895090100000266e-01,3.492648363109999821e+00,-1.403957486150000156e+00,0.000000000000000000e+00
1.390185326999999971e+00,-5.360041763029999906e+00,-1.623896063699999948e+00,-1.149437044719999967e+01,-2.220614999529999800e-01,3.532040834430000054e+00,-1.327737927440000076e+00,0.000000000000000000e+00
1.395167186999999975e+00,-5.605937847059999868e+00,-1.941603292229999944e+00,-1.163020281300000036e+01,-1.693979203700000102e-01,3.563194990159999520e+00,-1.275253415110000121e+00,0.000000000000000000e+00
1.400129241999999996e+00,-5.805129463060000106e+00,-2.294979946159999784e+00,-1.172445579869999932e+01,-1.331268250940000064e-01,3.576026201249999925e+00,-1.222033739090000015e+00,0.000000000000000000e+00
1.405299021999999898e+00,-5.876299094780000232e+00,-2.630456932400000003e+00,-1.164663956849999948e+01,-1.335622817279999985e-01,3.582441806790000349e+00,-1.199290037160000155e+00,0.000000000000000000e+00
1.410312497999999914e+00,-6.054583531840000532e+00,-3.045684039440000213e+00,-1.173266131699999981e+01,-1.093724742530000071e-01,3.544386863709999780e+00,-1.178184390070000198e+00,0.000000000000000000e+00
1.415295482999999965e+00,-6.206927471940000274e+00,-3.522213464180000475e+00,-1.176839664719999945e+01,-1.241249889140000062e-01,3.517947673799999730e+00,-1.188146233560000153e+00,0.000000000000000000e+00
1.420180935000000089e+00,-6.333029886340000303e+00,-3.947052741429999845e+00,-1.186065641319999919e+01,-1.460639983420000121e-01,3.468033075330000603e+00,-1.220887303349999842e+00,0.000000000000000000e+00
1.425315353000000007e+00,-6.600431115210000144e+00,-4.235931934879999972e+00,-1.194551613209999985e+01,-1.609360426660000065e-01,3.428744077680000224e+00,-1.246119618420000075e+00,0.000000000000000000e+00
1.430273378000000095e+00,-6.683530838700000309e+00,-4.282771427470000170e+00,-1.207120353599999873e+01,-2.036503106360000037e-01,3.380472660059999690e+00,-1.321199536320000201e+00,0.000000000000000000e+00
1.435300304999999943e+00,-6.911397345050000141e+00,-4.244053866540000719e+00,-1.222151684700000018e+01,-2.044851183889999924e-01,3.327478170390000489e+00,-1.389999508860000121e+00,0.000000000000000000e+00
1.440150499000000028e+00,-7.309542092120000056e+00,-4.097416321379999893e+00,-1.235145606309999877e+01,-1.533660441640000149e-01,3.305005788799999955e+00,-1.462262630459999935e+00,0.000000000000000000e+00
1.445153455999999892e+00,-7.791078239109999970e+00,-4.010177598389999432e+00,-1.236885727980000027e+01,-8.771028369670000324e-02,3.270414590839999747e+00,-1.536747217179999847e+00,0.000000000000000000e+00
1.450146667999999917e+00,-8.236338957619999235e+00,-4.158183217030000378e+00,-1.234473055429999988e+01,1.562379579989999975e-02,3.244831085209999522e+00,-1.618125677109999883e+00,0.000000000000000000e+00
1.455081118999999923e+00,-8.465292674680000573e+00,-4.445095202060000084e+00,-1.223633564599999879e+01,8.922595530750000725e-02,3.237180709840000059e+00,-1.748987078670000139e+00,0.000000000000000000e+00
1.460118835000000059e+00,-8.722147959620000890e+00,-4.914118196690000495e+00,-1.207638707609999962e+01,1.428298205140000054e-01,3.223952770229999931e+00,-1.835341691970000078e+00,0.000000000000000000e+00
1.465118716999999959e+00,-8.655296775619998328e+00,-5.163430226650000066e+00,-1.190045767770000040e+01,1.926744580270000062e-01,3.194417953490000350e+00,-1.973432302470000010e+00,0.000000000000000000e+00
1.470112834999999896e+00,-8.682941738389999387e+00,-5.293326188109999997e+00,-1.163260169079999962e+01,2.057408541440000072e-01,3.153663396840000299e+00,-2.070445537569999939e+00,0.000000000000000000e+00
1.475118686000000068e+00,-8.538214118500000893e+00,-5.232229037589999798e+00,-1.139444292309999973e+01,2.196705788369999746e-01,3.083347797390000089e+00,-2.178554534909999951e+00,0.000000000000000000e+00
1.480125225000000100e+00,-8.532650054639999482e+00,-5.066432910709999682e+00,-1.104633675690000061e+01,2.499014884230000288e-01,2.970006227490000317e+00,-2.265639543529999855e+00,0.000000000000000000e+00
1.485119795999999992e+00,-8.473544370199999065e+00,-4.740791382049999392e+00,-1.077731055709999985e+01,2.565875947480000252e-01,2.854538679120000033e+00,-2.352539539340000374e+00,0.000000000000000000e+00
1.490075301000000074e+00,-8.431416124040000071e+00,-4.401072228200000325e+00,-1.054330306379999982e+01,3.201823234560000064e-01,2.727874994279999576e+00,-2.444990396500000163e+00,0.000000000000000000e+00
1.495076617000000052e+00,-8.427625499590000402e+00,-3.922964009830000265e+00,-1.039638699400000021e+01,3.954147994520000320e-01,2.607269763950000208e+00,-2.519944667819999928e+00,0.000000000000000000e+00
1.500174944999999926e+00,-8.439821548810000351e+00,-3.485935405360000239e+00,-1.033985203679999998e+01,4.907482266429999962e-01,2.487182617190000222e+00,-2.589610338209999973e+00,0.000000000000000000e+00
1.505102302999999919e+00,-8.549145846889999234e+00,-3.120532651930000068e+00,-1.048774542730000015e+01,5.615716576579999897e-01,2.377062797549999829e+00,-2.650662660600000109e+00,0.000000000000000000e+00
1.510116644000000008e+00,-8.683716814419998542e+00,-2.991174158349999779e+00,-1.028887588279999932e+01,6.589059829710000038e-01,2.259416103359999983e+00,-2.695592403409999616e+00,0.000000000000000000e+00
1.515308086999999970e+00,-8.734606459180000115e+00,-2.840760309520000249e+00,-1.049888758350000018e+01,7.150317430500000571e-01,2.134811162949999730e+00,-2.713863134379999487e+00,0.000000000000000000e+00
1.520174099999999973e+00,-8.939545678920000071e+00,-2.756243704969999708e+00,-1.084914595930000125e+01,7.522559165950000182e-01,2.025894880290000089e+00,-2.731725692749999546e+00,0.000000000000000000e+00
1.525325076999999974e+00,-9.292014131970001145e+00,-2.620414261810000145e+00,-1.095194114789999951e+01,7.858747839929999257e-01,1.958965897559999725e+00,-2.730635404590000093e+00,0.000000000000000000e+00
1.530315144000000016e+00,-9.724893507810000060e+00,-2.435577918899999972e+00,-1.092495844839999997e+01,7.880061268809999131e-01,1.877790212629999900e+00,-2.713955879210000255e+00,0.000000000000000000e+00
1.535303638000000026e+00,-9.998827937849998904e+00,-2.145178237879999728e+00,-1.072699257480000057e+01,7.826790809630000956e-01,1.852848291399999958e+00,-2.677921771999999923e+00,0.000000000000000000e+00
1.540181116999999933e+00,-9.937435603770000014e+00,-1.698571803849999950e+00,-1.049495725830000126e+01,7.944631576540001072e-01,1.827444553379999892e+00,-2.637175321580000009e+00,0.000000000000000000e+00
1.545311002000000045e+00,-1.002981227419999932e+01,-5.853200543269999612e-01,-9.985526557729999197e+00,8.165119886399999638e-01,1.813318252559999788e+00,-2.587229251859999746e+00,0.000000000000000000e+00
1.550304311000000101e+00,-9.981552977919999847e+00,1.229245296230000006e+00,-9.204434632710000841e+00,8.776115775110000516e-01,1.772663474080000023e+00,-2.536523342130000191e+00,0.000000000000000000e+00
1.555257537999999995e+00,-9.606555297679999939e+00,1.743577066750000126e+00,-8.863104828799999169e+00,9.451219439510000209e-01,1.733406543729999916e+00,-2.495473623279999664e+00,0.000000000000000000e+00
1.560173637999999974e+00,-9.332963981989998103e+00,6.892777838639999599e-01,-9.160577955329999966e+00,1.073867559429999785e+00,1.662314772610000047e+00,-2.394272804259999887e+00,0.000000000000000000e+00
1.565313428000000062e+00,-9.246710178380000755e+00,1.045579787189999943e-01,-9.186419668070000100e+00,1.149553298949999913e+00,1.545277118680000061e+00,-2.275222063059999744e+00,0.000000000000000000e+00
1.570316983999999971e+00,-9.030663289169998720e+00,1.840608832950000051e-01,-9.105952631170000089e+00,1.136100053789999897e+00,1.411735534670000014e+00,-2.145591259000000139e+00,0.000000000000000000e+00
1.575315954999999990e+00,-8.897913107329999960e+00,-1.932212911540000244e-02,-9.073260321880001200e+00,1.030665636060000168e+00,1.269214868549999986e+00,-2.050997018809999961e+00,0.000000000000000000e+00
1.580318064999999939e+00,-9.126023943819999928e+00,-2.041390823409999777e-01,-8.834323555470000144e+00,8.669360876080000056e-01,1.153100132939999911e+00,-1.993635535240000145e+00,0.000000000000000000e+00
1.585157209999999983e+00,-9.397616194639999421e+00,-4.890563590239999786e-02,-8.619892284760000578e+00,6.710574626919999508e-01,1.095950603489999953e+00,-1.960504174229999785e+00,0.000000000000000000e+00
1.590152529999999897e+00,-9.439432890630000017e+00,2.961348636670000367e-01,-8.372716097789998813e+00,4.574944674970000125e-01,1.062067031860000066e+00,-1.955217838290000287e+00,0.000000000000000000e+00
1.595131223000000098e+00,-9.266887289489998736e+00,6.347270593139999750e-01,-7.990994662250000324e+00,2.402160018679999898e-01,1.023095607759999970e+00,-2.017867565159999543e+00,0.000000000000000000e+00
1.600298127000000070e+00,-9.246034471079999761e+00,5.946764596829999805e-01,-7.648710334089999563e+00,1.163828372960000121e-02,9.162988662720000788e-01,-2.064804077150000250e+00,0.000000000000000000e+00
1.605281546000000059e+00,-9.045636401900001289e+00,2.732750528119999855e-01,-7.224548517710000617e+00,-2.059240639209999890e-01,8.159797787670000080e-01,-2.163785934449999893e+00,0.000000000000000000e+00
1.610296253000000011e+00,-9.252152661700000280e+00,1.612155028229999842e-01,-6.743743607599999912e+00,-4.080514311790000015e-01,6.836723685259998851e-01,-2.207128524779999879e+00,0.000000000000000000e+00
1.615307217000000017e+00,-9.447603922129999887e+00,2.336571820420000056e-01,-6.424881071559999768e+00,-5.538153648379999794e-01,5.621018409729999776e-01,-2.249197959900000043e+00,0.000000000000000000e+00
1.620167539000000101e+00,-9.889832141080001193e+00,4.343526267360000581e-01,-6.355991659730000798e+00,-6.260139942169999916e-01,3.965743482109999607e-01,-2.273230791090000480e+00,0.000000000000000000e+00
1.625296322999999932e+00,-1.030141037019999928e+01,5.128764206129999836e-01,-6.367378146139999195e+00,-6.568549275399999665e-01,2.827096581459999647e-01,-2.273532152180000043e+00,0.000000000000000000e+00
1.630147573999999988e+00,-1.060975268129999982e+01,9.119863229229999702e-01,-6.270347512449999883e+00,-6.152661442760000154e-01,1.868403553959999963e-01,-2.257410287859999976e+00,0.000000000000000000e+00
1.635279257000000097e+00,-1.080113683839999972e+01,1.448740280069999997e+00,-6.055186173900000135e+00,-5.428671240810000187e-01,9.556042402980000072e-02,-2.260141372680000149e+00,0.000000000000000000e+00
1.640179430999999965e+00,-1.091888526599999842e+01,1.318013859129999910e+00,-6.091317225469999208e+00,-4.505134224889999484e-01,2.715656347570000184e-02,-2.263516426090000255e+00,0.000000000000000000e+00
1.645314082000000067e+00,-1.093581535799999926e+01,9.963414533030000575e-01,-6.147683840340000039e+00,-3.401869833470000382e-01,1.300656236710000073e-02,-2.254443645479999869e+00,0.000000000000000000e+00
1.650297447999999889e+00,-1.064348660859999995e+01,1.048986855689999942e+00,-6.125769530169999477e+00,-2.520456016059999804e-01,-5.938723310829999852e-02,-2.242213487629999946e+00,0.000000000000000000e+00
1.655165368000000026e+00,-1.022930725700000032e+01,8.932941896739999832e-01,-5.951029049339999766e+00,-2.174429148439999959e-01,-1.238233968620000014e-01,-2.243774414059999778e+00,0.000000000000000000e+00
1.660317540000000092e+00,-9.833173265270000130e+00,4.281187373149999975e-01,-5.936494328029999323e+00,-2.369904369120000021e-01,-2.034873366360000213e-01,-2.246456861500000013e+00,0.000000000000000000e+00
1.665297620999999895e+00,-9.439505371350000118e+00,1.778352502459999984e-01,-5.965464401919999382e+00,-2.678973078730000346e-01,-2.673554420470000137e-01,-2.245516061780000072e+00,0.000000000000000000e+00
1.670298308000000009e+00,-9.186227360369999317e+00,-5.100752638539999412e-02,-6.191724642120000510e+00,-3.315530121330000357e-01,-3.600868582729999656e-01,-2.247240781779999974e+00,0.000000000000000000e+00
1.675310284000000038e+00,-2.738440337260000135e+00,-1.298801647529999936e+00,-8.584641523160000176e+00,-4.138446450230000018e-01,-3.912576735019999696e-01,-2.215947151179999963e+00,0.000000000000000000e+00
1.680141512000000059e+00,-1.043398928710000106e+01,2.614235865440000417e+00,-8.266485089560001498e+00,-5.501698255539999582e-01,-1.150710344310000188e+00,-2.218347787859999976e+00,0.000000000000000000e+00
1.685116542000000051e+00,-1.011258291179999880e+01,-1.241190877829999817e+00,-3.458065401659999871e+00,-6.143327951429999878e-01,-1.172742247579999786e+00,-2.163007259370000046e+00,0.000000000000000000e+00
1.690121109999999982e+00,-7.354401224540000115e+00,-1.056465228750000040e+00,-4.890042324580000432e+00,-6.903368234630000710e-01,-1.345029115679999832e+00,-2.111087560650000139e+00,0.000000000000000000e+00
1.695118568000000048e+00,-7.861923461179999961e+00,-1.430507087829999968e-01,-5.077446472150000112e+00,-7.236641645429999770e-01,-1.500611186029999766e+00,-2.016600370409999954e+00,0.000000000000000000e+00
1.700127082000000067e+00,-6.686459293370000445e+00,3.613718904700000123e-02,-7.222920624239999476e+00,-7.427366375920000374e-01,-1.317750215529999824e+00,-1.894643664359999979e+00,0.000000000000000000e+00
1.705142697999999957e+00,-4.544990869790000332e+00,-2.382089270620000032e-01,-1.033202295059999898e+01,-7.065174579620000506e-01,-1.250627160070000077e+00,-1.849106311800000180e+00,0.000000000000000000e+00
1.710137731999999966e+00,-3.273991859810000182e+00,1.184813303170000109e+00,-1.094906997630000056e+01,-6.656057238579999868e-01,-1.137508511540000100e+00,-1.918025016779999925e+00,0.000000000000000000e+00
1.715134093999999942e+00,-6.148469583890000534e-01,1.410550834669999976e+00,-1.085898229369999868e+01,-6.950904130940001036e-01,-8.499710559839999124e-01,-1.845090746879999966e+00,0.000000000000000000e+00
1.720123622000000019e+00,2.133935251600000083e+00,5.427731809010000186e-01,-1.089268582579999922e+01,-6.516603231430000420e-01,-6.491218805309999507e-01,-1.771039128300000209e+00,0.000000000000000000e+00
1.725120698000000008e+00,4.255354720490000631e+00,-4.662393187309999965e-01,-1.111027293019999895e+01,-6.496958732600000008e-01,-4.466288983820000391e-01,-1.647269845010000067e+00,0.000000000000000000e+00
1.730110838999999956e+00,4.815348025859999659e+00,-8.143751859340000454e-01,-1.165859771739999928e+01,-6.813372373580000030e-01,-3.934089541439999560e-01,-1.525153279299999998e+00,0.000000000000000000e+00
1.735274289999999997e+00,3.852050690959999635e+00,-8.169672482539999669e-02,-1.140010343299999995e+01,-8.494213223459998741e-01,-6.907138824459999604e-01,-1.433179736139999827e+00,0.000000000000000000e+00
1.740142493000000012e+00,3.157568251129999837e+00,1.012716614849999974e+00,-1.097473867059999897e+01,-1.140727758409999959e+00,-1.124025344849999941e+00,-1.318204045299999905e+00,0.000000000000000000e+00
1.745275381999999986e+00,1.457994284490000014e+00,2.505044253839999957e+00,-1.088933651540000014e+01,-1.386870503429999957e+00,-1.546406984329999901e+00,-1.174468636510000108e+00,0.000000000000000000e+00
1.750263770000000108e+00,-3.295374766510000275e-01,4.085851263530000388e+00,-1.069949315799999923e+01,-1.583986520770000128e+00,-1.928653955459999736e+00,-1.061241388320000034e+00,0.000000000000000000e+00
1.755092520999999905e+00,-2.457477908280000012e+00,6.503640135499999531e+00,-1.027501920689999970e+01,-1.548133850099999931e+00,-2.106326818469999917e+00,-9.723228216169998994e-01,0.000000000000000000e+00
1.760106901999999973e+00,-4.645284012410000329e+00,8.711277021519999053e+00,-1.047760514149999977e+01,-1.314793944360000078e+00,-2.070851564409999845e+00,-8.665573596950000290e-01,0.000000000000000000e+00
1.765257966000000067e+00,-5.792642321930000726e+00,1.004891912570000123e+01,-1.131648874579999919e+01,-9.614425301549999192e-01,-1.943150758740000095e+00,-8.059248924259999614e-01,0.000000000000000000e+00
1.770257866999999985e+00,-6.107796651109999253e+00,1.089673539349999842e+01,-1.114903725289999947e+01,-5.034185051919999321e-01,-1.674346685409999980e+00,-6.888967752460000149e-01,0.000000000000000000e+00
1.775111123000000068e+00,-6.202213302899999725e+00,1.032760396509999978e+01,-1.145511980230000049e+01,-1.012014821170000023e-01,-1.334529280659999984e+00,-4.916654229159999612e-01,0.000000000000000000e+00
1.780117350000000043e+00,-4.430180249260000203e+00,9.144628691050000313e+00,-1.164122923390000075e+01,2.025913894179999786e-01,-1.135188817979999820e+00,-3.246478736399999732e-01,0.000000000000000000e+00
1.785117483000000060e+00,-3.236084153959999821e+00,7.976674460479999951e+00,-1.137211652499999914e+01,3.770063221450000168e-01,-9.668291807170000807e-01,-1.136251389980000026e-01,0.000000000000000000e+00
1.790146800000000038e+00,-2.052507991359999728e+00,6.829267927890000145e+00,-1.062650040249999961e+01,4.570745825770000104e-01,-9.802740216259999695e-01,1.289350725710000124e-02,0.000000000000000000e+00
1.795081995000000097e+00,-1.616630164350000065e+00,5.675698196509999960e+00,-1.016107017160000048e+01,5.650554895399999555e-01,-1.056345701220000155e+00,1.219618991020000043e-01,0.000000000000000000e+00
1.800098501999999989e+00,-1.428870481339999943e+00,4.467696617709999707e+00,-9.667340313510001337e+00,7.107953429219999730e-01,-1.133266687389999916e+00,1.649603694679999955e-01,0.000000000000000000e+00
1.805049418999999933e+00,-1.604318379790000026e+00,2.985710632250000440e+00,-9.490362282879999611e+00,8.835638761519999385e-01,-1.165941596029999916e+00,1.633194983010000101e-01,0.000000000000000000e+00
1.810195277000000047e+00,-1.832135347909999767e+00,1.329123720560000166e+00,-9.585817630079999319e+00,1.016392827030000001e+00,-1.195813655849999879e+00,1.109093055130000033e-01,0.000000000000000000e+00
1.815131341000000065e+00,-1.765190640399999955e+00,-3.930198052740000447e-01,-9.687577630369998971e+00,1.083186030389999832e+00,-1.177127957339999975e+00,3.838732466099999824e-02,0.000000000000000000e+00
1.820099718000000033e+00,-1.815137597479999920e+00,-1.686698556839999918e+00,-9.916327349289998594e+00,1.046254873279999886e+00,-1.150705456729999909e+00,-1.776662655170000230e-02,0.000000000000000000e+00
1.825122149000000027e+00,-1.863946928840000128e+00,-2.469289634369999931e+00,-1.002872506349999959e+01,9.379291534420000076e-01,-1.139824986460000078e+00,-2.885038964449999910e-02,0.000000000000000000e+00
1.830112269000000014e+00,-1.988455498170000002e+00,-2.648427181120000196e+00,-9.865548763689998779e+00,7.707571983339999155e-01,-1.153657436370000067e+00,-1.080645807090000084e-02,0.000000000000000000e+00
1.835267701000000029e+00,-2.095581263279999717e+00,-2.836986051679999843e+00,-9.980455245810000875e+00,6.018310189250000164e-01,-1.188800573350000001e+00,1.017605140810000017e-02,0.000000000000000000e+00
1.840132276999999927e+00,-2.206977983719999870e+00,-3.399191480139999832e+00,-1.080120230490000033e+01,4.495063126089999805e-01,-1.205015182499999948e+00,3.443226963280000136e-02,0.000000000000000000e+00
1.845261347999999968e+00,-2.711586524859999958e+00,-3.989766970780000310e+00,-1.066653664480000074e+01,2.248966693879999867e-01,-1.212803959850000002e+00,6.079856678840000334e-02,0.000000000000000000e+00
1.850109345999999988e+00,-3.425586442860000247e+00,-4.936561499169999756e+00,-1.138807163450000104e+01,3.921471070500000093e-03,-1.201343894000000079e+00,6.781077384950000286e-02,0.000000000000000000e+00
1.855134821999999906e+00,-4.428142898219999957e+00,-5.144740139230000509e+00,-1.113207325859999841e+01,-2.313559055330000058e-01,-1.154040336610000050e+00,5.896006897090000365e-02,0.000000000000000000e+00
1.860267646999999913e+00,-5.001057059959999940e+00,-4.534093335940000635e+00,-1.104667227240000038e+01,-4.187427759170000430e-01,-1.057294368740000046e+00,4.458086192610000165e-02,0.000000000000000000e+00
1.865275519999999965e+00,-4.622180784719999380e+00,-3.716946347209999502e+00,-1.047466382740000057e+01,-5.605612397189999596e-01,-8.666992187500000000e-01,3.510644659399999451e-02,0.000000000000000000e+00
1.870124251000000015e+00,-3.899971256780000228e+00,-1.885043054490000092e+00,-1.025218310570000035e+01,-5.941290855409999683e-01,-7.076041102410000061e-01,8.180933445690000139e-02,0.000000000000000000e+00
1.875096074000000002e+00,-3.445868183380000449e+00,3.562388384309999600e-01,-1.020141971770000033e+01,-5.759631395340000237e-01,-6.121772527690000354e-01,8.168561011550000417e-02,0.000000000000000000e+00
1.880091465000000017e+00,-3.693680622430000504e+00,1.731246431350000003e+00,-1.026651792050000012e+01,-5.306586027149999829e-01,-5.416405200959999444e-01,1.293899118900000145e-01,0.000000000000000000e+00
1.885047222000000078e+00,-3.642092766269999782e+00,2.657140356659999814e+00,-1.020440311740000006e+01,-4.710872173309999522e-01,-5.809667706490000416e-01,1.580823957920000078e-01,0.000000000000000000e+00
1.890033226999999982e+00,-3.313544410259999573e+00,2.715939459370000364e+00,-1.002704280950000104e+01,-3.632993102070000146e-01,-5.461987853049999897e-01,1.640164405110000057e-01,0.000000000000000000e+00
1.895000663000000030e+00,-3.247417741140000036e+00,2.057459622420000134e+00,-9.969887090049999401e+00,-2.493800222870000138e-01,-5.088793635369999180e-01,1.370148658750000026e-01,0.000000000000000000e+00
1.900042167000000060e+00,-3.223613379440000148e+00,1.197103168169999954e+00,-9.990323144349998685e+00,-1.820807456970000016e-01,-4.037707149979999910e-01,1.247816011309999945e-01,0.000000000000000000e+00
1.905045199999999994e+00,-3.011479279760000072e+00,8.219896795250000165e-01,-1.008259810789999911e+01,-1.642360687259999952e-01,-3.446400761599999751e-01,1.210429295900000007e-01,0.000000000000000000e+00
1.910165566000000092e+00,-2.841851611890000129e+00,9.378491515200001460e-01,-1.010771267550000019e+01,-1.627651005980000065e-01,-2.830520272250000025e-01,1.004035845399999932e-01,0.000000000000000000e+00
1.915073561999999896e+00,-2.591154557319999885e+00,1.026654027850000039e+00,-9.917361953039998568e+00,-1.430165171620000064e-01,-2.892372906210000094e-01,7.492376118900000159e-02,0.000000000000000000e+00
1.920017679000000088e+00,-2.632206406420000366e+00,1.187985941860000061e+00,-9.824677824120000125e+00,-1.171845793720000112e-01,-3.023344576359999758e-01,7.733428478239999515e-02,0.000000000000000000e+00
1.925086706999999953e+00,-2.635980079739999926e+00,1.301826694439999876e+00,-9.741038002399999840e+00,-6.727110594509999597e-02,-2.877525687220000017e-01,6.490125507119999526e-02,0.000000000000000000e+00
1.930066140999999957e+00,-2.661277018079999834e+00,1.114119326139999977e+00,-9.734691263729999378e+00,-2.992333844299999851e-02,-2.961228489880000092e-01,4.060739651320000032e-02,0.000000000000000000e+00
1.935198226000000021e+00,-2.714566709720000137e+00,8.252910591580000510e-01,-9.715528882619999251e+00,-1.539600081739999878e-03,-2.753415703770000222e-01,3.676170855759999800e-02,0.000000000000000000e+00
1.940104301999999947e+00,-2.763254460519999789e+00,5.356210075909999535e-01,-9.672543727369999900e+00,2.546128816900000008e-02,-2.474225908519999961e-01,3.090762160720000179e-02,0.000000000000000000e+00
1.945199746999999979e+00,-2.700011530139999838e+00,2.154633902360000020e-01,-9.659584292550000839e+00,1.903894171120000187e-02,-2.436673790219999747e-01,3.594648465510000279e-02,0.000000000000000000e+00
1.950220100999999984e+00,-2.643121768179999886e+00,-1.014698034460000033e-03,-9.639145900160000835e+00,2.372631616890000239e-02,-1.967963576320000130e-01,3.635729104279999957e-02,0.000000000000000000e+00
1.955074293000000019e+00,-2.657457752050000011e+00,-2.804590094989999893e-01,-9.636651745260000013e+00,1.582991890610000243e-02,-1.795800030229999789e-01,3.565792739390000188e-02,0.000000000000000000e+00
1.960080322999999902e+00,-2.582518830920000230e+00,-4.617521633799999692e-01,-9.524276827439999593e+00,5.127135664219999861e-03,-1.763525158170000107e-01,3.629411756990000293e-02,0.000000000000000000e+00
1.965074299000000080e+00,-2.330886102929999648e+00,-4.808549963220000167e-01,-9.444459778880000655e+00,-5.496654193850000411e-03,-1.707176417110000122e-01,1.717033050950000223e-02,0.000000000000000000e+00
1.970068433000000008e+00,-2.359542142450000046e+00,-4.312693102999999861e-01,-9.473254496210000042e+00,-1.351905707270000152e-02,-1.839207261799999937e-01,3.013962693509999666e-02,0.000000000000000000e+00
1.975078786000000086e+00,-2.365077710870000072e+00,-2.337573544810000181e-01,-9.471896067339999448e+00,-3.564547374839999866e-02,-1.932672858240000180e-01,3.906023129820000023e-02,0.000000000000000000e+00
1.980073020999999933e+00,-2.387257101720000385e+00,-8.603975899830000607e-02,-9.458930202789998631e+00,-7.040128856900000620e-02,-1.991888731720000139e-01,4.349051788450000039e-02,0.000000000000000000e+00
1.985029262000000072e+00,-2.509272977450000219e+00,-3.256709602490000244e-02,-9.532127540939999477e+00,-9.465257078410001246e-02,-1.899374127389999722e-01,2.749798819420000082e-02,0.000000000000000000e+00
1.990098405999999986e+00,-2.658100726130000258e+00,9.756986426439998028e-02,-9.510368129079999733e+00,-1.068456321949999982e-01,-1.858452111479999835e-01,4.518364369869999619e-02,0.000000000000000000e+00
1.995045007000000092e+00,-2.660910522850000071e+00,2.059332905479999976e-01,-9.507940609669999432e+00,-1.132675483819999968e-01,-1.793364882470000199e-01,4.993914067750000740e-02,0.000000000000000000e+00
2.000215192000000197e+00,-2.623455236939999935e+00,2.282288185839999872e-01,-9.527122280000000387e+00,-1.008792296049999954e-01,-1.528481394049999997e-01,5.521074309949999814e-02,0.000000000000000000e+00
2.005065388999999865e+00,-2.604462659440000216e+00,2.580053682919999924e-01,-9.529248186110001129e+00,-1.015368774530000101e-01,-1.749988496300000085e-01,4.254125803709999515e-02,0.000000000000000000e+00
2.010045823000000009e+00,-2.572377083879999748e+00,2.054304738589999846e-01,-9.387934758589999262e+00,-1.122804656619999925e-01,-1.599966436620000043e-01,5.230345949529999899e-02,0.000000000000000000e+00
2.015049583000000144e+00,-2.460443480089999913e+00,8.785326556060001069e-02,-9.462800322219999671e+00,-1.264574229719999943e-01,-1.374357491729999992e-01,5.635200440880000494e-02,0.000000000000000000e+00
2.020076915999999834e+00,-2.461047583460000077e+00,2.254510244340000025e-01,-9.507854100430000344e+00,-1.234046146270000033e-01,-1.407319307329999991e-01,5.934331566100000538e-02,0.000000000000000000e+00
2.025061985999999870e+00,-2.493799513979999993e+00,4.206290026139999916e-01,-9.502793894430000776e+00,-1.322153657669999927e-01,-1.498232930900000037e-01,7.030853629110001002e-02,0.000000000000000000e+00
2.030021699999999818e+00,-2.745220206659999995e+00,5.264926753699999962e-01,-9.606016953019999249e+00,-1.349165290590000066e-01,-1.722253412009999984e-01,8.214068412779999828e-02,0.000000000000000000e+00
2.035167132000000212e+00,-2.702624342990000095e+00,5.988412146789999779e-01,-9.506550616620000227e+00,-1.413962244989999950e-01,-1.484856903550000051e-01,5.523193255069999696e-02,0.000000000000000000e+00
2.040076548000000045e+00,-2.711899244070000048e+00,5.327539277220000313e-01,-9.425236607500000474e+00,-1.280430257319999932e-01,-1.544768065210000152e-01,5.886013060809999753e-02,0.000000000000000000e+00
2.045210389999999823e+00,-2.542966572730000152e+00,4.084436939750000217e-01,-9.295150676429999592e+00,-1.150496304040000001e-01,-1.433172672990000174e-01,5.356729403140000206e-02,0.000000000000000000e+00
2.050072408000000124e+00,-2.415930238490000104e+00,1.859615475510000004e-01,-9.246131501709999867e+00,-9.752249717710001486e-02,-1.392093896870000014e-01,5.126581713560000170e-02,0.000000000000000000e+00
2.055038401000000015e+00,-2.396945552040000038e+00,-1.263098465989999919e-01,-9.297862273470000716e+00,-1.251582652329999990e-01,-1.269638836380000135e-01,6.531789153809999804e-02,0.000000000000000000e+00
2.060045794000000097e+00,-2.305422429720000110e+00,-1.073335535129999879e-01,-9.282809081250000816e+00,-1.375517249110000118e-01,-1.380243152380000171e-01,5.914108455180000501e-02,0.000000000000000000e+00
2.065013883999999855e+00,-2.114004808720000295e+00,6.205682129790000834e-02,-9.288190774289999396e+00,-1.626090854410000008e-01,-1.828248798849999857e-01,4.898905009030000285e-02,0.000000000000000000e+00
2.070040292999999920e+00,-2.091873494809999734e+00,1.805089994990000113e-01,-9.182294697099999681e+00,-1.917126923799999938e-01,-2.044006437060000014e-01,5.927346274259999437e-02,0.000000000000000000e+00
2.075201798000000153e+00,-2.097550225270000013e+00,5.169335322509999164e-02,-9.235374545379999134e+00,-2.169726788999999934e-01,-2.237107604740000144e-01,5.737214162949999530e-02,0.000000000000000000e+00
2.080078128999999887e+00,-2.210826621969999906e+00,-1.419437978539999923e-01,-9.392800903319999506e+00,-2.311143726110000129e-01,-2.427517920729999890e-01,5.353493243459999523e-02,0.000000000000000000e+00
2.085110609000000004e+00,-2.419248276999999892e+00,-1.376172490249999991e-01,-9.516461185260000732e+00,-2.502301037310000198e-01,-2.762472033500000257e-01,6.508570909499999946e-02,0.000000000000000000e+00
2.090259608999999852e+00,-2.746692909559999674e+00,3.869588247349999843e-01,-9.795212660180000697e+00,-2.832841873170000024e-01,-2.755828797820000231e-01,6.637042015790001193e-02,0.000000000000000000e+00
2.095082917000000045e+00,-3.182570590429999680e+00,1.003801706179999753e+00,-9.770504335389999184e+00,-2.896063923839999887e-01,-2.636102437969999879e-01,5.154542624950000235e-02,0.000000000000000000e+00
2.100121099999999963e+00,-3.466153723299999712e+00,1.312367816070000082e+00,-9.537872806599999365e+00,-2.805648744110000314e-01,-2.359924912449999912e-01,5.900236591699999783e-02,0.000000000000000000e+00
2.105105024999999852e+00,-3.359843220099999694e+00,1.287123776960000132e+00,-9.524121929139999665e+00,-2.482658028599999955e-01,-1.881614029410000055e-01,6.677989661690000855e-02,0.000000000000000000e+00
2.110175786000000109e+00,-3.121746703899999975e+00,1.092868667510000114e+00,-9.477729595799999629e+00,-1.752840578559999862e-01,-1.334929764270000041e-01,6.306232511999999846e-02,0.000000000000000000e+00
2.115092859000000214e+00,-2.985383007729999871e+00,8.470248981910000197e-01,-9.517926581630000271e+00,-1.414492577310000054e-01,-9.005297720429999986e-02,5.595933273430000326e-02,0.000000000000000000e+00
2.120316612999999961e+00,-2.856249262820000023e+00,9.074759328270000092e-01,-9.486515544330000438e+00,-1.317302137609999979e-01,-9.791227430109999963e-02,5.188890919090000109e-02,0.000000000000000000e+00
2.125095266999999843e+00,-2.696991305540000106e+00,7.681154659970000909e-01,-9.441357721219999277e+00,-1.495306193829999963e-01,-1.082138046619999933e-01,4.974740371109999393e-02,0.000000000000000000e+00
2.130172121999999835e+00,-2.606430452390000152e+00,6.476993536110000615e-01,-9.430420147619999582e+00,-1.486792862419999972e-01,-1.278359144929999969e-01,5.479049310089999930e-02,0.000000000000000000e+00
2.135234066999999847e+00,-2.558935710759999704e+00,5.254148900710000625e-01,-9.396640043089998784e+00,-1.574686467649999977e-01,-1.488539725540000136e-01,4.446513205770000199e-02,0.000000000000000000e+00
2.140150976999999788e+00,-2.609239372329999807e+00,4.085715581390000350e-01,-9.425809438949999119e+00,-1.384825855490000035e-01,-1.277741938829999868e-01,6.300861388440000266e-02,0.000000000000000000e+00
2.145114502000000201e+00,-2.662665842090000012e+00,4.395214807410000035e-01,-9.448122977569999748e+00,-1.400504410270000111e-01,-1.454094052309999885e-01,7.795063406230000325e-02,0.000000000000000000e+00
2.150273470000000131e+00,-2.684843771629999765e+00,6.322337811929999996e-01,-9.457079021960000276e+00,-1.592429429289999865e-01,-1.494375169280000026e-01,9.055626392359999999e-02,0.000000000000000000e+00
2.155085284000000101e+00,-2.684236453380000054e+00,7.965434689059999185e-01,-9.454713461869999946e+00,-1.773172467949999942e-01,-1.373504847289999942e-01,8.251047879460000900e-02,0.000000000000000000e+00
2.160267002999999963e+00,-2.849783281670000168e+00,8.712216202060000247e-01,-9.416927044310000383e+00,-1.719177663329999883e-01,-1.502893716099999721e-01,7.292991131539999783e-02,0.000000000000000000e+00
2.165246379000000054e+00,-2.880283341620000215e+00,7.056866284819999224e-01,-9.312440833920000216e+00,-1.607505828140000093e-01,-1.494360566140000013e-01,6.669031083580000130e-02,0.000000000000000000e+00
2.170109151000000125e+00,-2.788072967689999793e+00,4.438022267999999770e-01,-9.281011676439998581e+00,-1.466529220340000161e-01,-1.334966421129999969e-01,8.083754032850000437e-02,0.000000000000000000e+00
2.175062119000000127e+00,-2.450278936690000187e+00,2.849200622949999984e-01,-9.381113388130000175e+00,-1.595567464830000004e-01,-1.207730025049999906e-01,6.586007028819999831e-02,0.000000000000000000e+00
2.180117001999999804e+00,-2.514742641029999781e+00,2.908277154360000005e-01,-9.392598658739998996e+00,-1.733004152769999917e-01,-1.067398414020000047e-01,7.522902637719999785e-02,0.000000000000000000e+00
2.185089544999999855e+00,-2.710175781280000251e+00,5.286776912589999933e-01,-9.339788275049999200e+00,-1.878011822700000055e-01,-1.450001746419999904e-01,8.632560819389999140e-02,0.000000000000000000e+00
2.190253830000000068e+00,-2.921152819879999640e+00,6.927062239429999657e-01,-9.292620865689999121e+00,-2.285914123059999969e-01,-1.554459631439999989e-01,1.107112839820000028e-01,0.000000000000000000e+00
2.195102606999999928e+00,-2.940109449290000398e+00,8.532644501680000104e-01,-9.329510626669998530e+00,-2.237172722820000015e-01,-1.266752332449999907e-01,1.020234003659999944e-01,0.000000000000000000e+00
2.200123753000000182e+00,-3.031670419390000148e+00,8.907691281759999580e-01,-9.422045117979999773e+00,-2.201702892780000032e-01,-9.673368930819999101e-02,1.053600907329999975e-01,0.000000000000000000e+00
2.205087413999999857e+00,-2.927068181409999692e+00,8.877885779949999945e-01,-9.467834809250000205e+00,-1.929704397920000147e-01,-6.758029013869999713e-02,8.447296917439998942e-02,0.000000000000000000e+00
2.210119071999999907e+00,-2.984182399769999883e+00,9.846198897190000521e-01,-9.414654423210000900e+00,-2.132183611389999733e-01,-3.937118872999999936e-02,8.927431702610000297e-02,0.000000000000000000e+00
2.215108124999999983e+00,-2.917267502879999697e+00,9.103099872090000266e-01,-9.466355384349999014e+00,-2.069993764160000249e-01,-3.422279283400000288e-02,7.633608579639998559e-02,0.000000000000000000e+00
2.220297769000000088e+00,-2.937594543859999963e+00,6.367926866070000580e-01,-9.451797866689998884e+00,-1.986178159710000057e-01,-2.589100971820000249e-02,8.311600238080001091e-02,0.000000000000000000e+00
2.225098709000000063e+00,-2.911114533209999689e+00,5.737163084359999665e-01,-9.452751221889998945e+00,-1.870537996290000116e-01,-9.181271307170000770e-03,8.012300729749999295e-02,0.000000000000000000e+00
2.230111260000000151e+00,-2.939255170550000074e+00,7.419309311650000849e-01,-9.407735437599999528e+00,-1.905746161939999850e-01,2.084550680589999840e-03,7.583022862669999697e-02,0.000000000000000000e+00
2.235246802999999893e+00,-2.972695667860000057e+00,8.955847848289999469e-01,-9.387093047060000472e+00,-1.839520931239999879e-01,5.211036652330000400e-03,8.378438651560000949e-02,0.000000000000000000e+00
2.240108236000000197e+00,-2.998440349960000084e+00,9.672088823209999964e-01,-9.377825452499999770e+00,-1.931358277800000189e-01,1.103933900589999968e-02,7.983678579330000247e-02,0.000000000000000000e+00
2.245224472999999943e+00,-3.001933160519999699e+00,1.031491750200000057e+00,-9.382322763919999531e+00,-1.885990947480000179e-01,2.275944873690000439e-02,6.475200504059999695e-02,0.000000000000000000e+00
2.250229962000000139e+00,-3.026851913199999800e+00,1.038703362079999915e+00,-9.375115609019999852e+00,-1.726061403750000223e-01,2.968719415370000073e-02,6.060699000950000442e-02,0.000000000000000000e+00
2.255070926000000142e+00,-3.028787849690000478e+00,1.110984754440000000e+00,-9.401105790329999934e+00,-1.754468232389999882e-01,5.605114623900000342e-02,6.470892578359999092e-02,1.000000000000000000e+00
2.260089203000000158e+00,-3.058738459059999748e+00,1.100984753949999950e+00,-9.339952525710000231e+00,-1.456560045480000121e-01,4.349314793940000506e-02,5.908139795059999533e-02,1.000000000000000000e+00
2.265045778999999815e+00,-2.968425735450000325e+00,1.118085087970000169e+00,-9.395859706370000453e+00,-1.342597901820000161e-01,6.176983192559999669e-02,4.406410828230000049e-02,1.000000000000000000e+00
2.270067587000000220e+00,-2.836761010759999646e+00,1.011467418499999882e+00,-9.425405534319999390e+00,-1.263608336450000036e-01,6.064422056080000234e-02,3.298031166200000169e-02,1.000000000000000000e+00
2.275081573000000024e+00,-2.887666145350000324e+00,1.048101378089999924e+00,-9.468705162350000037e+00,-1.261906921859999864e-01,5.259305983780000054e-02,2.856868319210000007e-02,1.000000000000000000e+00
2.280079306999999833e+00,-2.884021066840000369e+00,9.748759098180000970e-01,-9.385125546379999406e+00,-1.163648739460000081e-01,4.640121385459999859e-02,5.110877752299999854e-02,1.000000000000000000e+00
2.285046601999999982e+00,-2.746340150600000030e+00,9.091478846269999137e-01,-9.394822764530001535e+00,-9.889877587560000349e-02,4.954745993020000239e-02,3.522578999400000077e-02,1.000000000000000000e+00
2.290075321999999858e+00,-2.681510243290000428e+00,8.911142152860000998e-01,-9.379444578139999322e+00,-1.001685708760000071e-01,4.403255879879999779e-02,3.252389654519999979e-02,1.000000000000000000e+00
2.295056810999999808e+00,-2.696743468259999776e+00,9.691943570500000105e-01,-9.434462116480000660e+00,-1.036386415359999980e-01,6.011785939340000273e-02,3.022195585070000176e-02,1.000000000000000000e+00
2.300218198000000047e+00,-2.652795605459999706e+00,9.635090048899999093e-01,-9.383398868720000507e+00,-1.073633655910000012e-01,3.852123022080000680e-02,3.115944378079999605e-02,1.000000000000000000e+00
2.305058439000000181e+00,-2.593972537349999996e+00,8.253771300069999706e-01,-9.393667749280000479e+00,-9.225189685819999708e-02,2.915936149659999546e-02,1.132404431700000103e-02,1.000000000000000000e+00
2.310131923999999781e+00,-2.619789407909999923e+00,7.632343428919999839e-01,-9.426662256389999328e+00,-8.276453614230000477e-02,-1.080482383260000139e-03,5.321946460750000794e-03,1.000000000000000000e+00
2.315092191000000188e+00,-2.598976336989999858e+00,7.568979794769999936e-01,-9.447410445379999189e+00,-8.778593689200001049e-02,-2.225596923380000324e-03,1.852124556899999858e-02,1.000000000000000000e+00
2.320252521000000012e+00,-2.655931273140000215e+00,8.439786623630001205e-01,-9.442754144009999351e+00,-8.464688807730000319e-02,-1.880349591370000101e-02,3.099203668529999789e-02,1.000000000000000000e+00
2.325121944000000163e+00,-2.649083014679999959e+00,9.129729228080000203e-01,-9.452093050239998462e+00,-1.194753199819999917e-01,-3.899630159140000246e-02,2.773384563620000243e-02,1.000000000000000000e+00
2.330006524999999939e+00,-2.765235989719999843e+00,1.041108377399999840e+00,-9.390673828160000625e+00,-1.024138107900000039e-01,-5.181393772359999678e-02,3.665716946130000847e-02,1.000000000000000000e+00
2.335126103999999980e+00,-2.787161405809999604e+00,1.078332777159999978e+00,-9.368195454369999453e+00,-1.029200553889999953e-01,-5.633822083469999797e-02,3.452967479829999881e-02,1.000000000000000000e+00
2.340024468000000191e+00,-2.736538595290000320e+00,1.046895728629999800e+00,-9.417560666039999973e+00,-7.860275357960000431e-02,-4.992728307839999768e-02,1.844719611109999977e-02,1.000000000000000000e+00
2.344867854999999945e+00,-2.683423383430000086e+00,9.094715636229999678e-01,-9.462702707060000051e+00,-7.166554778810001192e-02,-4.235520213840000131e-02,1.007233746349999945e-02,1.000000000000000000e+00
2.349941132000000099e+00,-2.699138254440000217e+00,8.201819725160000019e-01,-9.461592699989999744e+00,-5.139821022749999774e-02,-5.979021266099999316e-02,2.240869775409999598e-02,1.000000000000000000e+00
2.355033587999999956e+00,-2.689999546949999765e+00,1.036459382549999919e+00,-9.486901328769999253e+00,-5.231305956840000271e-02,-7.884138077499999731e-02,2.818899415430000180e-02,1.000000000000000000e+00
2.360109438999999920e+00,-2.663250656240000236e+00,9.694149409980000742e-01,-9.527643089010000566e+00,-5.267649516459999709e-02,-8.775302767750001176e-02,3.193359822030000100e-02,1.000000000000000000e+00
2.365231601000000072e+00,-2.762976520360000077e+00,1.035661144839999936e+00,-9.487260809730001299e+00,-5.243657156830000554e-02,-1.009616777300000046e-01,1.881321519609999854e-02,1.000000000000000000e+00
2.370089087999999844e+00,-2.826209221600000099e+00,1.059651603700000111e+00,-9.465833406299999808e+00,-3.560638427730000027e-02,-1.052829325199999971e-01,3.572198003530000637e-02,1.000000000000000000e+00
2.375101041999999829e+00,-2.740564489800000114e+00,1.003108170960000045e+00,-9.531600886719999721e+00,-1.683078706260000140e-02,-1.022524014120000102e-01,1.875870488580000037e-02,1.000000000000000000e+00
2.380140245000000210e+00,-2.768003408609999827e+00,9.203337338999999506e-01,-9.477181314270000101e+00,-1.921480149029999862e-02,-1.103921458129999977e-01,1.336022652689999868e-02,1.000000000000000000e+00
2.385108178999999939e+00,-2.863620668370000288e+00,8.407055589769999449e-01,-9.488400042900000386e+00,-1.256749965249999955e-02,-1.007801815870000006e-01,3.346144780520000223e-02,1.000000000000000000e+00
2.390254596000000120e+00,-2.814720443859999754e+00,9.495390047920000409e-01,-9.408853043449999731e+00,-2.620786800979999984e-02,-1.211379989980000127e-01,4.248422384259999823e-02,1.000000000000000000e+00
2.395073285000000052e+00,-2.805069402940000511e+00,9.499068882560000038e-01,-9.369281496039999269e+00,-1.976259797810000010e-02,-1.027788221840000016e-01,4.295981302860000378e-02,1.000000000000000000e+00
2.400124357999999791e+00,-2.793097225599999955e+00,7.556901380570000271e-01,-9.406172426070000370e+00,-3.209063038229999915e-02,-1.114822253580000089e-01,3.935610875489999744e-02,1.000000000000000000e+00
2.405218816000000093e+00,-2.729046778230000303e+00,1.000150051810000162e+00,-9.446703758419999986e+00,-2.687973342839999891e-02,-1.283387094740000012e-01,3.434936329720000153e-02,1.000000000000000000e+00
2.410073855999999903e+00,-2.743181686569999833e+00,8.437414195410000151e-01,-9.496931724400001329e+00,-2.596562169490000335e-02,-1.358119100329999995e-01,5.839489400390000112e-02,1.000000000000000000e+00
2.415235635000000158e+00,-2.732447818839999876e+00,9.472134844530000208e-01,-9.518888704660000144e+00,-2.764469198879999923e-02,-1.437622457740000137e-01,5.156544595959999810e-02,1.000000000000000000e+00
2.420133735999999924e+00,-2.662303438519999954e+00,9.761434455349999872e-01,-9.448196042799999361e+00,-4.131024703380000579e-02,-1.431652605529999955e-01,4.164614155890000030e-02,1.000000000000000000e+00
2.425090588999999852e+00,-2.768464011859999907e+00,8.557515908080000067e-01,-9.493904485529998993e+00,-2.981078065930000201e-02,-1.514440774920000066e-01,6.590602546930000860e-02,1.000000000000000000e+00
2.430117682000000112e+00,-2.732884164430000151e+00,1.027036670490000025e+00,-9.499501282629999821e+00,-2.331373654309999710e-02,-1.793856471779999850e-01,6.492915004490000530e-02,0.000000000000000000e+00
2.435221546000000181e+00,-2.774304262319999825e+00,1.095736404970000022e+00,-9.534482579640000566e+00,-3.046302311120000286e-02,-2.017036527399999890e-01,8.321211487049999522e-02,0.000000000000000000e+00
2.440127257999999966e+00,-2.528961720520000345e+00,6.784795456700000171e-01,-9.709485510800000441e+00,-1.343220192939999919e-02,-2.321445494889999850e-01,6.426613777879999767e-02,0.000000000000000000e+00
2.445103131000000207e+00,-2.725936829509999715e+00,8.239827530390000376e-01,-9.727568864500000245e+00,-2.703269757329999912e-02,-2.304382920270000024e-01,6.824028491969999499e-02,0.000000000000000000e+00
2.450101167000000135e+00,-2.775623235959999491e+00,8.736366454589999941e-01,-9.629784782099999774e+00,-8.114002645020001320e-03,-2.630841732030000379e-01,9.207272529599999644e-02,0.000000000000000000e+00
2.455103260000000009e+00,-2.745429757749999755e+00,7.410319364990000102e-01,-9.712378894149999553e+00,-1.532357372339999968e-02,-2.994738817209999793e-01,8.049451559780000653e-02,0.000000000000000000e+00
2.460081147999999995e+00,-2.589858380029999907e+00,6.009250717490000060e-01,-9.747556005999999940e+00,-3.905381634830000503e-02,-3.154030740260000409e-01,7.998692989350000837e-02,0.000000000000000000e+00
2.465244691000000099e+00,-2.668860605069999892e+00,2.410003113470000069e-01,-9.724736271419999412e+00,-6.800507754090000245e-02,-3.315482735629999844e-01,7.910870760679999947e-02,0.000000000000000000e+00
2.470127399999999973e+00,-2.504761052979999736e+00,6.612883915680000113e-01,-9.839529356289999029e+00,-3.830337896940000375e-02,-3.663966357710000121e-01,1.340372413400000018e-01,0.000000000000000000e+00
2.475086883999999987e+00,-2.457090078009999790e+00,7.398059749009999742e-01,-1.001170963130000047e+01,-2.711167000229999791e-02,-4.099007546900000354e-01,1.200550422070000012e-01,0.000000000000000000e+00
2.480130829999999786e+00,-2.457126026100000082e+00,2.831768170900000325e-01,-1.022413306929999877e+01,3.985902294519999903e-03,-4.173431098459999822e-01,1.648999303580000186e-01,0.000000000000000000e+00
2.485076344999999964e+00,-2.420204847070000387e+00,4.955377477990000057e-01,-1.027880690870000002e+01,4.606326576319999533e-03,-4.735122025010000124e-01,2.026674896479999932e-01,0.000000000000000000e+00
2.490259621999999951e+00,-2.293288778209999990e+00,4.931326228859999605e-01,-1.025113330439999970e+01,3.345952928069999971e-02,-5.104044079780000187e-01,2.136971503500000036e-01,0.000000000000000000e+00
2.495093568999999789e+00,-2.573273448190000146e+00,3.320691140209999781e-01,-1.040417867080000036e+01,3.486408665780000443e-02,-5.837337374690000358e-01,2.483771294359999882e-01,0.000000000000000000e+00
2.500091902999999949e+00,-2.382562952549999835e+00,4.551115928540000466e-01,-1.069893669310000028e+01,3.050064109269999893e-02,-6.365130543710000310e-01,2.556962072850000323e-01,0.000000000000000000e+00
2.505099841999999910e+00,-2.102183584159999619e+00,4.658625578410000578e-01,-1.126766947750000014e+01,1.443434855899999912e-03,-6.851045489309999237e-01,2.594670057300000332e-01,0.000000000000000000e+00
2.510113062999999922e+00,-1.662148345209999878e+00,5.201654085779999770e-01,-1.157246490980000075e+01,-9.212236106399999958e-02,-7.726411223410000195e-01,2.307652682069999961e-01,0.000000000000000000e+00
2.515107679000000207e+00,-1.876330901850000066e+00,7.658925292499999538e-01,-1.158887243920000110e+01,-1.726568639280000039e-01,-8.760674595829999189e-01,1.930342167619999993e-01,0.000000000000000000e+00
2.520129884999999792e+00,-1.985893684859999730e+00,6.341767319550000170e-01,-1.172947567269999958e+01,-3.048807382579999947e-01,-1.032507777209999977e+00,1.645505130290000062e-01,0.000000000000000000e+00
2.525095271000000086e+00,-2.077842631369999804e+00,6.511144958169999830e-01,-1.157572887999999978e+01,-3.792324960230000208e-01,-1.160439252850000047e+00,1.645867228510000113e-01,0.000000000000000000e+00
2.530116372000000169e+00,-2.095945858809999951e+00,6.340554436619999512e-01,-1.177720071589999939e+01,-3.994863629339999722e-01,-1.290779948229999974e+00,1.546411812309999856e-01,0.000000000000000000e+00
2.535255937000000070e+00,-1.960292649000000109e+00,2.089704845529999910e-01,-1.206884674369999821e+01,-3.878719508649999814e-01,-1.364206552510000225e+00,1.189749240880000059e-01,0.000000000000000000e+00
2.540135046000000063e+00,-1.851568362649999910e+00,7.454938843440001017e-01,-1.239547406849999867e+01,-3.696931600569999810e-01,-1.456528902050000074e+00,1.240770891310000040e-01,0.000000000000000000e+00
2.545256026000000116e+00,-1.891862525250000093e+00,1.895979751309999850e+00,-1.254950260069999857e+01,-3.998845517640000069e-01,-1.603327274320000218e+00,9.336846321819999850e-02,0.000000000000000000e+00
2.550279259999999937e+00,-1.755950810629999914e+00,2.765749784470000083e+00,-1.274302260079999982e+01,-4.201056957240000278e-01,-1.796298265459999710e+00,5.896564945580000383e-02,0.000000000000000000e+00
2.555257308999999921e+00,-1.175432822819999945e+00,2.684214533809999637e+00,-1.288923139920000160e+01,-4.455834627149999894e-01,-2.003967761989999818e+00,-1.573699153959999888e-02,0.000000000000000000e+00
2.560121099999999927e+00,-9.477500755480000594e-01,2.970989156199999925e+00,-1.274989774730000036e+01,-4.442450702190000045e-01,-2.212801456450000259e+00,-4.599311202759999440e-02,0.000000000000000000e+00
2.565124619000000106e+00,-9.372691596750000187e-01,3.761601773749999822e+00,-1.309717272339999994e+01,-4.203151166439999531e-01,-2.432101249690000078e+00,-1.111187264320000062e-01,0.000000000000000000e+00
2.570130808000000044e+00,-7.222472295949999843e-01,3.124201403569999869e+00,-1.353799925880000110e+01,-3.890556097029999605e-01,-2.668043613430000072e+00,-1.678391546009999902e-01,0.000000000000000000e+00
2.575114568000000048e+00,-9.265613031770000285e-01,7.603912284199999538e-01,-1.361715287500000038e+01,-3.281825482849999864e-01,-2.915254116059999845e+00,-1.633641272780000098e-01,0.000000000000000000e+00
2.580280586000000209e+00,-1.954833799069999989e+00,-1.516931188240000061e+00,-1.396903037650000101e+01,-2.954108715060000390e-01,-3.177926540370000108e+00,-1.328070908779999948e-01,0.000000000000000000e+00
2.585132279999999838e+00,-2.870079050730000247e+00,-3.735582074090000315e+00,-1.391690972859999853e+01,-3.913086354730000438e-01,-3.426787614819999828e+00,-2.736762166020000053e-02,0.000000000000000000e+00
2.590259350999999821e+00,-3.170035226250000004e+00,-5.940540973069999175e+00,-1.330838853920000098e+01,-6.255201101300000843e-01,-3.655850648879999998e+00,1.027661412950000019e-01,0.000000000000000000e+00
2.595096950999999930e+00,-4.155002833430000209e+00,-7.373066177530000154e+00,-1.362819449349999879e+01,-9.853254556659999386e-01,-3.780418634409999701e+00,2.413844466209999762e-01,0.000000000000000000e+00
2.600144749000000033e+00,-4.414313987089999891e+00,-7.320374451779999347e+00,-1.353544022200000008e+01,-1.418507456780000009e+00,-3.833355665209999596e+00,4.177890121940000534e-01,0.000000000000000000e+00
2.605124935000000086e+00,-4.532876069100000294e+00,-6.968543127589999386e+00,-1.338232588199999995e+01,-1.861412644390000093e+00,-3.877970457079999989e+00,5.518973469729999692e-01,0.000000000000000000e+00
2.610161242999999853e+00,-5.072177591840000055e+00,-6.048260174030000158e+00,-1.325604460390000128e+01,-2.291115999220000088e+00,-3.844024896619999243e+00,6.679916977880000495e-01,0.000000000000000000e+00
2.615287307000000006e+00,-6.051894146619999582e+00,-5.498273006629999848e+00,-1.403563080059999990e+01,-2.663371324540000362e+00,-3.828582286830000125e+00,7.731633782389999432e-01,0.000000000000000000e+00
2.620301970999999952e+00,-6.331120837849999461e+00,-5.272876689790000349e+00,-1.365672500700000036e+01,-3.033995151520000100e+00,-3.829764127729999856e+00,9.044598340989999929e-01,0.000000000000000000e+00
2.625283517999999816e+00,-7.544532166729999823e+00,-4.923165426499999775e+00,-1.365400698020000014e+01,-3.359892606740000343e+00,-3.756700515749999969e+00,9.825267195700000400e-01,0.000000000000000000e+00
2.630285219000000119e+00,-8.489652624430000571e+00,-5.540495945330000005e+00,-1.371863172029999944e+01,-3.676765441890000208e+00,-3.646703243259999727e+00,1.125054001810000148e+00,0.000000000000000000e+00
2.635197445000000194e+00,-9.639775430239998499e+00,-5.295070985950000697e+00,-1.381952019849999935e+01,-4.019363880159999347e+00,-3.461779356000000085e+00,1.333407878879999897e+00,0.000000000000000000e+00
2.640124650999999822e+00,-9.483510517290000053e+00,-3.947097749619999707e+00,-1.200473872089999894e+01,-4.351692676540000804e+00,-3.223012924190000295e+00,1.448578238490000114e+00,0.000000000000000000e+00
2.645152696999999886e+00,-8.926396859009999574e+00,-3.444881802689999883e+00,-1.148323764329999896e+01,-4.640644550319999340e+00,-2.958602428440000320e+00,1.538587808609999996e+00,0.000000000000000000e+00
2.650295462999999963e+00,-1.103917636369999933e+01,-3.641400984619999726e+00,-1.180966506170000052e+01,-4.899200439449999500e+00,-2.673159122469999982e+00,1.481347560879999969e+00,0.000000000000000000e+00
2.655142101000000032e+00,-1.155277236729999935e+01,-4.722497308209999467e+00,-1.156028581170000002e+01,-5.153347492219999104e+00,-2.342089176180000010e+00,1.453116297720000061e+00,0.000000000000000000e+00
2.660156125999999954e+00,-9.177625536239998993e+00,-3.938548532460000029e+00,-1.121456917099999906e+01,-5.369767665859999539e+00,-2.071127653120000023e+00,1.463298439979999976e+00,0.000000000000000000e+00
2.665321946999999803e+00,-5.577850985739999601e+00,-4.330951374879999927e-01,-1.092099889710000049e+01,-5.495545387269999971e+00,-1.761533141140000147e+00,1.326280355450000004e+00,0.000000000000000000e+00
2.670086702999999950e+00,-5.901530566669999089e+00,7.440980460709999411e-01,-1.105090537999999967e+01,-5.492093086240000588e+00,-1.441522359850000212e+00,1.061809301380000070e+00,0.000000000000000000e+00
2.675288005000000080e+00,-8.702795608900000701e+00,-1.164839605679999890e+00,-1.188889349670000151e+01,-5.348931312559999540e+00,-1.076667428019999928e+00,6.432867646219999624e-01,0.000000000000000000e+00
2.680314571999999895e+00,-1.265664780119999833e+01,-3.475918161469999657e+00,-1.021239236259999927e+01,-4.996554851530000896e+00,-6.721863150599999281e-01,4.870451986790000354e-02,0.000000000000000000e+00
2.685122108999999924e+00,-1.340125036269999903e+01,3.536769337869999363e-02,-1.057161028990000062e+01,-4.466199398040000546e+00,-5.931387469169999149e-02,-6.215322017670000809e-01,0.000000000000000000e+00
2.690151805000000174e+00,-1.200293839349999914e+01,1.136210819500000024e+00,-1.242255146059999937e+01,-3.930779695510000060e+00,6.190679073329999893e-01,-1.159533500670000050e+00,0.000000000000000000e+00
2.695128894000000219e+00,-8.360296176680000357e+00,6.635279689219999999e-02,-1.154308800859999984e+01,-3.288024425510000182e+00,1.530656695370000042e+00,-1.547111749649999979e+00,0.000000000000000000e+00
2.700121825000000086e+00,-3.979016151919999800e+00,-1.061156236109999984e+00,-9.973938995780001093e+00,-2.705533027650000033e+00,2.515184879300000009e+00,-1.727469086649999985e+00,0.000000000000000000e+00
2.705159424000000090e+00,-9.768500594349999178e-01,-1.630212845640000019e+00,-8.609772457280000069e+00,-2.293193101880000029e+00,3.021943330759999657e+00,-1.840921998020000228e+00,0.000000000000000000e+00
2.710275064000000178e+00,9.570982610649999556e-01,-2.847752944890000304e+00,-6.927860988589999991e+00,-2.083258867259999647e+00,3.100661516190000189e+00,-1.943924307820000141e+00,0.000000000000000000e+00
2.715285682000000200e+00,3.138436849680000140e+00,-3.842775205350000167e+00,-5.554759448489999585e+00,-1.987883567809999974e+00,2.721783876420000414e+00,-2.057978868479999779e+00,0.000000000000000000e+00
2.720160599999999818e+00,4.094175147499999667e+00,-4.014267498049999716e+00,-4.240423108819999953e+00,-1.874612569809999796e+00,2.179956197740000157e+00,-2.198329448700000022e+00,0.000000000000000000e+00
2.725275600999999881e+00,4.168130318290000247e+00,-3.788280814100000171e+00,-3.910801278349999688e+00,-1.809678316120000074e+00,1.610870122909999980e+00,-2.309403657909999907e+00,0.000000000000000000e+00
2.730153797999999910e+00,3.859828339230000349e+00,-3.248471926370000151e+00,-4.136806082480000590e+00,-1.754691720009999845e+00,1.154191493989999984e+00,-2.343819379809999770e+00,0.000000000000000000e+00
2.735123896000000165e+00,2.931796671229999873e+00,-2.827930054049999864e+00,-4.180017155439999854e+00,-1.740770459179999730e+00,8.593811988830000193e-01,-2.390160560610000040e+00,0.000000000000000000e+00
2.740155558000000102e+00,1.469178526329999901e+00,-2.771872943520000021e+00,-4.139673162350000268e+00,-1.695368051530000031e+00,7.343118786810000076e-01,-2.340860605240000059e+00,0.000000000000000000e+00
2.745293355999999907e+00,1.272277067089999880e+00,-2.576189043379999877e+00,-4.305859457590000439e+00,-1.600230097770000137e+00,7.152094244960000013e-01,-2.313894271850000184e+00,0.000000000000000000e+00
2.750140544999999825e+00,2.644761352080000072e-01,-2.010260210479999810e+00,-5.088734758890000265e+00,-1.533800363539999934e+00,7.569443583490000904e-01,-2.195950031279999770e+00,0.000000000000000000e+00
2.755073893000000052e+00,-2.719931963080000070e-01,-2.199740141420000406e+00,-5.363823619649999763e+00,-1.499405860900000054e+00,8.368154168129999793e-01,-2.103504657749999840e+00,0.000000000000000000e+00
2.760103709000000016e+00,-4.197932093770000428e-01,-2.158440893429999896e+00,-5.890784716249999775e+00,-1.449324250220000110e+00,9.111870527269999576e-01,-2.031221866609999704e+00,0.000000000000000000e+00
2.765282104999999824e+00,-5.992924290450000191e-01,-2.158105670129999876e+00,-6.516503708730000177e+00,-1.425937056539999803e+00,9.575955271719999162e-01,-2.009449005130000021e+00,0.000000000000000000e+00
2.770290189999999875e+00,-8.525681384669999696e-01,-2.049888602640000279e+00,-6.902142025449999885e+00,-1.372366547579999763e+00,1.024783849720000140e+00,-1.991685509679999910e+00,0.000000000000000000e+00
2.775091036000000067e+00,-1.592430811989999917e+00,-1.899636958640000151e+00,-7.292654085680000620e+00,-1.330191493029999839e+00,1.146103382110000179e+00,-1.962493300440000255e+00,0.000000000000000000e+00
2.780098564000000216e+00,-2.062752760389999995e+00,-1.689542694220000252e+00,-7.563751830989999370e+00,-1.284354448320000008e+00,1.365303397179999934e+00,-1.963217020029999871e+00,0.000000000000000000e+00
2.785138611999999902e+00,-2.132622853820000053e+00,-1.446002964060000284e+00,-7.777334960439999278e+00,-1.199600934979999867e+00,1.621004581450000037e+00,-1.975955009459999800e+00,0.000000000000000000e+00
2.790141685000000038e+00,-2.200669531219999975e+00,-1.271860887509999927e+00,-7.633192446960000765e+00,-1.122053503989999923e+00,1.892036437990000319e+00,-2.009431362149999956e+00,0.000000000000000000e+00
2.795131281000000190e+00,-2.219218310479999623e+00,-1.279081048020000111e+00,-7.544506447769999902e+00,-1.038554549220000123e+00,2.135231018070000264e+00,-2.075790882109999735e+00,0.000000000000000000e+00
2.800154814999999964e+00,-1.839778848399999944e+00,-1.451711550960000263e+00,-7.433114695780000503e+00,-9.583671092990000417e-01,2.332454681399999785e+00,-2.169511556629999838e+00,0.000000000000000000e+00
2.805090383000000021e+00,-1.442553846520000072e+00,-1.743231468179999855e+00,-7.288171971830000651e+00,-8.736447095870000235e-01,2.433784008029999946e+00,-2.267602920529999899e+00,0.000000000000000000e+00
2.810159320999999988e+00,-1.328616501690000007e+00,-2.002642721209999976e+00,-7.258273677180000938e+00,-8.341154456139999729e-01,2.526890516279999943e+00,-2.366881370540000251e+00,0.000000000000000000e+00
2.815290134000000055e+00,-1.446889976029999803e+00,-2.084610956460000164e+00,-7.149807457239999664e+00,-8.075016140940000087e-01,2.600923299789999810e+00,-2.452405214310000137e+00,0.000000000000000000e+00
2.820310490999999864e+00,-1.615393754429999884e+00,-2.222040236029999782e+00,-7.307537766560000314e+00,-7.952739596369999830e-01,2.663153171540000308e+00,-2.551225423809999615e+00,0.000000000000000000e+00
2.825281280000000006e+00,-2.109241539850000180e+00,-2.205876306079999960e+00,-7.539802800119999482e+00,-7.859250307080000164e-01,2.723224401470000000e+00,-2.611939430240000082e+00,0.000000000000000000e+00
2.830141805999999871e+00,-2.479025138699999964e+00,-2.062097657490000291e+00,-7.725750903669999836e+00,-7.706923484800000113e-01,2.807110786440000005e+00,-2.688214302059999561e+00,0.000000000000000000e+00
2.835132203000000128e+00,-2.929944613629999584e+00,-1.970847653030000091e+00,-7.916152479500000894e+00,-7.687103748319999985e-01,2.884736776350000031e+00,-2.718302488329999989e+00,0.000000000000000000e+00
2.840161767000000115e+00,-3.375667688949999690e+00,-1.908510731579999842e+00,-8.036571587560001007e+00,-7.293635606770000335e-01,2.999589920040000024e+00,-2.734601497649999935e+00,0.000000000000000000e+00
2.845301017999999793e+00,-3.916236455149999962e+00,-1.868913757470000103e+00,-8.190221934089999323e+00,-6.932008266449999345e-01,3.081431150440000266e+00,-2.711580991740000446e+00,0.000000000000000000e+00
2.850146083999999913e+00,-4.270697835580000046e+00,-1.961465784429999859e+00,-8.309337558339999319e+00,-6.493064761160000087e-01,3.178454160689999863e+00,-2.684232950210000190e+00,0.000000000000000000e+00
2.855242373999999916e+00,-4.511182123690000267e+00,-2.215028895959999744e+00,-8.312409220870000226e+00,-5.940201282500000568e-01,3.238869667049999901e+00,-2.675486326220000155e+00,0.000000000000000000e+00
2.860158182000000160e+00,-4.781301963869999838e+00,-2.497712595770000377e+00,-8.363107726970000044e+00,-5.746167898180000178e-01,3.296940565109999888e+00,-2.648435354229999650e+00,0.000000000000000000e+00
2.865130600000000083e+00,-4.941954882650000158e+00,-2.920116170309999593e+00,-8.471674484670000282e+00,-5.710632801060000485e-01,3.345914840699999893e+00,-2.651288509370000046e+00,0.000000000000000000e+00
2.870141241999999870e+00,-5.223168948299999670e+00,-3.342399333339999945e+00,-8.591581551550000029e+00,-5.890485048290000636e-01,3.353262662890000190e+00,-2.655296802520000110e+00,0.000000000000000000e+00
2.875119692000000171e+00,-5.513782125930000610e+00,-3.776029527549999987e+00,-8.802101201779999329e+00,-6.149092912670000022e-01,3.365701198579999609e+00,-2.675565004350000109e+00,0.000000000000000000e+00
2.880145998999999790e+00,-5.948036297259999827e+00,-4.039136274110000535e+00,-9.009383769780001217e+00,-6.590947508810000022e-01,3.384061336520000296e+00,-2.696130514140000489e+00,0.000000000000000000e+00
2.885132816000000044e+00,-6.409088459149999473e+00,-4.224880379510000061e+00,-9.399716966319999756e+00,-6.889454126360000652e-01,3.383715152739999787e+00,-2.765391349790000231e+00,0.000000000000000000e+00
2.890264415999999947e+00,-6.929498818929999970e+00,-4.234895285309999480e+00,-9.685372813809999926e+00,-7.225359678270000252e-01,3.406177043909999647e+00,-2.847992897030000137e+00,0.000000000000000000e+00
2.895132279999999891e+00,-7.337828275409999712e+00,-4.123619853170000127e+00,-9.938688818710000206e+00,-7.529546618459999063e-01,3.473610877990000123e+00,-2.953923225400000074e+00,0.000000000000000000e+00
2.900163424000000045e+00,-7.664222376000000558e+00,-4.109063212290000600e+00,-1.005251978049999906e+01,-7.524375915530000514e-01,3.547855615619999625e+00,-3.068273782729999954e+00,0.000000000000000000e+00
2.905145361000000204e+00,-7.886577425439998734e+00,-4.183685030290000384e+00,-1.012762499819999995e+01,-7.029454708100000282e-01,3.665560960769999710e+00,-3.197854042049999901e+00,0.000000000000000000e+00
2.910155245999999973e+00,-8.047555338389999591e+00,-4.311594494110000397e+00,-1.013147115219999961e+01,-6.825940608980000102e-01,3.724879741670000133e+00,-3.322352170940000349e+00,0.000000000000000000e+00
2.915240799999999854e+00,-8.094576032760000928e+00,-4.526097076490000148e+00,-1.020326563779999951e+01,-6.518184542660000469e-01,3.795783758159999799e+00,-3.447394609449999869e+00,0.000000000000000000e+00
2.920175924000000034e+00,-7.953063283260000560e+00,-4.666256950069999299e+00,-1.014175990649999903e+01,-6.299390196799999897e-01,3.807526111600000096e+00,-3.590977430340000609e+00,0.000000000000000000e+00
2.925271636999999814e+00,-7.949673056299999985e+00,-4.847163552319999624e+00,-1.014359530519999986e+01,-5.967632532119999667e-01,3.807659864430000152e+00,-3.717868566509999528e+00,0.000000000000000000e+00
