t,ax,ay,az,wx,wy,wz,zv
5.083739000000000313e-03,-2.659339620269999926e+00,-2.109545345099999858e-01,-9.431362981419999514e+00,2.449143677949999504e-03,5.606438498940001123e-04,1.266805734489999911e-02,1.000000000000000000e+00
1.035313499999999942e-02,-2.581601423820000019e+00,-2.311821519640000211e-01,-9.426820077300000378e+00,-7.828507572409999782e-03,2.440397161989999938e-03,-1.000813022259999970e-02,1.000000000000000000e+00
1.522684200000000085e-02,-2.695515387769999993e+00,-2.407964410709999836e-01,-9.444220124910000180e+00,-1.427509589119999945e-03,7.314680144189999837e-03,1.797390542920000028e-02,1.000000000000000000e+00
2.038363300000000169e-02,-2.638018892090000289e+00,-2.610262870160000026e-01,-9.455295061150000180e+00,-1.496526412669999927e-03,2.037637867030000008e-03,4.255491308870000024e-03,1.000000000000000000e+00
2.540947199999999892e-02,-2.644079507299999854e+00,-2.631527959169999709e-01,-9.413243971889999173e+00,1.174720935519999983e-03,-3.948388621210000265e-05,9.530832059680000024e-03,1.000000000000000000e+00
3.028824800000000025e-02,-2.687158478309999765e+00,-2.022852894339999819e-01,-9.415438851579999380e+00,6.206695106810000001e-04,9.917305782440001202e-03,4.936086945240000107e-03,1.000000000000000000e+00
3.523628000000000177e-02,-2.581621882079999875e+00,-2.480699574720000022e-01,-9.445212643080001413e+00,2.074382733549999872e-03,-6.384512409569999616e-03,-6.914127618069998774e-03,1.000000000000000000e+00
4.020090199999999669e-02,-2.688818520479999918e+00,-2.180514522339999928e-01,-9.433239881210001343e+00,-5.810803850179999987e-04,5.266005173329999477e-03,1.053406018760000111e-02,1.000000000000000000e+00
4.531178599999999973e-02,-2.638262637720000026e+00,-2.298735901159999762e-01,-9.417008292860000296e+00,-7.408822886649999752e-03,-2.644582884389999524e-03,1.189206261189999954e-02,1.000000000000000000e+00
5.016813199999999723e-02,-2.603376033249999999e+00,-2.167165686349999953e-01,-9.406513202330000212e+00,-8.221346884970000962e-03,-4.744914826010000232e-03,-1.974706770849999835e-03,1.000000000000000000e+00
5.524182999999999871e-02,-2.675991187609999766e+00,-2.038495065439999976e-01,-9.443909743789999922e+00,-1.889513060449999823e-02,-7.240392733369999285e-03,5.984690971670000512e-03,1.000000000000000000e+00
6.020137300000000247e-02,-2.612802325510000134e+00,-2.207614235789999990e-01,-9.459142384230000644e+00,-2.946582250299999844e-02,1.003891881559999984e-02,-1.343702897429999946e-04,1.000000000000000000e+00
6.522536199999999507e-02,-2.673664498219999963e+00,-2.132654965999999930e-01,-9.431944580699999747e+00,-1.006329525259999982e-02,-5.870326422150000650e-04,7.187777198850000063e-03,1.000000000000000000e+00
7.024275200000000552e-02,-2.612567347709999765e+00,-2.268650924830000193e-01,-9.474777760260000292e+00,1.184054417539999893e-03,8.789439685639999222e-03,3.928449936210000673e-03,1.000000000000000000e+00
7.521725999999999412e-02,-2.624618727770000159e+00,-2.145752274909999979e-01,-9.433965272880000086e+00,9.148972108959999017e-03,5.524539388719999951e-03,8.720911573619999184e-04,1.000000000000000000e+00
8.021477500000000205e-02,-2.617996387020000260e+00,-2.089416237850000024e-01,-9.459791788049999539e+00,-2.162718679760000130e-03,2.366124652329999745e-03,7.259704172609998847e-03,1.000000000000000000e+00
8.523001900000000408e-02,-2.612043323830000041e+00,-2.136174701089999795e-01,-9.460250637730000633e+00,1.326233148569999848e-03,-2.285640221090000444e-04,-1.628479803910000152e-03,1.000000000000000000e+00
9.021814100000000169e-02,-2.663416952720000008e+00,-2.252240655440000128e-01,-9.429006773690000287e+00,-7.527384907009999904e-03,-4.848367068920000043e-03,1.318646874279999839e-02,1.000000000000000000e+00
9.533032600000000689e-02,-2.618573017859999741e+00,-2.074943293200000038e-01,-9.443352694419999693e+00,-3.464737441389999489e-03,-6.411483511329999982e-03,3.431577002630000275e-03,1.000000000000000000e+00
1.001949260000000036e-01,-2.635434428549999986e+00,-2.193599958159999919e-01,-9.438594686240000087e+00,-2.089368551970000043e-02,-1.507396623489999990e-02,4.014952108260000374e-03,1.000000000000000000e+00
1.051946910000000068e-01,-2.618476864009999794e+00,-2.516424821959999947e-01,-9.454134200680000433e+00,-1.747249159959999871e-03,-1.287779305130000223e-03,5.430739838630000045e-04,1.000000000000000000e+00
1.103443749999999945e-01,-2.638154208900000075e+00,-2.192694497219999927e-01,-9.430105674840000063e+00,-1.932945847509999829e-02,7.074058987199999086e-03,8.307560347019999941e-05,1.000000000000000000e+00
1.152500639999999993e-01,-2.648536194450000103e+00,-1.765169889869999953e-01,-9.438714513229999881e+00,-5.394300445909999339e-03,-1.361376419660000059e-02,4.037325270469999290e-03,1.000000000000000000e+00
1.201390309999999934e-01,-2.636178232659999843e+00,-1.966597411699999853e-01,-9.431297514969999796e+00,-2.369871828709999885e-03,-6.720989011229999699e-03,-2.954346127809999510e-04,1.000000000000000000e+00
1.251490889999999911e-01,-2.632147077439999983e+00,-2.242915521999999939e-01,-9.453255664280000303e+00,-2.957522403450000160e-03,4.170691128820000482e-03,5.259145982560001036e-03,1.000000000000000000e+00
1.302637259999999964e-01,-2.631717161590000131e+00,-2.120773827939999856e-01,-9.419704692330000739e+00,-5.332428030669999694e-03,-1.585861295460000084e-02,6.473470479249999326e-03,1.000000000000000000e+00
1.352761510000000111e-01,-2.590266084050000028e+00,-1.838191652270000087e-01,-9.445496136190000058e+00,-1.689968444410000145e-02,1.295622251930000045e-02,-4.101383034139999967e-03,1.000000000000000000e+00
1.402146089999999901e-01,-2.644228852640000405e+00,-1.976771563180000080e-01,-9.405466323620000679e+00,-5.857284180819999526e-03,-6.521217059340000087e-03,3.019401105120000060e-03,1.000000000000000000e+00
1.452647800000000100e-01,-2.630809399099999890e+00,-1.753723489970000216e-01,-9.446863332889998688e+00,-6.819759029899999901e-03,4.874843638390000816e-03,-5.727720912549999488e-03,1.000000000000000000e+00
1.501454389999999917e-01,-2.617832428629999875e+00,-2.098248546260000069e-01,-9.427368358829999906e+00,-1.536876661700000085e-03,2.290620468559999984e-03,-3.046023659409999827e-03,1.000000000000000000e+00
1.552885280000000090e-01,-2.624211023750000038e+00,-2.050503702340000234e-01,-9.428388349530001378e+00,-8.167967200279999118e-03,1.305834203960000092e-02,-7.339103613049999687e-04,1.000000000000000000e+00
1.601603500000000069e-01,-2.635571791199999847e+00,-2.192522428589999961e-01,-9.426632445770000146e+00,5.087487399580000076e-03,6.906715221700000275e-03,-6.742510013280001617e-04,1.000000000000000000e+00
1.651363610000000093e-01,-2.648124106520000076e+00,-2.227055616510000002e-01,-9.416818907759999746e+00,2.162325661630000017e-03,4.695795476439999436e-03,1.500132726510000104e-03,1.000000000000000000e+00
1.702203449999999951e-01,-2.635332721740000217e+00,-1.964270283929999972e-01,-9.403898635910000081e+00,-5.978753324600000370e-03,1.426043361429999747e-02,-2.612187527119999748e-03,1.000000000000000000e+00
1.753978549999999914e-01,-2.645534090019999951e+00,-2.135245676610000032e-01,-9.462887415980000938e+00,1.019475236539999982e-02,1.744310744109999964e-02,-1.089533790950000108e-02,1.000000000000000000e+00
1.802205709999999961e-01,-2.624529880440000351e+00,-1.931904210920000198e-01,-9.434303711050000985e+00,-3.668618155639999812e-03,8.767130784690000192e-03,-1.077129505570000034e-02,1.000000000000000000e+00
1.852749089999999876e-01,-2.636589443809999711e+00,-2.160145030469999838e-01,-9.451457090429999042e+00,-2.193765249099999606e-03,-2.061057370160000127e-03,6.269533187149999368e-03,1.000000000000000000e+00
1.902596390000000082e-01,-2.576445063970000060e+00,-2.112847345789999887e-01,-9.451703758660000787e+00,5.589475389570000390e-03,-4.223733209070000376e-03,-3.656249726189999931e-03,1.000000000000000000e+00
1.952558640000000012e-01,-2.600076699440000194e+00,-2.122493600930000224e-01,-9.432156177630000471e+00,1.126095559450000089e-02,4.283369053160000252e-03,-9.443273767829999527e-03,1.000000000000000000e+00
2.000976130000000075e-01,-2.645040461290000255e+00,-2.017472370349999988e-01,-9.456059031260000580e+00,2.123671211299999959e-02,9.094395674770000201e-03,7.139138877390000665e-03,1.000000000000000000e+00
2.051791099999999979e-01,-2.610449624900000209e+00,-2.196477632490000109e-01,-9.466412667500000211e+00,-1.883072312920000199e-03,-1.356069557370000005e-02,1.651138765739999965e-03,1.000000000000000000e+00
2.103873980000000032e-01,-2.625788356069999718e+00,-2.157095104850000056e-01,-9.429079838919999901e+00,-7.633438333870000425e-03,3.909516148270000477e-03,-2.642361680050000442e-03,1.000000000000000000e+00
2.152210169999999867e-01,-2.618405260079999852e+00,-2.374337049060000204e-01,-9.458066279430001444e+00,4.621354863050000650e-03,1.644615828990000223e-02,-1.767013221980000140e-03,1.000000000000000000e+00
2.202282170000000039e-01,-2.596945707940000236e+00,-1.870684493470000098e-01,-9.409614675469999412e+00,2.225363068279999704e-02,-9.596870280799999972e-03,-1.013255771250000034e-02,1.000000000000000000e+00
2.253985450000000057e-01,-2.682486687109999934e+00,-2.322361362629999926e-01,-9.432467727799998869e+00,6.990168243650000078e-03,5.984997376799999769e-03,-7.619540207090000697e-03,1.000000000000000000e+00
2.302825310000000125e-01,-2.622516202529999951e+00,-2.181237320190000106e-01,-9.428217669139998591e+00,8.634782396260001075e-03,7.979520596559999679e-03,-7.498492486770000874e-03,1.000000000000000000e+00
2.350963319999999912e-01,-2.610590494670000261e+00,-2.351525169000000248e-01,-9.459939672089999974e+00,1.552467467260000089e-03,6.872539408499999877e-03,9.976173751060002023e-04,1.000000000000000000e+00
2.402378990000000047e-01,-2.582237383629999883e+00,-2.064124341010000196e-01,-9.440375724439999061e+00,2.132171764970000084e-03,1.022970862689999948e-02,-1.689771376549999843e-02,1.000000000000000000e+00
2.452388070000000031e-01,-2.635124047430000171e+00,-2.039088720479999839e-01,-9.420501395669999667e+00,-1.041290536520000053e-02,1.193566806610000045e-02,-1.070815720600000161e-03,1.000000000000000000e+00
2.502087920000000132e-01,-2.640139829759999834e+00,-2.477964925589999923e-01,-9.414043597830000110e+00,6.955618970100000548e-03,1.177693344650000175e-02,7.812527008350000912e-03,1.000000000000000000e+00
2.550974630000000243e-01,-2.627453366670000179e+00,-2.421742870290000127e-01,-9.460015659930000709e+00,7.322442252189999973e-03,-2.053752308710000106e-03,-1.637483946979999966e-04,1.000000000000000000e+00
2.602284360000000074e-01,-2.653516028690000361e+00,-2.097336144130000080e-01,-9.423215330799999734e+00,-1.072586234660000137e-02,4.702039528640000569e-03,4.247093573209999827e-03,1.000000000000000000e+00
2.652450069999999771e-01,-2.632756441509999767e+00,-2.061106564090000037e-01,-9.413909157799999150e+00,9.041248820719998899e-03,1.557058840989999915e-02,1.779217505829999886e-03,1.000000000000000000e+00
2.701770880000000097e-01,-2.623128781470000170e+00,-2.231162796099999956e-01,-9.449915121680000141e+00,-2.778657246380000084e-03,9.668168611820000466e-03,3.101879265159999521e-04,1.000000000000000000e+00
2.753201009999999838e-01,-2.661405905149999640e+00,-2.422313144460000178e-01,-9.467137474639999439e+00,3.393222577869999673e-03,-2.919243415820000145e-03,9.024986997250000059e-03,1.000000000000000000e+00
2.802143400000000062e-01,-2.589910402480000151e+00,-2.288899676400000249e-01,-9.427401092060000209e+00,-9.813306853179999678e-03,3.911267034710000021e-03,-6.346820853649999192e-03,1.000000000000000000e+00
2.851070170000000181e-01,-2.613303553030000170e+00,-2.207252380209999976e-01,-9.442056809400000361e+00,-6.759704556319999242e-04,1.199043914679999955e-02,-4.863660316909999663e-03,1.000000000000000000e+00
2.902144320000000222e-01,-2.605286543050000070e+00,-2.075625174509999893e-01,-9.430404365519999388e+00,3.645937889810000124e-03,-1.058191992339999926e-05,-4.293806385250000142e-03,1.000000000000000000e+00
2.952978190000000169e-01,-2.620565068459999924e+00,-2.447190578750000067e-01,-9.471310960930001244e+00,-8.770002052189999550e-03,4.371055401860000130e-04,-6.058362778279999770e-03,1.000000000000000000e+00
3.002412620000000087e-01,-2.640613292490000319e+00,-2.268930582020000086e-01,-9.467094804540000297e+00,3.715936560179999588e-03,-7.944938261060000787e-04,9.872752241790001479e-03,1.000000000000000000e+00
3.052779970000000231e-01,-2.586101073320000054e+00,-2.051964459070000080e-01,-9.433861227979999597e+00,1.026670075949999948e-02,-1.302676508200000102e-03,-1.764952787200000034e-03,1.000000000000000000e+00
3.103074949999999887e-01,-2.594390762759999802e+00,-2.066254009980000306e-01,-9.454617600280000644e+00,1.462506595999999923e-02,6.827441044149999694e-03,-6.753355264660000244e-04,1.000000000000000000e+00
3.152108020000000121e-01,-2.629343418199999949e+00,-2.182869597569999931e-01,-9.441621340589998468e+00,-6.493566557770000421e-03,1.322791911660000123e-03,1.075120409950000100e-03,1.000000000000000000e+00
3.203378649999999994e-01,-2.623383633009999993e+00,-2.303129313819999857e-01,-9.458141098230001376e+00,6.243003997949999988e-03,2.044359687719999805e-03,-1.884111901749999920e-03,1.000000000000000000e+00
3.252952869999999885e-01,-2.607779528909999645e+00,-2.408952800690000173e-01,-9.441534246830000754e+00,1.467569358650000141e-02,-4.866346716880000096e-05,-9.812302887440000135e-03,1.000000000000000000e+00
3.302856499999999862e-01,-2.667647722149999900e+00,-2.266337862109999990e-01,-9.447293541010001405e+00,1.421260833739999840e-02,-1.633464917539999978e-02,7.402692921459999228e-03,1.000000000000000000e+00
3.351310570000000100e-01,-2.595105633030000192e+00,-2.336482315509999796e-01,-9.421799618789998831e+00,1.512032095339999917e-02,-4.770501051100000875e-03,1.640377333390000006e-03,1.000000000000000000e+00
3.402993489999999732e-01,-2.609099379329999913e+00,-2.554124474549999690e-01,-9.467805583160000538e+00,-6.921604275699999760e-03,-8.567957207559999747e-03,-3.331250743939999891e-03,1.000000000000000000e+00
3.452840110000000018e-01,-2.599594468890000343e+00,-2.122966698339999736e-01,-9.427963402110000501e+00,4.054197575900000267e-03,5.257824435830000045e-03,-6.027379073200000124e-03,1.000000000000000000e+00
3.502847700000000231e-01,-2.584745567059999694e+00,-2.373101515920000015e-01,-9.433630341830001598e+00,9.376750327650000549e-03,-7.741084322329999136e-03,-1.833769865330000040e-02,1.000000000000000000e+00
3.552346679999999757e-01,-2.643114753920000393e+00,-2.181308924130000160e-01,-9.420376307989998921e+00,9.111737832429999892e-03,-1.120547298339999963e-02,-5.593049339949999685e-03,1.000000000000000000e+00
3.603114809999999890e-01,-2.615920749789999888e+00,-2.516026251099999778e-01,-9.435906470069999941e+00,8.728033280930000458e-04,1.548464410009999957e-03,-2.130350098009999894e-03,1.000000000000000000e+00
3.653218509999999752e-01,-2.636368786790000307e+00,-2.312878956280000065e-01,-9.435328962450000745e+00,-6.862251553680000053e-03,-1.440938562149999928e-02,-8.838798385109999586e-04,1.000000000000000000e+00
3.702592029999999812e-01,-2.619623988219999866e+00,-2.314036674940000149e-01,-9.446238478989998910e+00,-5.383628304119999260e-04,8.862727321680001144e-03,-5.141302011910000268e-03,1.000000000000000000e+00
3.752356880000000117e-01,-2.612233293450000104e+00,-2.291844022760000099e-01,-9.459726906120000223e+00,-9.385834448040000083e-03,5.112553015350000500e-03,-7.068130187689999552e-03,1.000000000000000000e+00
3.803979279999999963e-01,-2.631082078559999982e+00,-2.446799131749999856e-01,-9.466555290840000580e+00,3.243229584770000035e-03,1.408905535939999898e-02,-3.180460305880000119e-03,1.000000000000000000e+00
3.852125009999999850e-01,-2.647991127790000121e+00,-2.277439576770000085e-01,-9.450025011799999319e+00,-6.657314486800000597e-03,-2.841695677489999849e-03,-1.064153481270000041e-02,1.000000000000000000e+00
3.901583270000000270e-01,-2.632013806450000271e+00,-2.064325818399999901e-01,-9.450922252899999876e+00,1.563330739739999739e-02,4.124504048379999850e-03,-1.326268259439999930e-02,1.000000000000000000e+00
3.952460649999999798e-01,-2.630524736939999997e+00,-2.110648995490000124e-01,-9.430992979070000004e+00,9.470765478909999244e-03,1.010279078040000021e-02,-9.942300617690000980e-03,1.000000000000000000e+00
4.002562279999999917e-01,-2.628847159120000221e+00,-2.612604428310000282e-01,-9.455867308080000200e+00,-9.699567453939998956e-04,3.652658313510000112e-03,-4.266780801119999730e-03,1.000000000000000000e+00
4.051239549999999801e-01,-2.597031924920000012e+00,-2.350748302879999974e-01,-9.449225385850001047e+00,1.499023847279999828e-02,-1.343626179730000089e-03,-9.097126312549998553e-03,1.000000000000000000e+00
4.103475409999999823e-01,-2.646784382340000352e+00,-2.442362975930000013e-01,-9.410807684650000837e+00,1.715577673170000242e-03,-2.271775715050000297e-02,8.369876071810000706e-03,1.000000000000000000e+00
4.150880319999999957e-01,-2.589100547400000174e+00,-2.577383331199999961e-01,-9.460700135069998851e+00,6.582830101250000156e-03,-5.573553964500000020e-03,-5.587778054179999739e-03,1.000000000000000000e+00
4.201406939999999812e-01,-2.647382932759999807e+00,-2.136705520030000027e-01,-9.452758820669998840e+00,-2.930081682280000037e-03,5.987420678140000993e-03,1.176552008840000066e-02,1.000000000000000000e+00
4.252833710000000211e-01,-2.626194598779999723e+00,-2.219785077510000038e-01,-9.462591647900000069e+00,-1.879078894850000001e-02,5.680344067509999692e-03,3.590989159419999931e-03,1.000000000000000000e+00
4.302026360000000271e-01,-2.587629013539999967e+00,-2.533215761229999918e-01,-9.491185289700000638e+00,4.343138076359999780e-03,-2.581547945739999777e-03,-1.429044641550000110e-04,1.000000000000000000e+00
4.351330420000000254e-01,-2.647480547919999871e+00,-2.133403519339999999e-01,-9.427960479500001156e+00,-9.039915166799998222e-03,-4.950648173689999217e-03,8.257736917589999321e-04,1.000000000000000000e+00
4.401548880000000219e-01,-2.612331493120000125e+00,-2.231426561600000080e-01,-9.451248416110001216e+00,8.269690908489999923e-03,-6.022541783749999758e-04,-4.039382096379999683e-03,1.000000000000000000e+00
4.452321289999999765e-01,-2.616816237320000127e+00,-1.969295162889999895e-01,-9.444396650519999881e+00,2.145887119699999880e-03,-1.830804860219999945e-03,-4.562465474010000445e-03,1.000000000000000000e+00
4.502525800000000133e-01,-2.615540810559999763e+00,-2.375394485690000002e-01,-9.457660621239998733e+00,4.851354751739999673e-03,2.816579770300000046e-03,1.842174911869999673e-03,1.000000000000000000e+00
4.552089639999999937e-01,-2.606248958340000144e+00,-2.504797768259999780e-01,-9.447564759160000492e+00,-4.706082399930000895e-03,-4.829633980990000446e-04,-4.513972438870000013e-03,1.000000000000000000e+00
4.602361979999999853e-01,-2.684309810879999869e+00,-2.325711769040000043e-01,-9.451635369599999947e+00,-6.615146994590000336e-03,-1.811241358520000039e-02,1.443366426970000074e-02,1.000000000000000000e+00
4.651723369999999913e-01,-2.561043788960000178e+00,-2.185917513900000331e-01,-9.466226205010000783e+00,5.986591801050000078e-03,-5.713957361880000335e-03,-5.583961959930000205e-03,1.000000000000000000e+00
4.701957279999999795e-01,-2.654422329880000042e+00,-2.003014221409999962e-01,-9.430621807669998802e+00,8.893177844580000060e-03,1.084031816570000042e-02,2.079238416629999777e-03,1.000000000000000000e+00
4.751757360000000152e-01,-2.616913560219999990e+00,-2.420284305519999901e-01,-9.435526530840000703e+00,1.414403971280000019e-02,2.296441700309999855e-03,-1.802480081099999947e-03,1.000000000000000000e+00
4.802119009999999966e-01,-2.665330969640000269e+00,-2.443485805950000034e-01,-9.436177688229999916e+00,-8.504835888740000516e-03,-3.542557358739999943e-03,9.831335395569998706e-03,1.000000000000000000e+00
4.850679940000000023e-01,-2.643768833920000283e+00,-2.181560633859999931e-01,-9.436168920400000104e+00,-4.379730671639999774e-03,1.739448308940000007e-02,7.028133608399999427e-03,1.000000000000000000e+00
4.903793889999999989e-01,-2.602418878659999990e+00,-2.302786089869999775e-01,-9.442278927709999437e+00,1.723253168170000085e-02,2.070434391499999856e-03,8.044776506720001039e-03,1.000000000000000000e+00
4.952559999999999740e-01,-2.597669638300000194e+00,-2.171949267369999992e-01,-9.454628121679998998e+00,-5.997133906930000695e-03,4.417841788379999780e-03,-8.521702140570000875e-03,1.000000000000000000e+00
5.003269780000000333e-01,-2.622302559780000042e+00,-2.027832655519999916e-01,-9.429158749380000870e+00,1.564713567499999985e-02,-9.123054333030001378e-03,-7.842581253500000450e-04,1.000000000000000000e+00
5.052216640000000147e-01,-2.629282627919999893e+00,-2.518020932050000216e-01,-9.457481757540000089e+00,5.095549859109999719e-03,3.797607496380000271e-05,1.129028014840000038e-02,1.000000000000000000e+00
5.102378199999999531e-01,-2.596751062150000067e+00,-2.253493358910000077e-01,-9.434322415749999635e+00,-8.757466450330000929e-03,-1.021456532179999994e-02,-5.172849632800000097e-03,1.000000000000000000e+00
5.151845390000000524e-01,-2.630973942009999789e+00,-2.588462578290000038e-01,-9.452271913939998882e+00,-1.117497915400000007e-03,1.325803622599999905e-02,1.003072364260000019e-03,1.000000000000000000e+00
5.203563079999999896e-01,-2.562484050890000198e+00,-2.577257476329999908e-01,-9.452804413380000881e+00,1.439438201489999839e-04,2.991016954179999757e-03,-1.858185976740000037e-02,1.000000000000000000e+00
5.254025350000000039e-01,-2.644102303649999985e+00,-2.277325777660000050e-01,-9.429881218430001155e+00,-1.735992496830000105e-03,-3.230258589609999887e-03,-4.815986845640000263e-03,1.000000000000000000e+00
5.302201539999999991e-01,-2.607085116899999999e+00,-2.337880784130000056e-01,-9.438463753340000650e+00,-5.603232420979998782e-03,8.900570683180000428e-03,-5.104764830319999738e-03,1.000000000000000000e+00
5.351695730000000095e-01,-2.639817173680000018e+00,-2.256210289719999817e-01,-9.464246429369998381e+00,-2.139412099500000077e-03,5.884425714610000066e-03,2.175310393800000165e-03,1.000000000000000000e+00
5.402362609999999954e-01,-2.622152629909999977e+00,-2.207617523729999975e-01,-9.444563239260000742e+00,-1.488128444179999876e-03,-1.601145020690000059e-03,1.027795393020000149e-02,1.000000000000000000e+00
5.452666819999999470e-01,-2.618683784759999966e+00,-2.396761866030000243e-01,-9.434631043310000464e+00,8.103111758830000219e-03,1.567116007209999867e-03,1.220043376089999937e-02,1.000000000000000000e+00
5.501937839999999635e-01,-2.554758717340000373e+00,-2.267530834760000114e-01,-9.439286175639999499e+00,-4.176604095850000239e-03,-2.472946885969999793e-03,-1.290136715400000194e-03,1.000000000000000000e+00
5.551374399999999820e-01,-2.608254452940000245e+00,-2.482731153609999963e-01,-9.464491344039998921e+00,-1.344341412190000126e-02,1.119057089089999825e-02,-2.969187917190000466e-03,1.000000000000000000e+00
5.601919950000000537e-01,-2.614943136930000023e+00,-2.181744940920000153e-01,-9.418479534450000301e+00,2.221203409139999811e-03,-2.128990367050000079e-03,3.955164924259999860e-03,1.000000000000000000e+00
5.652332519999999638e-01,-2.578537944590000297e+00,-2.181584380070000218e-01,-9.411671607999998912e+00,-2.848012605679999670e-03,-8.085840381680000494e-03,-1.571768778380000075e-03,1.000000000000000000e+00
5.702869059999999823e-01,-2.606649648090000326e+00,-2.195105102029999977e-01,-9.437416290110000716e+00,1.940479967740000060e-03,4.823406692589999809e-03,-1.353467232549999998e-03,1.000000000000000000e+00
5.752385370000000497e-01,-2.625671159429999957e+00,-2.064887872729999907e-01,-9.448006657709999701e+00,-1.777378143740000185e-03,9.834656491879999185e-03,4.385414533319999079e-03,1.000000000000000000e+00
5.802494459999999465e-01,-2.556533033530000054e+00,-1.955985051470000013e-01,-9.413701652529999464e+00,-5.487348418679999923e-03,5.573619157079999324e-03,-5.873430054630001057e-04,1.000000000000000000e+00
5.851396989999999576e-01,-2.608839851609999982e+00,-2.233872237719999876e-01,-9.478083816070000722e+00,9.023666381840000222e-03,-2.245068177580000074e-02,3.099078079690000161e-03,1.000000000000000000e+00
5.901503759999999765e-01,-2.608922853720000212e+00,-2.454915400849999874e-01,-9.430359941860000816e+00,-9.963347110900000123e-04,-6.112367846069999278e-03,-4.878397565340000103e-03,1.000000000000000000e+00
5.952452879999999835e-01,-2.594855165399999830e+00,-2.611246876220000290e-01,-9.438235205279999818e+00,-9.658059105280000084e-03,-7.318646181370000448e-03,-5.527036264540000077e-03,1.000000000000000000e+00
6.001110010000000328e-01,-2.660610955379999698e+00,-2.686537131539999956e-01,-9.502458378869999223e+00,1.101452577860000115e-02,5.427509546279999167e-03,4.016912542279999637e-03,1.000000000000000000e+00
6.053347780000000178e-01,-2.638457283499999750e+00,-2.333576145740000052e-01,-9.408561951550000302e+00,5.358656868340000434e-03,7.638359442350000326e-03,3.908772952849999885e-03,1.000000000000000000e+00
6.102980630000000017e-01,-2.565992059010000048e+00,-1.934105483820000027e-01,-9.451597375680000468e+00,1.407538540659999905e-03,4.035868216310000041e-03,-1.579714007680000157e-02,1.000000000000000000e+00
6.153910409999999720e-01,-2.627146784940000313e+00,-2.256666034129999887e-01,-9.472506892720000238e+00,8.401142433289999698e-03,-2.551641780880000310e-03,-1.010906603189999989e-02,1.000000000000000000e+00
6.201817410000000086e-01,-2.610891815709999619e+00,-2.074769945919999747e-01,-9.428734971009999910e+00,5.769484676420000811e-03,-4.034880083050000274e-03,-8.226981386540000926e-03,1.000000000000000000e+00
6.252717009999999576e-01,-2.623321089170000064e+00,-2.682606769820000125e-01,-9.451531909229998973e+00,1.421187259259999898e-02,1.297706924380000008e-02,-1.090821251270000097e-02,1.000000000000000000e+00
6.302699459999999698e-01,-2.616903331079999617e+00,-2.299502903479999916e-01,-9.409790616560000487e+00,5.812411196530000573e-03,-1.063394732770000205e-02,-6.288394797590000657e-04,1.000000000000000000e+00
6.352682710000000510e-01,-2.615619136490000329e+00,-2.397411050659999932e-01,-9.444134200189999717e+00,2.560982946309999821e-03,-3.492978867139999444e-03,5.816659890120000342e-03,1.000000000000000000e+00
6.401666729999999639e-01,-2.598846573129999893e+00,-2.519553110050000155e-01,-9.482143320589999647e+00,8.132138289509999868e-03,-1.257725525649999992e-03,2.335992874580000277e-03,1.000000000000000000e+00
6.452606589999999587e-01,-2.626607271230000151e+00,-2.612394183100000267e-01,-9.461373504279999125e+00,1.679971115659999962e-03,1.149029936639999958e-02,5.643168464299999978e-03,1.000000000000000000e+00
6.502095959999999453e-01,-2.554448043949999914e+00,-2.386033880060000056e-01,-9.445650449969999585e+00,1.383145246650000111e-02,3.284133970739999946e-03,-1.360147632660000175e-02,1.000000000000000000e+00
6.550894170000000072e-01,-2.633899181809999934e+00,-2.253752740500000185e-01,-9.436842874139999893e+00,1.189293712379999902e-02,-4.013793077320000104e-03,-1.977972453460000168e-03,1.000000000000000000e+00
6.602684530000000329e-01,-2.643066823129999854e+00,-2.394372632809999846e-01,-9.427336794649999518e+00,4.991306923330000173e-03,1.586761325599999987e-03,-4.083587788049999889e-03,1.000000000000000000e+00
6.651921640000000302e-01,-2.635500187259999905e+00,-2.381700015579999996e-01,-9.413381919049999880e+00,3.351324470710000201e-03,-3.300328040499999564e-03,-3.916679881509999711e-03,1.000000000000000000e+00
6.702000390000000252e-01,-2.643441209400000158e+00,-2.469136453099999851e-01,-9.462187158749999938e+00,7.518741185780000984e-04,-7.288633845750000506e-03,-4.518271889540000389e-04,1.000000000000000000e+00
6.753995489999999879e-01,-2.641330208590000339e+00,-1.980151378350000213e-01,-9.444809322969998533e+00,3.283881116660000016e-03,-4.386645741759999991e-04,4.804083146149999879e-03,1.000000000000000000e+00
6.802699319999999661e-01,-2.606256264859999838e+00,-2.279980237689999967e-01,-9.475454636609999426e+00,1.077284477649999989e-02,-3.129516262560000373e-03,-1.055310294029999929e-02,1.000000000000000000e+00
6.852497699999999803e-01,-2.625580850800000032e+00,-2.691886602809999696e-01,-9.413877593620000539e+00,1.397281792009999989e-02,9.244519285860000254e-03,-2.887100679799999795e-03,1.000000000000000000e+00
6.903887610000000175e-01,-2.688088452640000181e+00,-2.503222299110000049e-01,-9.453146943210001041e+00,8.846601471299999839e-03,1.352658867840000022e-02,1.173845306039999863e-02,1.000000000000000000e+00
6.952340249999999777e-01,-2.612325355639999902e+00,-2.159306058890000102e-01,-9.451933475769999760e+00,-7.912144064899999732e-03,2.992550842459999836e-03,3.878468414769999963e-03,1.000000000000000000e+00
7.002318910000000507e-01,-2.634343418440000306e+00,-2.301302134919999964e-01,-9.447931838909999769e+00,1.722730230539999859e-03,9.328296408060000530e-03,1.643729163329999939e-03,1.000000000000000000e+00
7.051261890000000143e-01,-2.579394269159999808e+00,-2.419925189880000049e-01,-9.426433708330000272e+00,1.415140368039999839e-02,-5.450434982779999403e-03,-6.714119575920000221e-03,1.000000000000000000e+00
7.103011719999999807e-01,-2.642493991669999875e+00,-2.216719990859999934e-01,-9.429155242250001123e+00,-2.078216522930000001e-03,-8.849576115610000362e-03,-4.275084938850000089e-04,1.000000000000000000e+00
7.152325950000000265e-01,-2.643577695259999860e+00,-2.217729021770000197e-01,-9.434379698899999056e+00,6.972869392479999484e-03,8.842560462650000952e-03,1.433616410939999794e-02,1.000000000000000000e+00
7.202026030000000523e-01,-2.604927646609999758e+00,-2.454733103079999867e-01,-9.430200367390000338e+00,-4.106613807379999939e-03,-1.092946622519999980e-02,1.882271608339999716e-03,1.000000000000000000e+00
7.253037839999999514e-01,-2.579444538040000179e+00,-2.552446896730000137e-01,-9.449909860980000076e+00,1.285507995639999929e-02,1.214242819700000163e-02,-1.146984845400000029e-02,1.000000000000000000e+00
7.303336940000000332e-01,-2.639543909699999968e+00,-2.299903483639999802e-01,-9.431267704360001503e+00,7.070895750080000500e-03,1.028313022110000086e-02,-1.041756104679999843e-02,1.000000000000000000e+00
7.352852939999999782e-01,-2.636462018030000021e+00,-2.374610495710000047e-01,-9.456045002739999816e+00,-1.098532881589999941e-02,2.795565873380000121e-03,6.046516820790000246e-03,1.000000000000000000e+00
7.402670770000000511e-01,-2.613457574540000383e+00,-2.550440342680000416e-01,-9.440583229710000523e+00,1.905918493869999952e-02,-5.763863679020000963e-03,-7.032982073719999845e-03,1.000000000000000000e+00
7.452301850000000449e-01,-2.597754393979999854e+00,-2.610904382929999934e-01,-9.431267704360001503e+00,1.097860652949999953e-02,-8.450681343670000262e-03,-2.533762250099999905e-03,1.000000000000000000e+00
7.501844039999999714e-01,-2.568505795400000125e+00,-2.493026958709999852e-01,-9.441075981660000949e+00,5.731760058549999724e-03,1.928976271300000096e-04,-9.813123382629998850e-03,1.000000000000000000e+00
7.551476790000000161e-01,-2.615095112620000162e+00,-2.085665799270000065e-01,-9.420167049149998917e+00,-7.953558117149999232e-03,9.359743446109999865e-03,-9.444852359590000246e-03,1.000000000000000000e+00
7.601754200000000461e-01,-2.637071966629999764e+00,-2.385185044680000199e-01,-9.447233335249999087e+00,1.789104938509999618e-02,-2.094263676549999904e-03,-5.968499463049999542e-04,1.000000000000000000e+00
7.651130600000000115e-01,-2.596689102830000095e+00,-2.529588985569999893e-01,-9.456205746260000211e+00,1.841001212599999767e-03,1.296809874480000027e-02,3.424915485080000312e-04,1.000000000000000000e+00
7.702291749999999881e-01,-2.607173379709999850e+00,-2.302058542779999994e-01,-9.455192769820000009e+00,-3.893287619580000202e-03,1.567341573540000088e-02,-1.392477378250000022e-02,1.000000000000000000e+00
7.753824559999999977e-01,-2.681043794819999881e+00,-2.958649606850000113e-01,-9.473280799699999477e+00,5.916522932239998969e-04,9.374730288979999174e-03,2.110793627799999878e-02,1.000000000000000000e+00
7.802710990000000235e-01,-2.576303901929999807e+00,-2.358097569660000115e-01,-9.404625196619999628e+00,-1.787033397700000014e-06,-2.706875791769999904e-03,4.546034149829999982e-03,1.000000000000000000e+00
7.851851810000000098e-01,-2.583745450109999897e+00,-2.229106557690000157e-01,-9.423950074820000467e+00,-5.788910668340000940e-03,-5.902658682319998976e-03,-5.702736787500000022e-03,1.000000000000000000e+00
7.901526730000000276e-01,-2.586797823419999975e+00,-2.468059654179999840e-01,-9.432395831599999170e+00,-6.184941157699999983e-03,7.171726319939999636e-04,-9.723383933310000837e-03,1.000000000000000000e+00
7.953063729999999554e-01,-2.634858382230000018e+00,-2.658522641340000381e-01,-9.440179909610000308e+00,-4.890627460550000735e-04,-6.114388350399999061e-03,3.271687543019999745e-03,1.000000000000000000e+00
8.000968139999999895e-01,-2.566833770530000169e+00,-2.658110553399999909e-01,-9.417580539790000316e+00,-1.043856889010000115e-02,1.367166452109999999e-02,3.578184405339999725e-03,1.000000000000000000e+00
8.050668269999999849e-01,-2.582139183950000305e+00,-2.765756835259999824e-01,-9.427990290120000338e+00,-1.064610946920000085e-02,8.217246271669999963e-03,7.314548827710000076e-03,1.000000000000000000e+00
8.100791470000000549e-01,-2.577888248509999869e+00,-2.661606724960000059e-01,-9.465926345279999765e+00,-3.461628686640000081e-03,-1.780341495760000064e-03,3.424771828579999816e-03,1.000000000000000000e+00
8.151720230000000234e-01,-2.550061499429999934e+00,-2.376067051190000057e-01,-9.456039157519999350e+00,-9.143256582320000159e-03,6.563453003759999599e-03,-3.422947833309999965e-03,1.000000000000000000e+00
8.202055560000000023e-01,-2.583950325029999995e+00,-2.622270593739999822e-01,-9.415257649800000905e+00,1.380785368379999940e-03,-4.220114089549999864e-03,6.253047846259999869e-03,1.000000000000000000e+00
8.252288049999999542e-01,-2.553670922100000240e+00,-2.327290708790000218e-01,-9.440674415129999275e+00,-7.179746404289999787e-03,8.478280156849999499e-03,3.137774532659999734e-03,1.000000000000000000e+00
8.303347319999999643e-01,-2.609796421690000479e+00,-2.339377890819999972e-01,-9.459755547689999489e+00,-5.571612156930000337e-03,4.560186527670000503e-03,7.860606536269999778e-03,1.000000000000000000e+00
8.351453629999999739e-01,-2.575010062730000104e+00,-2.478038356150000232e-01,-9.409758467859999698e+00,6.108610425140000889e-03,7.099746726449999643e-03,-1.535689807499999830e-03,1.000000000000000000e+00
8.402074149999999575e-01,-2.595452839040000015e+00,-2.554693835410000169e-01,-9.469448089669999291e+00,-2.528272010389999783e-02,-7.573957555000000036e-03,1.173491822559999962e-03,1.000000000000000000e+00
8.452490200000000176e-01,-2.545892689310000012e+00,-2.684590856310000162e-01,-9.454155243469999803e+00,9.585667401549998953e-03,-4.948901943860000048e-03,-1.598101854320000195e-02,1.000000000000000000e+00
8.503950350000000213e-01,-2.638107739409999652e+00,-2.172552055570000085e-01,-9.459639227839998554e+00,-8.202279917900000619e-03,-7.921276614069999375e-03,-9.567668894310001580e-04,1.000000000000000000e+00
8.552312619999999921e-01,-2.609726863579999723e+00,-2.597325939429999675e-01,-9.417737776180000964e+00,-8.126157335939999948e-03,-1.840044371779999896e-02,2.358943922450000130e-03,1.000000000000000000e+00
8.602483389999999730e-01,-2.642246154389999990e+00,-2.332889149850000121e-01,-9.399104387379999537e+00,-5.626882892100000359e-03,-4.583267960699999831e-03,6.026170216500000183e-03,1.000000000000000000e+00
8.653143450000000403e-01,-2.624635386640000068e+00,-2.704364318520000032e-01,-9.422112922520000211e+00,7.031271699820000089e-03,-1.417461433450000136e-03,1.135742571199999974e-02,1.000000000000000000e+00
8.702659289999999936e-01,-2.575662681420000322e+00,-2.846624342719999978e-01,-9.412739529499999591e+00,-9.023282676940001107e-03,-1.718095503750000086e-02,-3.503280226139999631e-03,1.000000000000000000e+00
8.753563039999999740e-01,-2.558547003700000211e+00,-2.764576649030000000e-01,-9.401462348680000858e+00,-1.670703850690000158e-02,-6.161709316069999623e-03,4.104103893040000027e-03,1.000000000000000000e+00
8.802559009999999518e-01,-2.559921506929999868e+00,-2.632404559340000283e-01,-9.525483280619999604e+00,-6.289512850340000377e-03,-1.264011859889999957e-02,9.906367398799999224e-03,1.000000000000000000e+00
8.850499819999999573e-01,-2.585121706899999872e+00,-2.661251079920000095e-01,-9.466770394890000162e+00,-7.038909476250000685e-03,-6.507507525379999970e-03,3.603680757810000246e-03,1.000000000000000000e+00
8.901540000000000008e-01,-2.613393569399999894e+00,-2.195043361900000378e-01,-9.439692418350000835e+00,-4.563296213750000010e-03,5.123058333990000365e-03,1.213842816649999927e-02,1.000000000000000000e+00
8.951639700000000310e-01,-2.634972364000000233e+00,-2.314410038300000194e-01,-9.468904484310000313e+00,-1.037370134150000095e-02,-1.130279339850000057e-02,1.643077703190000101e-03,1.000000000000000000e+00
9.001299659999999481e-01,-2.633657189750000072e+00,-2.217660340450000045e-01,-9.432098894480001050e+00,-2.199447900060000002e-02,-1.535745896400000053e-02,1.318296138199999933e-02,1.000000000000000000e+00
9.052447409999999639e-01,-2.612332077640000083e+00,-2.100516308529999931e-01,-9.460293892350000178e+00,-5.821295082570000085e-03,-1.116092503070000019e-02,4.753489047289999672e-03,1.000000000000000000e+00
9.104632409999999787e-01,-2.647598621340000236e+00,-2.169582684370000014e-01,-9.436209252410000303e+00,5.681883543729999812e-03,-5.287699401380000289e-03,1.123220100999999978e-02,1.000000000000000000e+00
9.151641190000000536e-01,-2.645864929410000066e+00,-2.142322775389999823e-01,-9.399041259009999649e+00,-1.348697021600000177e-02,-7.219268474729999274e-03,1.324218232179999802e-02,1.000000000000000000e+00
9.202337590000000400e-01,-2.606618376170000140e+00,-2.542147255709999998e-01,-9.467845915169998960e+00,-2.197298593820000076e-02,-2.029376663270000131e-02,1.434033084659999853e-02,1.000000000000000000e+00
9.252642479999999559e-01,-2.597809046770000130e+00,-2.288721214559999717e-01,-9.434045936900000484e+00,-1.620594784620000076e-02,-1.266834978009999911e-02,8.292126003649999714e-04,1.000000000000000000e+00
9.303258140000000287e-01,-2.650304373160000004e+00,-2.767647398249999946e-01,-9.475115029389998611e+00,2.899079816420000334e-03,-1.854567974809999756e-02,8.140898309649998929e-03,1.000000000000000000e+00
9.352277129999999605e-01,-2.640388836090000080e+00,-2.432024245010000196e-01,-9.442181312560000706e+00,6.208449602129999939e-03,-7.129784207790000605e-03,1.438005361710000159e-02,1.000000000000000000e+00
9.401678100000000482e-01,-2.623350607529999934e+00,-2.231513143899999940e-01,-9.468124147590000206e+00,-2.215261338280000053e-05,-7.298097480089999790e-03,4.128533415500000060e-03,1.000000000000000000e+00
9.452296629999999977e-01,-2.642146785670000053e+00,-2.324239869849999973e-01,-9.445040209120000085e+00,-1.032007392499999926e-02,1.947207842020000010e-03,-2.684230916199999671e-03,1.000000000000000000e+00
9.502532110000000420e-01,-2.677166368870000035e+00,-2.326704360269999938e-01,-9.472543717600000690e+00,-1.240804418920000117e-02,-1.616867259140000040e-02,9.539805352690000628e-03,1.000000000000000000e+00
9.551915640000000485e-01,-2.598221719229999671e+00,-2.397995572549999899e-01,-9.452379465970000894e+00,-3.407784039150000156e-03,1.467275433239999954e-03,5.272810347379999936e-03,1.000000000000000000e+00
9.602342919999999893e-01,-2.639783271409999799e+00,-2.444180839009999773e-01,-9.450172895830000641e+00,6.207819678819999614e-04,9.504893794659999631e-03,5.080966278910000258e-03,1.000000000000000000e+00
9.652173990000000314e-01,-2.610102711160000144e+00,-2.671046205490000269e-01,-9.452908458280001369e+00,1.384878903629999797e-02,-2.470139414070000178e-03,-1.284750527700000101e-03,1.000000000000000000e+00
9.701746900000000062e-01,-2.652018775870000233e+00,-2.624848700599999862e-01,-9.476278227949999078e+00,-2.117058448490000480e-02,-7.722365669910000001e-03,4.575982689859999994e-03,1.000000000000000000e+00
9.751245570000000029e-01,-2.605440272300000082e+00,-2.083785648079999886e-01,-9.400908221930000863e+00,-7.046790327880000752e-03,2.507369033989999794e-03,-3.000308293850000030e-03,1.000000000000000000e+00
9.802463399999999938e-01,-2.639978793980000127e+00,-2.161976958599999832e-01,-9.486281151050000915e+00,-1.133411284539999862e-02,-6.307843141260000702e-03,-1.081991591490000021e-03,1.000000000000000000e+00
9.850806420000000063e-01,-2.644360370069999799e+00,-2.277068770690000021e-01,-9.435352927839998571e+00,6.111056427469999629e-04,-3.512274939570000486e-03,1.097876206040000052e-02,1.000000000000000000e+00
9.901586140000000480e-01,-2.608281925470000040e+00,-2.217144499879999953e-01,-9.430591997049999620e+00,5.044127348810000661e-03,-8.200695738199998558e-03,4.089945927259999899e-03,1.000000000000000000e+00
9.953039040000000170e-01,-2.647389947020000189e+00,-2.431611426419999777e-01,-9.441867424299999811e+00,-3.169616684320000505e-03,6.252327002579999814e-03,8.408444002269999454e-03,1.000000000000000000e+00
1.000068707000000057e+00,-2.635257610680000084e+00,-2.240895816209999836e-01,-9.440576215449999253e+00,-3.636245150119999953e-03,-3.466500435020000020e-03,2.428857842459999743e-03,1.000000000000000000e+00
1.005129729999999944e+00,-2.604231773299999997e+00,-2.410381774049999981e-01,-9.460544652239999408e+00,-5.095288157459999800e-03,-6.763235200199999193e-03,-1.845920225609999892e-03,1.000000000000000000e+00
1.010198090000000049e+00,-2.625754746059999700e+00,-2.121998401289999781e-01,-9.435122626220000086e+00,3.629404585810000038e-03,9.553692303600000088e-03,-5.243843421339999984e-03,1.000000000000000000e+00
1.015175461999999973e+00,-2.669897254649999940e+00,-2.326188702369999806e-01,-9.462122276819998845e+00,-1.106929406520000027e-02,-2.478692447769999686e-03,8.777805604040001680e-03,1.000000000000000000e+00
1.020189588000000036e+00,-2.647301391959999695e+00,-2.346444029809999776e-01,-9.428217084610000853e+00,4.136258736250000498e-03,8.120276033880000424e-03,2.769806655119999572e-03,1.000000000000000000e+00
1.025185762000000000e+00,-2.612614401720000146e+00,-2.131851431060000079e-01,-9.404589540789999091e+00,2.299525961279999878e-02,-1.270545180890000035e-02,1.246148021890000103e-03,1.000000000000000000e+00
1.030277384999999990e+00,-2.600344994989999936e+00,-2.134224224610000165e-01,-9.436481055089998904e+00,2.391339978199999872e-03,-3.153312485670000439e-03,-1.206934824589999886e-02,1.000000000000000000e+00
1.035186970999999900e+00,-2.578493228670000192e+00,-2.091341141499999945e-01,-9.463484797350000477e+00,7.554252166300000695e-03,4.543893039229999695e-03,-2.976514631880000129e-03,1.000000000000000000e+00
1.040190810999999993e+00,-2.628149239979999940e+00,-2.150817705079999809e-01,-9.482391157869999532e+00,9.779565036299999944e-03,1.836139243100000070e-03,8.177011273799999688e-03,1.000000000000000000e+00
1.045208960000000076e+00,-2.595855574620000272e+00,-2.446611354090000023e-01,-9.469850240730000479e+00,3.495628479870000263e-03,-7.080361247060000789e-04,-4.072003066540000327e-03,1.000000000000000000e+00
1.050139554000000031e+00,-2.587107035500000318e+00,-2.419145583810000111e-01,-9.421383439199999543e+00,8.780503994790000207e-04,5.107691511510000296e-03,-1.336891762910000052e-02,1.000000000000000000e+00
1.055196832999999890e+00,-2.649318576999999841e+00,-2.467543265619999981e-01,-9.439802892989998639e+00,2.772351028399999955e-03,-2.855396457019999945e-02,-1.991583034400000105e-03,1.000000000000000000e+00
1.060336276999999994e+00,-2.632358089850000304e+00,-2.303330791209999839e-01,-9.472875726030000720e+00,4.619179759170000468e-03,8.026777766640000311e-03,-7.105731405320000332e-03,1.000000000000000000e+00
1.065198633999999922e+00,-2.623127027899999852e+00,-2.194240374960000073e-01,-9.441310374939998695e+00,-2.094143303109999906e-03,-1.566687482410000169e-03,-7.032191380859999924e-03,1.000000000000000000e+00
1.070232818999999891e+00,-2.653367560129999969e+00,-2.086983530809999876e-01,-9.446798450960001148e+00,6.843743845819999332e-03,-6.157571915540000287e-03,-1.220597303470000129e-03,1.000000000000000000e+00
1.075217346000000074e+00,-2.641165957940000197e+00,-2.121310857420000140e-01,-9.425684935790000551e+00,-1.606295583769999993e-03,1.441666856409999989e-02,5.083779804409999624e-03,1.000000000000000000e+00
1.080225093999999997e+00,-2.601524560170000111e+00,-2.217316203180000056e-01,-9.434065810639998162e+00,2.087301341819999996e-03,6.606985814869999717e-03,-7.085021585229999384e-03,1.000000000000000000e+00
1.085149957999999915e+00,-2.638301508420000108e+00,-1.797993351260000205e-01,-9.401971467239999214e+00,-1.467902585860000018e-02,-7.911955937740000264e-03,-3.772913711149999700e-03,1.000000000000000000e+00
1.090260774999999960e+00,-2.619008486669999858e+00,-2.384245060420000228e-01,-9.435375724200000036e+00,-4.503664560620000180e-03,1.039881724860000113e-02,-2.896486083049999802e-03,1.000000000000000000e+00
1.095281047000000063e+00,-2.614386087569999795e+00,-2.182851879250000127e-01,-9.441703758169998295e+00,1.178529020399999953e-02,-4.641371779140000386e-04,-5.600980948659999058e-04,1.000000000000000000e+00
1.100079870999999931e+00,-2.624085059280000021e+00,-2.147492871499999956e-01,-9.455346499079999134e+00,-1.305749872700000085e-03,9.636864997449999960e-04,-5.469796247779999503e-03,1.000000000000000000e+00
1.105278831999999989e+00,-2.643365806069999824e+00,-1.946340257629999848e-01,-9.462972171649999709e+00,4.324334673579999927e-03,-7.655275985600000499e-03,5.096305161710000184e-03,1.000000000000000000e+00
1.110356759999999943e+00,-2.617828336970000169e+00,-2.109567082009999872e-01,-9.413550261360001059e+00,-9.064837358889998517e-03,3.995925653729999819e-03,1.660996302960000143e-02,1.000000000000000000e+00
1.115368426000000079e+00,-2.559220080659999841e+00,-2.108925203909999824e-01,-9.408605206169999846e+00,6.752934772519999726e-03,-5.313445813950000256e-03,-4.802858456970000162e-03,1.000000000000000000e+00
1.120279065000000074e+00,-2.601814483020000068e+00,-2.005899019599999833e-01,-9.445167634889999775e+00,-5.437423009430000440e-03,-5.513225682080000190e-03,7.736066356300000564e-03,1.000000000000000000e+00
1.125356988000000058e+00,-2.554898418070000066e+00,-2.027025649979999899e-01,-9.416383438960000518e+00,2.251742174850000083e-03,-3.220051294189999868e-03,-6.063096225260000346e-03,1.000000000000000000e+00
1.130257298000000077e+00,-2.565029351459999774e+00,-2.200191355779999858e-01,-9.480380987089999323e+00,4.812507424499999978e-03,-4.928109701719999777e-03,9.312776383010001576e-04,1.000000000000000000e+00
1.135168211000000094e+00,-2.593257959340000252e+00,-2.410657412659999999e-01,-9.456296931669999850e+00,9.359125397170000487e-04,6.646269932390000933e-03,2.181925810869999975e-04,1.000000000000000000e+00
1.140092899000000104e+00,-2.635834241520000010e+00,-2.074127519829999933e-01,-9.437160854049999159e+00,1.301791332660000126e-02,-6.142614874990001044e-04,-4.715353250499999468e-03,1.000000000000000000e+00
1.145269781000000098e+00,-2.642284148320000359e+00,-2.336431169839999766e-01,-9.447485848710000411e+00,1.864633522929999955e-03,1.463720388710000077e-02,-1.024920400229999834e-02,1.000000000000000000e+00
1.150328224999999982e+00,-2.679748494310000062e+00,-2.609057659079999647e-01,-9.433206563460000638e+00,1.870774850249999968e-02,6.259106099609999460e-03,7.384404540060000854e-03,1.000000000000000000e+00
1.155378444999999976e+00,-2.555115567949999722e+00,-2.635768117489999951e-01,-9.447669973100000007e+00,2.165442798290000137e-03,-6.657831370830000726e-03,-1.477892324329999930e-02,1.000000000000000000e+00
1.160252636000000059e+00,-2.663353532090000364e+00,-2.040798264350000002e-01,-9.453461415990000560e+00,-2.470786450430000145e-03,-1.633020490410000067e-02,7.745026610789999648e-03,1.000000000000000000e+00
1.165250829000000099e+00,-2.661169466050000043e+00,-2.454560851789999998e-01,-9.440098076539999994e+00,-3.909057937559999758e-03,-8.453993126750001044e-03,9.311983361840000042e-03,1.000000000000000000e+00
1.170369999000000050e+00,-2.587620245709999711e+00,-2.738839784900000129e-01,-9.420054820949999907e+00,1.369432173670000197e-02,3.186083398759999991e-03,-1.889490708709999980e-02,1.000000000000000000e+00
1.175218934999999965e+00,-2.661087048459999771e+00,-2.477613664469999755e-01,-9.421693235800001176e+00,1.732044108209999586e-02,-6.534692831340000244e-03,-5.163166671989999519e-03,1.000000000000000000e+00
1.180113976999999981e+00,-2.626517254859999539e+00,-2.504804892120000015e-01,-9.456579255739999468e+00,-8.001250680539998819e-04,9.819178842009999506e-03,-3.637485671790000128e-03,1.000000000000000000e+00
1.185087290000000015e+00,-2.643392401819999904e+00,-2.358131727660000010e-01,-9.416908924139999471e+00,3.168912371619999848e-05,1.431671902539999840e-02,-6.507127545769999643e-04,1.000000000000000000e+00
1.190333096999999896e+00,-2.621806592950000070e+00,-2.254211042199999737e-01,-9.446106377050000447e+00,8.064970374109999354e-03,-6.352197844539999097e-03,-8.651008829469999863e-05,1.000000000000000000e+00
1.195285080000000111e+00,-2.627647720200000148e+00,-2.137043994729999896e-01,-9.472055057300000414e+00,5.440270528199999886e-03,-1.327595952899999869e-02,-3.194609424100000074e-03,1.000000000000000000e+00
1.200066077000000009e+00,-2.611756031320000115e+00,-2.516125619819999937e-01,-9.436077734989998689e+00,-9.899077937010000022e-03,-2.460101386530000409e-03,7.905760779980000250e-03,1.000000000000000000e+00
1.205232673000000032e+00,-2.605225168250000056e+00,-2.469790204300000014e-01,-9.459341121669998742e+00,-7.505366811529999961e-04,-6.018668878819999866e-03,4.700283519919999826e-03,1.000000000000000000e+00
1.210348210999999896e+00,-2.590133982100000232e+00,-2.243097454439999805e-01,-9.451165414000000098e+00,-1.069324743000000036e-02,1.199482288210000115e-02,-6.001327652479999594e-03,1.000000000000000000e+00
1.215222559999999952e+00,-2.640506324990000042e+00,-1.982582076089999812e-01,-9.460029688460000585e+00,6.210808642209999543e-03,-1.059683598579999955e-02,1.467341836540000076e-02,1.000000000000000000e+00
1.220119592000000086e+00,-2.541028590409999843e+00,-2.243567629239999750e-01,-9.452637824640000019e+00,-6.346723530439999511e-03,7.709103636439998929e-03,-1.618631742889999753e-02,1.000000000000000000e+00
1.225272458999999925e+00,-2.665138661939999931e+00,-2.349150183500000044e-01,-9.448104272869999321e+00,5.126635544000000475e-03,6.447947584090000205e-03,9.005360770969999661e-04,1.000000000000000000e+00
1.230315177999999898e+00,-2.608153915179999949e+00,-2.252903905119999772e-01,-9.438425759419999395e+00,1.842007227240000100e-02,-3.114538267250000370e-04,-1.463393960149999944e-02,1.000000000000000000e+00
1.235222604000000057e+00,-2.668792800540000343e+00,-2.849546769509999633e-01,-9.462878063630000725e+00,1.318613998589999916e-03,6.587093695999999415e-03,-2.217253204440000278e-03,1.000000000000000000e+00
1.240248629000000102e+00,-2.641850725329999872e+00,-2.325603997810000156e-01,-9.458334574980000298e+00,9.860880672930000604e-03,8.384575136010000151e-03,-6.149150431159999992e-03,1.000000000000000000e+00
1.245332638999999908e+00,-2.643628256399999987e+00,-2.265657076779999946e-01,-9.442414536789998536e+00,1.027331687510000049e-02,1.163465622810000086e-02,3.708815900610000060e-03,1.000000000000000000e+00
1.250234089999999965e+00,-2.618672971100000080e+00,-2.328676756320000041e-01,-9.482958728630000778e+00,1.002924330529999901e-02,-1.260818727309999908e-02,1.342016039420000162e-03,1.000000000000000000e+00
1.255209822000000086e+00,-2.614430218969999942e+00,-2.337406042759999913e-01,-9.444884141779999354e+00,-1.649460988119999831e-03,-3.929407801479999768e-03,-1.311346888540000167e-03,1.000000000000000000e+00
1.260226496999999890e+00,-2.580334180359999952e+00,-2.423708690470000038e-01,-9.450217904019998727e+00,-1.009416300799999885e-03,-1.498852856459999966e-02,-1.044562458989999922e-02,1.000000000000000000e+00
1.265325301000000069e+00,-2.642659703630000134e+00,-2.364597818399999940e-01,-9.462790969869999458e+00,-6.476746406409999643e-03,2.474938519300000448e-03,1.856513088570000032e-03,1.000000000000000000e+00
1.270330897000000014e+00,-2.599826524080000034e+00,-2.291878911410000219e-01,-9.441676285650000722e+00,1.180968014519999908e-03,-1.361173298210000167e-02,-8.797303307799999705e-04,1.000000000000000000e+00
1.275259026999999934e+00,-2.627724584829999710e+00,-2.589414618320000083e-01,-9.452747714760000974e+00,7.612114422950000230e-04,3.656760789449999514e-03,-6.331910844889999598e-04,1.000000000000000000e+00
1.280293762999999974e+00,-2.650047768049999863e+00,-2.372792449969999828e-01,-9.422003616930000547e+00,1.214240211989999971e-02,-9.145110845569999133e-03,1.304740738120000083e-02,1.000000000000000000e+00
1.285184171999999903e+00,-2.564187055420000139e+00,-2.360911129239999795e-01,-9.414221292489999726e+00,1.101719588039999989e-02,-6.556787528100000914e-03,-7.268341258170000346e-03,1.000000000000000000e+00
1.290240403000000091e+00,-2.658236335209999801e+00,-2.124805385009999881e-01,-9.444719306599999697e+00,-6.456519942729999073e-03,-6.817748770119999233e-03,8.318917825819999515e-03,1.000000000000000000e+00
1.295270246999999930e+00,-2.589008192940000175e+00,-2.050993604740000142e-01,-9.409477897349999509e+00,1.368388719860000151e-02,4.779921844600000524e-03,-2.739184303210000053e-03,1.000000000000000000e+00
1.300145542000000098e+00,-2.618847158629999949e+00,-2.337431250260000037e-01,-9.426793773810000943e+00,-4.294147714969999766e-03,-2.834475599229999859e-04,-6.165036000310000763e-03,1.000000000000000000e+00
1.305293371000000091e+00,-2.639701146090000172e+00,-2.576337585000000319e-01,-9.430746895349999548e+00,1.208391692490000044e-02,-3.878827206790000110e-03,1.060090027749999858e-02,1.000000000000000000e+00
1.310340528000000004e+00,-2.560245624320000246e+00,-2.398674531249999908e-01,-9.431442476399999109e+00,2.646883949639999931e-03,8.337076753380001301e-03,-3.238403704019999791e-03,1.000000000000000000e+00
1.315223784000000062e+00,-2.615097158440000236e+00,-2.063430951920000034e-01,-9.408825570919999493e+00,3.651177976280000226e-03,-1.176550518720000105e-02,7.536329329010000265e-03,1.000000000000000000e+00
1.320119046999999934e+00,-2.576862412599999708e+00,-2.444607722650000148e-01,-9.413443878369999851e+00,-2.006438793609999910e-03,1.168355066329999740e-02,9.370278567080000042e-04,1.000000000000000000e+00
1.325348352000000007e+00,-2.605074361599999833e+00,-2.673672352739999702e-01,-9.457968664279999160e+00,9.785741567610001246e-03,-1.621424779300000008e-02,-2.511202590539999852e-03,1.000000000000000000e+00
1.330247705999999974e+00,-2.605701261329999685e+00,-2.091802183139999938e-01,-9.470240116830000332e+00,-3.583787474780000207e-03,-8.178442716600000870e-03,-7.008275948459999349e-03,1.000000000000000000e+00
1.335290625999999925e+00,-2.642919231350000064e+00,-1.849032524029999847e-01,-9.426574578099998547e+00,-7.925662212070000434e-03,-3.927057608959999904e-03,-8.129429072139999352e-03,1.000000000000000000e+00
1.340032928999999928e+00,-2.656489199280000157e+00,-2.194173337599999718e-01,-9.420919328820000160e+00,-1.420759130270000037e-03,-1.387942768629999747e-02,7.439926266669999802e-03,1.000000000000000000e+00
1.345216055999999938e+00,-2.572323015599999874e+00,-2.483174111609999790e-01,-9.457956973840000003e+00,-5.429910961539999997e-03,4.323921166360000150e-05,-1.531376596540000128e-02,1.000000000000000000e+00
1.350127888000000054e+00,-2.664219501269999846e+00,-2.453380482899999993e-01,-9.399918041849998573e+00,-9.473360143600000061e-03,5.481470376250000345e-03,-5.138345994060000872e-03,1.000000000000000000e+00
1.355276066999999918e+00,-2.603847157890000208e+00,-2.232134198409999881e-01,-9.443799853669998967e+00,1.944502117109999728e-03,-7.608123589309999726e-03,-1.220253854989999942e-02,1.000000000000000000e+00
1.360203606000000010e+00,-2.658196879979999760e+00,-2.052292156659999978e-01,-9.440608948670000444e+00,-4.341430030759999871e-03,-1.920226728539999950e-03,-7.875031791630000486e-03,1.000000000000000000e+00
1.365352726000000017e+00,-2.695791282099999631e+00,-1.941344239440000174e-01,-9.409859005619999550e+00,6.837122607979998976e-03,-6.675039883700000128e-03,-1.936500309970000042e-03,1.000000000000000000e+00
1.370137227000000069e+00,-2.659040345070000200e+00,-2.250497684230000073e-01,-9.393969947100000439e+00,8.469499647619999419e-03,-3.707139287139999632e-03,3.333843080329999993e-03,1.000000000000000000e+00
1.375236896999999958e+00,-2.650517431390000400e+00,-2.325364526500000029e-01,-9.430012735860000106e+00,2.688819775360000008e-03,9.647312574090001133e-03,9.638124145569998413e-03,1.000000000000000000e+00
1.380233508999999970e+00,-2.562146489499999902e+00,-2.543958542909999787e-01,-9.457799737449999355e+00,-5.012251902370000456e-03,1.528011634950000256e-03,5.570680368690000134e-04,1.000000000000000000e+00
1.385271327000000108e+00,-2.610318399729999683e+00,-2.374691232789999940e-01,-9.450254144380000554e+00,5.799653008579999658e-03,8.997284807259999656e-03,-1.370371505620000124e-02,1.000000000000000000e+00
1.390294098999999894e+00,-2.704128902329999917e+00,-2.122722295120000047e-01,-9.434276823039999371e+00,2.803582465280000501e-03,5.944862961769999989e-03,8.504168130459999891e-03,1.000000000000000000e+00
1.395260066000000077e+00,-2.611838156649999743e+00,-2.303756761530000030e-01,-9.447288864829999966e+00,1.625691540539999855e-02,-9.463669266549999378e-04,4.840253852310000444e-03,1.000000000000000000e+00
1.400220349999999891e+00,-2.637965408329999928e+00,-2.305303735249999986e-01,-9.478553187139999281e+00,1.117383036759999997e-02,1.156945805999999924e-02,-2.017731312659999925e-03,1.000000000000000000e+00
1.405155868999999891e+00,-2.573760647190000306e+00,-2.421680034189999942e-01,-9.415229592750000265e+00,-9.938242845239999429e-03,6.774059496819999880e-03,-1.361893955620000049e-04,1.000000000000000000e+00
1.410145897999999898e+00,-2.617070796599999749e+00,-2.588194794199999982e-01,-9.429597140789999443e+00,1.346797123549999843e-02,8.247840218249999009e-03,5.980627611280000221e-03,1.000000000000000000e+00
1.415362506999999992e+00,-2.604332603320000050e+00,-2.481947528950000093e-01,-9.444766068350000765e+00,4.465191625060000585e-03,-1.943125389520000321e-04,-1.653569750489999922e-03,1.000000000000000000e+00
1.420137245000000048e+00,-2.621504102879999909e+00,-2.411241934549999966e-01,-9.455346499079999134e+00,-4.545938223600000730e-03,-4.065968096259999637e-03,-4.149686545129999821e-03,1.000000000000000000e+00
1.425225321999999961e+00,-2.632197346329999910e+00,-2.244233070879999847e-01,-9.455091063010002017e+00,-5.511650815609999560e-03,1.420554332440000095e-02,-7.765361107890000891e-03,1.000000000000000000e+00
1.430231723999999982e+00,-2.672119314609999741e+00,-2.052475367740000112e-01,-9.445206213340000545e+00,6.025853566829999890e-03,8.353532291950000951e-03,6.045366171749999356e-04,1.000000000000000000e+00
1.435163710000000092e+00,-2.609272690070000067e+00,-2.517993167260000331e-01,-9.458388935519998597e+00,1.257131993770000018e-02,-5.221417173739999716e-03,-1.614999771120000094e-02,1.000000000000000000e+00
1.440094457000000050e+00,-2.626871475129999745e+00,-2.389461735619999860e-01,-9.478063357799999977e+00,1.230454165490000099e-02,3.242364153270000174e-03,-1.531232800329999921e-02,1.000000000000000000e+00
1.445319395999999923e+00,-2.591995392059999848e+00,-2.758516618340000059e-01,-9.460230179470000778e+00,2.552285790440000229e-02,5.101934075359999300e-03,-5.693147890270000913e-03,1.000000000000000000e+00
1.450252917000000030e+00,-2.600349086650000086e+00,-2.767268372330000115e-01,-9.442231581439999744e+00,-9.238334605470000481e-04,8.352860808370001292e-03,-1.436831336469999998e-02,1.000000000000000000e+00
1.455157529000000061e+00,-2.649891992970000221e+00,-2.649219427469999832e-01,-9.457480588500001062e+00,7.976375520230000529e-03,-6.192345172169999752e-03,-3.809697693210000163e-03,1.000000000000000000e+00
1.460249753000000039e+00,-2.639110486720000370e+00,-2.398385740910000119e-01,-9.445709486680000211e+00,1.049696840349999966e-02,4.132810514420000303e-03,8.656263817099999619e-04,1.000000000000000000e+00
1.465319599000000084e+00,-2.633915256159999885e+00,-2.731450332240000223e-01,-9.464439321600000454e+00,8.893083781000000326e-03,-6.352251861240000054e-03,-1.997942477459999783e-02,1.000000000000000000e+00
1.470109786000000085e+00,-2.689254866069999750e+00,-2.798969186370000028e-01,-9.409091528380001179e+00,1.125542633239999882e-02,1.377423666420000102e-02,8.354925084860000128e-04,1.000000000000000000e+00
1.475141559000000102e+00,-2.624042973699999948e+00,-2.731691812840000289e-01,-9.447908458029999679e+00,3.736155573280000412e-03,3.971327561889999996e-03,-1.228906796310000023e-03,1.000000000000000000e+00
1.480079896999999978e+00,-2.581328744349999926e+00,-2.338863146229999967e-01,-9.431225034260000584e+00,-8.977940306069999432e-03,5.057074129579999452e-03,-8.863867260520000638e-03,1.000000000000000000e+00
1.485142205000000049e+00,-2.576996560370000022e+00,-2.815380003750000415e-01,-9.437034012799999871e+00,5.318219307810000476e-03,1.798344217240000278e-02,-1.544432528319999998e-02,1.000000000000000000e+00
1.490115893000000025e+00,-2.613933667620000012e+00,-2.088602473779999913e-01,-9.435490875010000167e+00,1.463782042260000030e-03,-2.319012023509999659e-02,-1.845362782479999936e-02,1.000000000000000000e+00
1.495198655999999904e+00,-2.638127320900000239e+00,-2.086745520799999920e-01,-9.409562653029999169e+00,1.633556373420000027e-02,-1.371301710609999997e-03,-3.601926611739999454e-03,1.000000000000000000e+00
1.500273522000000082e+00,-2.613673847640000325e+00,-2.516193753150000045e-01,-9.433619820439998804e+00,1.618548063559999963e-03,-9.555721655490000480e-03,-1.319563575089999913e-02,1.000000000000000000e+00
1.505059260999999982e+00,-2.634516729180000016e+00,-2.059439398059999815e-01,-9.381274716169999195e+00,-2.577290637419999905e-03,1.401847228409999931e-02,-1.537144277239999891e-02,1.000000000000000000e+00
1.510344804000000041e+00,-2.633329565229999947e+00,-2.614044544119999980e-01,-9.457890922869999883e+00,-1.750486204400000063e-03,1.744104549290000084e-02,-6.516460329289999742e-03,1.000000000000000000e+00
1.515122837999999916e+00,-2.609185304049999932e+00,-2.445832844000000172e-01,-9.433319376189999161e+00,-1.226387359200000089e-02,9.797289036209999233e-03,-3.700107336039999868e-03,1.000000000000000000e+00
1.520202972999999957e+00,-2.648541747409999925e+00,-2.505206020269999945e-01,-9.446575163600000380e+00,1.081494241949999997e-02,8.429507724939999669e-03,1.425042049960000175e-03,1.000000000000000000e+00
1.525135628999999993e+00,-2.601082369359999813e+00,-2.302725080400000179e-01,-9.430904131739998419e+00,1.445705629889999962e-02,1.745043322440000336e-02,-2.205335535110000255e-03,1.000000000000000000e+00
1.530200514999999983e+00,-2.630812613970000324e+00,-2.075975522320000211e-01,-9.430483860499998983e+00,-7.573379669339999967e-03,6.784087978300000314e-03,-8.645437192170000356e-04,1.000000000000000000e+00
1.535215417000000082e+00,-2.637163152040000291e+00,-1.790116005479999994e-01,-9.429266301410001105e+00,1.568296179179999930e-02,4.278154578060000199e-03,-3.183840308340000189e-04,1.000000000000000000e+00
1.540202485000000010e+00,-2.597747964240000318e+00,-1.909013055079999965e-01,-9.425805931819999373e+00,2.921169158070000167e-03,2.393713034690000269e-02,-1.629697717729999829e-02,1.000000000000000000e+00
1.545247181999999997e+00,-2.631177647889999971e+00,-1.875774948470000092e-01,-9.464462702469999655e+00,-7.383120246229999892e-03,1.593753881749999934e-02,-2.807012945409999641e-02,1.000000000000000000e+00
1.550087867000000008e+00,-2.687851136749999981e+00,-2.381941130859999978e-01,-9.401026295350000339e+00,1.920834369959999871e-02,9.277860634030000997e-03,-8.226620964709999845e-03,1.000000000000000000e+00
1.555147398999999986e+00,-2.617892049859999570e+00,-3.252949802430000203e-01,-9.421439553300000824e+00,-8.709211833779999593e-03,2.153244242070000147e-02,-1.076676789670000071e-02,1.000000000000000000e+00
1.560326754000000093e+00,-2.653286603849999814e+00,-3.479641638970000228e-01,-9.425158866089999421e+00,1.028553489600000058e-02,7.097981870170000677e-05,1.003664825110000061e-02,1.000000000000000000e+00
1.565216146000000030e+00,-2.601854522770000067e+00,-2.304112041250000187e-01,-9.450902379149999533e+00,3.685267176479999768e-03,1.696106605229999800e-02,1.889215549450000116e-03,1.000000000000000000e+00
1.570128248000000060e+00,-2.578841603709999930e+00,-2.161646703730000230e-01,-9.444517646550000478e+00,-6.390642840419999415e-03,-5.274123512209999594e-03,-6.276798434560000930e-03,1.000000000000000000e+00
1.575192348999999936e+00,-2.607453365690000080e+00,-2.295176710850000135e-01,-9.477676404310001246e+00,1.472752168770000147e-02,3.060541581360000461e-03,-2.451438922440000046e-03,1.000000000000000000e+00
1.580240829999999930e+00,-2.625961082289999915e+00,-2.758103617089999737e-01,-9.468831419069999811e+00,1.143288891759999988e-02,8.767788298429999780e-03,8.002986200149999133e-03,1.000000000000000000e+00
1.585242263999999901e+00,-2.582524091619999851e+00,-2.995129435319999756e-01,-9.462440256729999888e+00,7.291075307879999433e-03,1.397114619609999935e-02,-8.145431056620000207e-03,1.000000000000000000e+00
1.590219569000000055e+00,-2.595503692440000343e+00,-2.959622470470000266e-01,-9.452570020099999581e+00,-1.135056931529999924e-02,1.192248798910000053e-02,-2.993822330610000030e-03,1.000000000000000000e+00
1.595240243999999974e+00,-2.581747262029999934e+00,-2.443150436510000134e-01,-9.402306398289999478e+00,-2.233006060119999744e-03,2.634783834219999940e-02,-1.411620806900000004e-02,1.000000000000000000e+00
1.600232365999999962e+00,-2.602606217920000020e+00,-2.576706747109999696e-01,-9.439287929199998928e+00,3.421556204559999658e-03,-2.384123858059999934e-03,-1.293964032079999993e-02,1.000000000000000000e+00
1.605088225000000035e+00,-2.573030871609999881e+00,-2.317132996990000082e-01,-9.451096440419998856e+00,-1.604327931999999929e-02,9.661315009000000578e-03,-1.139460410920000236e-02,1.000000000000000000e+00
1.610147664000000090e+00,-2.615729903390000111e+00,-2.278486784259999842e-01,-9.430693703860001165e+00,-1.780593022699999972e-02,1.579188555479999964e-02,-5.099870730189999882e-03,1.000000000000000000e+00
1.615075789000000039e+00,-2.574455059190000394e+00,-2.482126538780000113e-01,-9.430532375820000368e+00,-3.680809866639999511e-03,-1.101153809579999941e-02,7.250502239910000968e-04,1.000000000000000000e+00
1.620006775000000010e+00,-2.558519238909999771e+00,-2.425606925310000161e-01,-9.460676754189998761e+00,6.986150983720000422e-03,9.251832962040001246e-03,3.309973282739999724e-03,1.000000000000000000e+00
1.625249726000000061e+00,-2.549835289459999821e+00,-2.258632950290000163e-01,-9.459333522889998846e+00,-1.002831012010000147e-02,5.586968734859999557e-03,-3.275076160210000243e-03,1.000000000000000000e+00
1.630194928000000099e+00,-2.537751468429999768e+00,-2.462469615619999885e-01,-9.478262095239999852e+00,-2.320501254869999658e-03,7.416204549369999170e-03,-1.621410436929999685e-02,1.000000000000000000e+00
1.635033468999999906e+00,-2.650236276359999810e+00,-2.532452960170000211e-01,-9.472703876589999794e+00,-9.103000164030001368e-03,-1.546390121799999908e-03,1.533763762560000007e-02,1.000000000000000000e+00
1.640136679999999902e+00,-2.533586749969999996e+00,-2.198388105750000154e-01,-9.454307803680000788e+00,-2.092417702079999928e-02,1.305297389629999846e-02,-4.355701617899999413e-03,1.000000000000000000e+00
1.645171077000000093e+00,-2.626623345590000103e+00,-2.065086427510000044e-01,-9.443609299530001167e+00,-3.941426984970000137e-03,4.366635810579999610e-03,1.550083747130000071e-03,1.000000000000000000e+00
1.650193878000000058e+00,-2.589332018069999908e+00,-2.170726155310000183e-01,-9.431320311329999484e+00,-2.228188142180000109e-02,1.464358530939999931e-02,-1.650681905450000070e-02,1.000000000000000000e+00
1.655039182000000109e+00,-2.578454942480000067e+00,-2.577089791609999958e-01,-9.421384608239998570e+00,-1.549002714459999860e-02,-2.009991742670000012e-02,-1.649002078920000253e-04,1.000000000000000000e+00
1.660200373999999979e+00,-2.604558521029999962e+00,-2.888867557020000087e-01,-9.471007009550000078e+00,-3.292616922410000323e-03,-5.663609132169999776e-03,4.145324230189999584e-03,1.000000000000000000e+00
1.665160205999999921e+00,-2.589149062720000227e+00,-2.956741508199999813e-01,-9.432642499840000028e+00,-6.425908766689998955e-03,-4.564497619869999773e-03,-1.843157107940000036e-03,1.000000000000000000e+00
1.670197324000000094e+00,-2.641659294420000137e+00,-2.543312280900000277e-01,-9.469660855639999042e+00,-1.091579627249999844e-02,-9.202833753080001027e-04,1.434989366679999961e-02,1.000000000000000000e+00
1.675136170999999896e+00,-2.558341836519999912e+00,-2.397350041180000002e-01,-9.428300671239998820e+00,-7.136776577680000247e-03,8.572066202759999476e-03,-6.879253312949999352e-03,1.000000000000000000e+00
1.680319163000000060e+00,-2.636322901820000286e+00,-2.171400730109999955e-01,-9.441861579079999345e+00,-1.126321870829999870e-02,-7.170774973930000434e-03,-4.372242372479999244e-03,1.000000000000000000e+00
1.685179320999999897e+00,-2.635799170209999875e+00,-1.802701127099999856e-01,-9.445478600539999547e+00,-2.532577887180000042e-02,-1.592274382709999922e-02,-6.102114915850000501e-03,1.000000000000000000e+00
1.690021844000000106e+00,-2.598426301890000012e+00,-2.432500265019999774e-01,-9.432328027060000508e+00,-8.361393585800000472e-03,8.014637045560000020e-03,-1.945663616059999795e-02,1.000000000000000000e+00
1.695185935999999893e+00,-2.606396257850000175e+00,-4.290821389869999836e-01,-9.569265139199998771e+00,1.446534506979999836e-02,-2.884490881119999850e-03,1.101189386100000049e-02,1.000000000000000000e+00
1.700081734999999927e+00,-2.522448977619999866e+00,-4.831774113869999887e-01,-9.485063007429999971e+00,2.097675763069999783e-02,9.504873305559999666e-03,1.421672757709999992e-02,1.000000000000000000e+00
1.705120101999999971e+00,-2.540633453609999926e+00,-4.305420554709999958e-01,-9.580229016289999677e+00,3.599372506140000039e-02,4.873549565670000014e-03,3.614826127890000129e-02,1.000000000000000000e+00
1.710108278999999953e+00,-2.424014322359999696e+00,-3.643393985059999451e-01,-9.877124635199999503e+00,1.444471813739999812e-02,-2.797915972769999746e-02,2.924511395390000032e-02,1.000000000000000000e+00
1.715114365000000030e+00,-2.215177802909999993e+00,-2.150717240379999839e-01,-9.845960266129999638e+00,3.426223248239999852e-02,-2.393235079939999913e-02,4.036736488340000178e-02,1.000000000000000000e+00
1.720119372000000091e+00,-2.313661850279999932e+00,-4.312386594329999934e-01,-9.467268407539998876e+00,5.551754683260000378e-02,-4.351174086330000107e-02,1.565347611900000033e-02,1.000000000000000000e+00
1.725172978000000024e+00,-2.516522510180000172e+00,-4.199109174719999893e-01,-9.458148112499999982e+00,5.018635094169999339e-02,-4.710505157710000168e-02,1.700252294540000042e-02,1.000000000000000000e+00
1.730250749000000088e+00,-2.649611130200000275e+00,5.075413614620000180e-02,-9.414905767620000532e+00,4.433820024130000897e-02,-6.535243242980000311e-02,2.182525023820000229e-02,1.000000000000000000e+00
1.735017723999999983e+00,-2.744702612520000251e+00,-1.181502315460000035e-01,-9.212911953680000821e+00,1.286221202460000046e-02,-5.935777723789999877e-02,-1.442532800139999932e-02,1.000000000000000000e+00
1.740071670000000070e+00,-2.732969796889999969e+00,-8.086909297519999651e-01,-9.238855373230000723e+00,1.826045103370000158e-02,-5.602872371669999352e-02,4.114029929040000262e-03,1.000000000000000000e+00
1.745054488000000070e+00,-2.790868443629999973e+00,-1.006399394520000046e+00,-9.566263619299999021e+00,1.178570650520000158e-02,-2.918116562070000031e-02,2.384831756350000095e-02,1.000000000000000000e+00
1.750238898999999959e+00,-2.663080560370000072e+00,-6.537688827839999162e-01,-9.577968085619998462e+00,2.530644647779999729e-02,-2.320123603570000293e-03,5.514069646599999847e-02,1.000000000000000000e+00
1.755183924000000006e+00,-2.475695409759999688e+00,-4.649302819589999913e-01,-9.546872690129999839e+00,5.577113851900000058e-02,-2.280794829129999951e-02,6.997255235910000704e-02,1.000000000000000000e+00
1.760099875999999952e+00,-2.710083426819999808e+00,-4.580152418740000009e-01,-9.394549792810000355e+00,6.166261062030000545e-02,-4.567124694590000283e-02,8.502430468800001306e-02,1.000000000000000000e+00
1.765252255999999909e+00,-2.878327531370000081e+00,-1.046291716590000004e-01,-9.329050023420000670e+00,3.967677429319999699e-02,-3.194842487570000167e-02,8.087880164379999959e-02,1.000000000000000000e+00
1.770249202000000022e+00,-2.974891132070000221e+00,2.245084098220000157e-01,-9.274683642460001209e+00,4.049060866240000028e-02,-4.821040481330000210e-02,7.262437790630001111e-02,1.000000000000000000e+00
1.775243772999999914e+00,-2.864461503109999807e+00,-2.333807397210000134e-01,-9.242215205049999938e+00,4.459704831240000195e-02,-1.674784347410000068e-02,4.031468182799999994e-02,1.000000000000000000e+00
1.780164459999999949e+00,-2.694791457410000035e+00,-3.892806918110000569e-01,-9.299861922859999908e+00,2.993938140570000239e-02,1.764224842190000378e-02,3.116449899970000215e-02,1.000000000000000000e+00
1.785136150000000033e+00,-2.598178172349999926e+00,-4.304673462670000061e-01,-9.329770154389999348e+00,4.407371208069999630e-02,1.628100872039999966e-02,4.192407429219999898e-02,1.000000000000000000e+00
1.790248601000000050e+00,-2.719749080789999773e+00,-4.988726643760000301e-01,-9.440898287010000445e+00,2.528670988979999854e-02,2.689159288999999967e-02,6.393869966269999372e-02,1.000000000000000000e+00
1.795232873000000007e+00,-2.891547370690000118e+00,-3.525010401420000106e-01,-9.374368590050000449e+00,3.277555480600000126e-02,2.381302230059999941e-02,7.663676142689998527e-02,1.000000000000000000e+00
1.800181897000000086e+00,-2.914906911229999675e+00,-1.078795426239999994e-01,-9.303207141630000621e+00,2.237436734140000466e-02,1.824978739020000074e-02,7.773403823379999855e-02,1.000000000000000000e+00
1.805032552999999984e+00,-2.781483067909999995e+00,-3.028460426100000082e-03,-9.516786763949999894e+00,1.906899735329999762e-02,5.900355987250000857e-03,6.076304987069999775e-02,1.000000000000000000e+00
1.810057223000000048e+00,-2.881673042410000107e+00,1.191279266049999896e-01,-9.735543496639998295e+00,6.128788739440000494e-02,1.761154271659999895e-02,4.554603993890000285e-02,1.000000000000000000e+00
1.815076839000000053e+00,-3.208656925590000153e+00,3.333836809179999833e-02,-9.611009354480000155e+00,8.037824928759999821e-02,4.742962867020000112e-02,3.304247185590000052e-02,1.000000000000000000e+00
1.819998919000000104e+00,-3.115651601890000233e+00,-1.246116095799999907e-01,-9.532277763069998855e+00,1.001335680479999990e-01,7.772179692980001053e-02,3.480576723809999939e-02,1.000000000000000000e+00
1.824973962999999921e+00,-2.797258436929999981e+00,-3.123268506640000108e-01,-9.395620052389999088e+00,1.004501432179999848e-01,1.032814905050000037e-01,1.139251329000000139e-02,1.000000000000000000e+00
1.829952942000000027e+00,-2.613646667370000287e+00,-1.309229755509999926e-01,-9.511745847169999379e+00,9.908923506739999998e-02,1.353547573090000122e-01,3.723260248080000057e-03,1.000000000000000000e+00
1.835114338999999983e+00,-2.303545676069999715e+00,7.372314756369999222e-02,-9.508362049949999673e+00,8.114930987360000070e-02,1.025371253490000023e-01,3.060766262930000176e-03,1.000000000000000000e+00
1.840203400999999905e+00,-2.213202995709999676e+00,1.182011488829999984e-01,-9.423754259989999937e+00,8.433849364520000502e-02,9.749946743250000047e-02,-5.971299484370000063e-03,1.000000000000000000e+00
1.848590461999999990e+00,-2.269788075629999735e+00,1.166966717369999906e-01,-9.482972172629999363e+00,8.453114330769999352e-02,7.231356203560000695e-02,-1.434306986629999871e-02,1.000000000000000000e+00
1.850027985000000097e+00,-2.477282678949999983e+00,6.110636358910000697e-03,-9.416082994710000875e+00,9.420499205589998037e-02,5.880845338110000237e-02,-8.646280504760000402e-03,1.000000000000000000e+00
1.855018250000000091e+00,-2.493347678559999725e+00,-1.876503591539999960e-01,-9.426111052239999566e+00,8.484118431810000471e-02,5.281502753499999619e-02,-2.443610876800000192e-02,1.000000000000000000e+00
1.860002780000000078e+00,-2.524091191870000195e+00,-2.543884929690000130e-01,-9.443352109899999292e+00,9.188272058959999489e-02,3.156473487620000545e-02,-2.758132293820000219e-02,1.000000000000000000e+00
1.864892612000000005e+00,-2.460240943250000090e+00,-2.294690827030000102e-01,-9.431713694560000860e+00,7.188931852580000836e-02,4.195936769249999920e-02,-4.047968983650000047e-02,1.000000000000000000e+00
1.869935885999999936e+00,-2.509695294509999730e+00,-2.368571836599999980e-01,-9.460321364880000417e+00,9.324499964710000754e-02,5.098518729209999822e-02,-2.764508500700000107e-02,1.000000000000000000e+00
1.874976207000000006e+00,-2.507266606059999958e+00,-2.307810786169999795e-01,-9.444895247689998996e+00,8.654164522889999656e-02,3.290580213069999732e-02,-1.538698747750000088e-02,1.000000000000000000e+00
1.880066575999999934e+00,-2.511619248309999719e+00,-2.220970012980000019e-01,-9.418829078539999955e+00,8.124323189260000688e-02,5.498095601800000176e-02,-1.969369687140000089e-02,1.000000000000000000e+00
1.885021644999999912e+00,-2.452069327240000263e+00,-3.550837866439999768e-01,-9.383843105360000436e+00,8.029031008480000398e-02,4.922971874480000509e-02,-4.442519694569999067e-02,1.000000000000000000e+00
1.890187786000000036e+00,-2.482983228680000209e+00,-4.104469600890000014e-01,-9.440775537410001306e+00,8.313673734660000092e-02,2.989015541970000203e-02,-3.137963265180000044e-02,1.000000000000000000e+00
1.895150096000000062e+00,-2.509585988920000066e+00,-4.588082554150000325e-01,-9.540012741230000870e+00,7.310299575330000965e-02,2.337418682870000264e-02,-1.568836346270000015e-02,1.000000000000000000e+00
1.900132659999999918e+00,-2.498989483839999970e+00,-4.441867326049999676e-01,-9.518519286830001036e+00,7.619252055879999208e-02,1.904798857870000292e-02,-2.843068912630000028e-02,1.000000000000000000e+00
1.905180615999999993e+00,-2.605535841630000071e+00,-3.846520090969999806e-01,-9.545195112310000951e+00,6.917808204889999701e-02,1.176929473879999993e-02,-2.849464491009999836e-02,1.000000000000000000e+00
1.910359691000000026e+00,-2.645010942929999942e+00,-4.263668886789999668e-01,-9.429519983909999681e+00,7.766217738389999403e-02,7.782162167129999530e-03,-2.325540594759999830e-02,1.000000000000000000e+00
1.915265377000000102e+00,-2.565207046120000278e+00,-5.299566982190000441e-01,-9.411804878989999068e+00,7.488851994280000535e-02,2.156411111349999798e-02,-2.170255407690000263e-02,1.000000000000000000e+00
1.920119844000000020e+00,-2.499919458169999942e+00,-4.850631520690000253e-01,-9.416665178510001510e+00,6.073112785819999998e-02,1.729361526670000065e-02,-1.586695201689999890e-02,1.000000000000000000e+00
1.925200937999999917e+00,-2.438195261790000234e+00,-4.415286193119999925e-01,-9.436179441789999345e+00,6.477027386429999589e-02,1.130117662250000078e-02,2.138503128660000120e-03,1.000000000000000000e+00
1.930164919999999951e+00,-2.515982411959999610e+00,-3.309838760669999713e-01,-9.497671144589999059e+00,4.905404150489999643e-02,-7.741659879680000411e-03,-5.264190025629999180e-03,1.000000000000000000e+00
1.935079618000000057e+00,-2.601900700000000288e+00,-3.095393388369999665e-01,-9.537671731070000547e+00,3.799686580899999666e-02,-1.609664410350000047e-02,-2.303319610659999850e-02,1.000000000000000000e+00
1.940117182999999912e+00,-2.670155028799999997e+00,-4.088454066439999868e-01,-9.480914071060000836e+00,4.220771417019999333e-02,2.836431376639999939e-03,-5.518076010050000993e-03,1.000000000000000000e+00
1.945217801000000080e+00,-2.605038998029999942e+00,-4.937167794499999762e-01,-9.522536705780000332e+00,4.171373322609999573e-02,1.940475776790000044e-03,-1.280910708009999968e-02,1.000000000000000000e+00
1.950157394999999960e+00,-2.836422572580000079e+00,-4.353985190590000109e-01,-9.748324652280000890e+00,7.543963193889999252e-02,7.852483540769999255e-04,-1.604374684389999958e-02,1.000000000000000000e+00
1.955240405000000070e+00,-2.845235116850000079e+00,-3.393860129049999785e-01,-9.512766422389999477e+00,6.531610339879999338e-02,-1.656233146789999958e-02,-1.549773104490000109e-02,1.000000000000000000e+00
1.960377121999999916e+00,-2.875193032739999932e+00,-1.718024546209999948e-01,-9.532719077100001215e+00,6.542944163080000042e-02,-8.557565510270001216e-03,-5.645823664959999724e-03,1.000000000000000000e+00
1.965240886999999992e+00,-2.742363355920000245e+00,-1.915280956370000176e-01,-9.428526881210000710e+00,6.754377484319999680e-02,8.116796612740000139e-03,-5.573145579549999840e-03,1.000000000000000000e+00
1.970167710999999988e+00,-2.558457571860000002e+00,-2.720677593809999739e-01,-9.313929611180000734e+00,7.886490225789999364e-02,3.196434676650000001e-02,-7.025142200289999708e-03,1.000000000000000000e+00
1.975218351000000094e+00,-2.335692041909999794e+00,-2.221757656230000100e-01,-9.365050142080001194e+00,6.786295771599999693e-02,4.266606271269999390e-02,-6.413684226569999966e-03,1.000000000000000000e+00
1.980321685999999914e+00,-2.289348662279999669e+00,-2.749326107599999736e-01,-9.246255420349999810e+00,6.479372084140000432e-02,3.169568628069999866e-02,7.507346570490000537e-03,1.000000000000000000e+00
1.985222475000000042e+00,-2.306217817889999910e+00,-3.034178054830000137e-01,-9.246706086730000607e+00,7.435740530489999556e-02,1.662418618800000011e-02,2.063762024040000087e-02,1.000000000000000000e+00
1.990177823000000012e+00,-2.233198466640000213e+00,-3.128658529109999975e-01,-9.239441648689998843e+00,5.132217332719999497e-02,-1.126028690489999998e-02,-4.152789711950000302e-03,1.000000000000000000e+00
1.995318417000000011e+00,-2.299803859190000299e+00,-3.295101137199999974e-01,-9.368667748060001799e+00,5.238996446130000234e-02,-4.561538808050000574e-03,1.384995970879999982e-02,1.000000000000000000e+00
2.000260300999999963e+00,-2.313227112129999874e+00,-2.431240620349999770e-01,-9.447297632659999778e+00,6.002729758619999856e-02,-2.662712149319999833e-02,5.128967575730000034e-03,1.000000000000000000e+00
2.005127819000000144e+00,-2.334145396989999899e+00,-2.429016514559999840e-01,-9.430005721599998836e+00,5.592992156740000248e-02,-3.004208207129999836e-02,-3.271016990770000184e-03,1.000000000000000000e+00
2.010233830999999860e+00,-2.409328356009999617e+00,-2.556201353889999695e-01,-9.267646583430000362e+00,6.033536046739999825e-02,-3.469113260509999741e-02,5.434541031720000089e-03,1.000000000000000000e+00
2.015169254999999993e+00,-2.306514316609999948e+00,-2.228506509430000226e-01,-9.158143421660000172e+00,5.120870470999999702e-02,-3.196613490579999772e-02,3.628023667260000477e-03,1.000000000000000000e+00
2.020125107999999781e+00,-2.349739856490000278e+00,-3.070249813959999852e-01,-9.271491568420000107e+00,4.562254250049999765e-02,-6.121637672190000101e-02,1.390783954409999940e-02,1.000000000000000000e+00
2.025232118999999997e+00,-2.430597792399999957e+00,-5.918775131460000116e-01,-9.380887178160001838e+00,4.033779725429999935e-02,-6.296586245299999607e-02,1.167339924719999929e-02,1.000000000000000000e+00
2.030377797999999956e+00,-2.579039464370000090e+00,-6.496141011920000263e-01,-9.364074575049999183e+00,4.361171275380000545e-02,-5.117276310919999932e-02,2.793626114729999901e-02,1.000000000000000000e+00
2.035045549999999981e+00,-2.580471835260000013e+00,-6.595670476680000061e-01,-9.296992504900000398e+00,2.684780769049999877e-02,-7.956577092410001273e-02,2.055642753840000031e-02,1.000000000000000000e+00
2.040221057000000116e+00,-2.563080847740000223e+00,-6.837569746160000461e-01,-9.331080652460000735e+00,1.921886205670000208e-02,-7.506122440100000681e-02,1.931338012220000164e-02,1.000000000000000000e+00
2.045240343000000127e+00,-2.543914374979999948e+00,-6.759728235459999679e-01,-9.393205392460000525e+00,1.448488887399999869e-02,-6.400967389349999925e-02,8.877883665259999474e-03,1.000000000000000000e+00
2.050287917999999987e+00,-2.670167596020000200e+00,-6.437469627240000047e-01,-9.559872456960000875e+00,4.679779987779999519e-03,-7.753379642960001039e-02,1.100185513499999865e-02,1.000000000000000000e+00
2.055179145999999957e+00,-2.881344833370000025e+00,-4.523940044590000209e-01,-9.506455339549999550e+00,6.919155362990000654e-03,-6.814771145580000855e-02,3.887089341880000520e-02,1.000000000000000000e+00
2.060232865000000135e+00,-2.759590677309999851e+00,-2.827529473889999756e-01,-9.398356783880000620e+00,-2.289457770530000269e-04,-6.846293807030000289e-02,3.305368125440000249e-02,1.000000000000000000e+00
2.065382227000000182e+00,-2.581920865029999845e+00,-2.951645573300000214e-01,-9.393294239790000333e+00,1.142660807819999985e-02,-5.028117448089999830e-02,1.645289920270000261e-02,1.000000000000000000e+00
2.070043289000000009e+00,-2.527588678600000360e+00,-4.014337056149999694e-01,-9.411274133119999163e+00,9.870080277320000123e-03,-3.989819437269999380e-02,7.848365232350001594e-03,1.000000000000000000e+00
2.075227401999999888e+00,-2.581517544930000074e+00,-3.621941301059999896e-01,-9.423893376200000560e+00,4.061117768289999701e-03,-2.707625739280000027e-02,1.301218103620000247e-02,1.000000000000000000e+00
2.080199718999999892e+00,-2.667354292159999751e+00,-3.610379092759999908e-01,-9.465384493489999329e+00,7.636944064869999674e-05,-4.785573482509999227e-02,1.553638558830000051e-02,1.000000000000000000e+00
2.085025218999999819e+00,-2.744623409809999970e+00,-3.304747940339999857e-01,-9.401354212130000221e+00,1.044649165120000063e-02,-4.847498238089999884e-02,1.875456236300000051e-02,1.000000000000000000e+00
2.090111530999999800e+00,-2.726272052820000180e+00,-3.776252157329999526e-01,-9.483719776130000056e+00,1.686044782400000080e-02,-5.258368700740000123e-02,1.943257451059999738e-02,1.000000000000000000e+00
2.095310083000000212e+00,-2.625420984059999796e+00,-3.955523194259999431e-01,-9.457502215810000834e+00,1.477669924500000023e-02,-3.781318664549999931e-02,1.310766581449999968e-02,1.000000000000000000e+00
2.100166768999999878e+00,-2.574137663809999754e+00,-4.744223329260000011e-01,-9.476467028520000113e+00,1.318867504600000108e-02,-3.306408226489999935e-02,9.240404702719999183e-03,1.000000000000000000e+00
2.105130841999999891e+00,-2.541758950509999782e+00,-5.092714914560000361e-01,-9.502332706660000738e+00,7.014835719020000304e-03,-4.547903686759999925e-02,7.457084022460000114e-03,1.000000000000000000e+00
2.110170441000000174e+00,-2.488771164429999683e+00,-5.890946774949999964e-01,-9.499433478089999383e+00,-1.267904601989999942e-02,-3.975990414619999525e-02,5.776069592680000342e-04,1.000000000000000000e+00
2.115279906000000043e+00,-2.468069444920000244e+00,-8.044866829950000353e-01,-9.486474627789998948e+00,1.639369316399999846e-02,-4.950045794249999936e-02,1.311026047920000118e-02,1.000000000000000000e+00
2.120212459000000216e+00,-2.420086189130000065e+00,-8.814485613189999569e-01,-9.447606844739999232e+00,6.758150993849998704e-04,-4.642698913809999856e-02,-1.229167683050000001e-03,1.000000000000000000e+00
2.125128491999999980e+00,-2.530221072929999870e+00,-6.608763036360000287e-01,-9.407240932080000562e+00,-1.437645498659999993e-02,-6.159390509129999969e-02,1.623890548939999762e-02,1.000000000000000000e+00
2.130127871000000006e+00,-2.608926360849999959e+00,-3.955328840739999463e-01,-9.438411730889999518e+00,-1.661300100390000062e-02,-7.185702025889999234e-02,2.230045758189999963e-02,1.000000000000000000e+00
2.135020053999999945e+00,-2.658414614379999819e+00,-2.985260331199999784e-01,-9.396153720880001003e+00,-2.164763212200000037e-02,-6.712332367899999375e-02,1.174493785949999938e-02,1.000000000000000000e+00
2.140005270000000070e+00,-2.686347746449999629e+00,-2.371342653020000191e-01,-9.439073409669999748e+00,-8.691301569339998992e-03,-5.570767819880000082e-02,2.806925401090000147e-02,1.000000000000000000e+00
2.145001708000000118e+00,-2.609161338649999884e+00,-2.706215608950000018e-01,-9.583010171439999780e+00,8.407467394139999349e-04,-6.107845157380000639e-02,2.286072634159999964e-02,1.000000000000000000e+00
2.150220754999999873e+00,-2.731265331059999912e+00,-2.864316176350000243e-01,-9.526344865889999625e+00,2.606097236280000007e-02,-6.093781441449999670e-02,2.982903458180000134e-02,1.000000000000000000e+00
2.154948436999999828e+00,-2.557494279779999768e+00,-3.009037037710000084e-01,-9.354898165899999896e+00,2.816992066800000014e-02,-5.048530548809999907e-02,1.846895925700000121e-02,1.000000000000000000e+00
2.160038029999999942e+00,-2.480062080530000213e+00,-4.618145245589999615e-01,-9.215801829900000186e+00,1.502276118839999952e-02,-5.566266924139999517e-02,1.714038662609999875e-02,1.000000000000000000e+00
2.165042317999999799e+00,-2.410827946920000020e+00,-5.966894069399999445e-01,-9.222890911380000389e+00,8.538885973390000078e-03,-7.505883276460000031e-02,3.797585889700000328e-02,1.000000000000000000e+00
2.170102083999999820e+00,-2.136370662050000035e+00,-7.211877106049999764e-01,-9.351927041139999730e+00,1.203766837720000177e-02,-9.554775804279999618e-02,4.213501140480000601e-02,1.000000000000000000e+00
2.174842969999999820e+00,-2.131560193029999883e+00,-4.865576284100000537e-01,-9.447156178360000212e+00,6.920232437550000691e-03,-1.095420271160000014e-01,5.236917734149999781e-02,1.000000000000000000e+00
2.179824373999999843e+00,-2.285984592670000204e+00,-3.112504536039999992e-01,-9.462698030889999501e+00,-4.296596627680000606e-03,-1.304887682199999954e-01,5.738636478780000799e-02,1.000000000000000000e+00
2.184888060000000021e+00,-2.425634178640000194e+00,-1.861256703370000043e-01,-9.372498119999999489e+00,3.343041520570000456e-03,-1.539146006110000131e-01,4.266519472000000063e-02,1.000000000000000000e+00
2.189932505999999890e+00,-2.591156310890000203e+00,-1.490330802619999895e-01,-9.381108127439999222e+00,9.114020504060000791e-03,-1.762329787019999983e-01,7.058435678480000364e-02,1.000000000000000000e+00
2.195090540999999895e+00,-2.629997790459999596e+00,-2.402369074920000236e-01,-9.361961528420000178e+00,2.324937470259999875e-02,-1.818110942839999966e-01,8.709181845189999105e-02,1.000000000000000000e+00
2.199943520000000152e+00,-2.578452896659999993e+00,-2.243768923959999773e-01,-9.296644714380001062e+00,8.137444034220000719e-03,-1.764320880169999994e-01,1.013512164350000022e-01,1.000000000000000000e+00
2.204888449999999889e+00,-2.600088974400000197e+00,-5.931585659329999954e-02,-9.342192998110000701e+00,9.693583473560000649e-03,-1.774522960190000054e-01,1.096439808610000094e-01,1.000000000000000000e+00
2.209951978999999955e+00,-2.544185008609999521e+00,5.263029614849999704e-02,-9.302907866420000005e+00,3.688148409130000832e-02,-1.909328848119999922e-01,1.184809803959999963e-01,1.000000000000000000e+00
2.214969291000000062e+00,-2.324799622629999618e+00,-2.313315338399999921e-01,-9.312066155389999267e+00,3.055337257679999891e-02,-2.004370689389999849e-01,1.278353780509999815e-01,1.000000000000000000e+00
2.220004773999999959e+00,-2.024490249759999916e+00,-7.999228091460000023e-01,-9.305232509979999733e+00,4.103920981289999742e-02,-2.257562577719999797e-01,1.655623912810000042e-01,1.000000000000000000e+00
2.225041620999999914e+00,-1.997672093199999832e+00,-1.097097975649999890e+00,-9.293973449339999249e+00,2.822440303860000027e-02,-2.094721645120000142e-01,1.762056946750000241e-01,1.000000000000000000e+00
2.230123873999999784e+00,-2.443417088090000355e+00,-1.038838386639999944e+00,-9.323382499179999172e+00,1.750237680970000154e-02,-2.457396090029999869e-01,2.121796756980000032e-01,1.000000000000000000e+00
2.235060731999999994e+00,-2.797847050469999708e+00,-7.313035925589999042e-01,-9.285803586889999295e+00,-2.480390481650000117e-02,-2.646963894370000236e-01,2.131547033790000267e-01,1.000000000000000000e+00
2.240058218000000156e+00,-2.818823787530000402e+00,-5.499148328159999544e-01,-9.222361919069999914e+00,-4.832730442290000816e-02,-2.598203122619999750e-01,2.191167920829999727e-01,1.000000000000000000e+00
2.245133699999999788e+00,-2.799537487779999889e+00,-6.052041738399999149e-01,-9.142643070189999221e+00,-5.782033130530001008e-02,-2.516317069530000228e-01,2.258882671590000113e-01,1.000000000000000000e+00
2.250315592999999836e+00,-2.784930578009999991e+00,-5.935941443390000405e-01,-9.170517750060000139e+00,-4.467098787430000273e-02,-2.143570929769999800e-01,2.312711626289999933e-01,1.000000000000000000e+00
2.255076444000000180e+00,-2.934435203040000051e+00,-4.244783715179999972e-01,-9.338450304450001127e+00,-6.247811391949999876e-02,-2.013092488050000073e-01,2.451213002200000046e-01,1.000000000000000000e+00
2.260338963999999784e+00,-3.076544457129999799e+00,-4.088324010320000257e-01,-9.380622389750000067e+00,-8.416252583270000809e-02,-1.996922045950000058e-01,2.534493207930000325e-01,1.000000000000000000e+00
2.265176218000000130e+00,-3.205742499449999894e+00,-4.364873372090000148e-01,-9.356927625900000933e+00,-9.566721320149998431e-02,-2.084073126319999913e-01,2.298243045809999774e-01,1.000000000000000000e+00
2.270267341999999910e+00,-3.218182878829999982e+00,-4.384653958169999477e-01,-9.154258104660000228e+00,-1.018888056279999982e-01,-1.995011568070000074e-01,2.359923273319999848e-01,1.000000000000000000e+00
2.275038058999999890e+00,-2.846072736720000051e+00,-5.318829170409999918e-01,-9.094977648169999540e+00,-1.104254201050000050e-01,-1.803435385230000021e-01,2.163804918530000121e-01,1.000000000000000000e+00
2.280205721000000185e+00,-2.439595483979999813e+00,-6.409596700930000335e-01,-9.276486307969999956e+00,-9.855001419780000382e-02,-1.664500236510000064e-01,2.146499454980000110e-01,1.000000000000000000e+00
2.285072453999999809e+00,-2.520233055140000289e+00,-5.587485660050000025e-01,-9.563767126310001032e+00,-1.173589006069999940e-01,-1.503331959249999961e-01,2.189116179940000240e-01,1.000000000000000000e+00
2.290142640000000007e+00,-2.920040766990000147e+00,-3.328605566589999953e-01,-9.475933360029999974e+00,-1.460205912589999933e-01,-1.874207109209999889e-01,2.125321775670000191e-01,1.000000000000000000e+00
2.295333019000000085e+00,-3.233491799379999421e+00,-2.129684316149999812e-01,-9.246398628219999694e+00,-1.472787111999999954e-01,-1.980392932889999957e-01,1.756820678709999917e-01,1.000000000000000000e+00
2.300088592999999904e+00,-3.174697372840000309e+00,-1.634711179969999817e-01,-8.974716361020000477e+00,-1.663154512639999916e-01,-1.997267752890000136e-01,1.706650108099999896e-01,1.000000000000000000e+00
2.305107910999999898e+00,-2.756446826330000377e+00,-2.864595285559999871e-01,-8.998803923569999696e+00,-1.492869257929999860e-01,-1.596189588309999963e-01,1.592412739990000103e-01,1.000000000000000000e+00
2.310160025000000061e+00,-2.460344988150000134e+00,-5.484598847680000056e-01,-9.043061582969999179e+00,-1.667619496580000082e-01,-1.362454742190000179e-01,1.568569988010000138e-01,1.000000000000000000e+00
2.315171577000000092e+00,-2.683115048139999903e+00,-5.817316744460000466e-01,-9.432879815730000672e+00,-2.036543786529999844e-01,-1.614852249620000180e-01,1.214658766980000054e-01,1.000000000000000000e+00
2.320115160999999926e+00,-2.969536327040000145e+00,8.165249067470001232e-03,-9.707270757359999891e+00,-2.420120686289999878e-01,-1.693097949029999938e-01,7.430952787399999759e-02,1.000000000000000000e+00
2.325220519000000152e+00,-3.258859464870000000e+00,3.452378442059999553e-01,-9.750658063670000431e+00,-2.650170326229999707e-01,-2.066426426169999941e-01,5.671668797730000655e-02,1.000000000000000000e+00
2.330172083999999977e+00,-3.146387224160000162e+00,2.849098879610000301e-01,-9.845904152020001021e+00,-2.379647642369999982e-01,-2.005051523449999928e-01,-1.403609849510000125e-02,1.000000000000000000e+00
2.335018419999999928e+00,-3.418981637759999526e+00,6.584699366140001064e-02,-9.807933610070000086e+00,-1.891443580390000101e-01,-1.814137697219999901e-01,-3.976580128069999442e-02,1.000000000000000000e+00
2.340106356999999804e+00,-3.433051956429999940e+00,-1.521977068890000007e-02,-9.696095283350000926e+00,-1.416030377150000186e-01,-1.517274975779999979e-01,-6.381134688850000070e-02,1.000000000000000000e+00
2.345145775000000210e+00,-3.286733852479999829e+00,4.449982955839999754e-02,-9.752707397410000922e+00,-1.104259639980000041e-01,-1.169632896780000014e-01,-9.805377572769999328e-02,1.000000000000000000e+00
2.350165254000000203e+00,-3.244795575940000454e+00,2.142620881549999745e-01,-9.894688348939999045e+00,-1.124464645979999927e-01,-1.186218410730000006e-01,-1.122010275720000116e-01,1.000000000000000000e+00
2.355140212999999871e+00,-3.019951047770000230e+00,2.150218570140000063e-01,-9.742934191410000722e+00,-1.128472536799999953e-01,-1.163091659550000018e-01,-1.620078235859999938e-01,1.000000000000000000e+00
2.360247579000000151e+00,-3.042303164829999851e+00,-1.831693047500000116e-01,-9.705807699070000183e+00,-8.579172939060000780e-02,-8.012536168099999856e-02,-1.944999694819999903e-01,1.000000000000000000e+00
2.365076857000000032e+00,-3.412311366219999975e+00,-2.024506177980000265e-01,-9.733069800000000882e+00,-8.264662325379999730e-02,-7.211122661830000891e-02,-2.056777924300000060e-01,1.000000000000000000e+00
2.370154815999999887e+00,-3.075842154080000057e+00,-3.141845708269999649e-01,-9.726308635309999673e+00,-5.592562630769999654e-02,-5.451764911410000164e-02,-2.215466201309999883e-01,1.000000000000000000e+00
2.375378866999999783e+00,-3.086864775610000056e+00,-3.201408488830000398e-01,-9.889168124210000244e+00,-3.940558061000000445e-02,-5.036381632090000671e-02,-2.618773281569999889e-01,1.000000000000000000e+00
2.380154593999999957e+00,-2.884469395130000002e+00,-1.537794710710000123e-01,-9.934019657849999518e+00,-3.898330777880000542e-02,-5.707946419719999581e-02,-2.680349946020000318e-01,1.000000000000000000e+00
2.385226201000000046e+00,-2.709249314090000471e+00,-4.658022424880000067e-01,-1.008317912269999894e+01,-1.585761830210000167e-02,-5.188529938460000046e-02,-3.234527409079999694e-01,1.000000000000000000e+00
2.390029648000000062e+00,-2.748697527379999617e+00,-8.595853237520000301e-01,-9.922686947449999906e+00,-1.400015503170000224e-02,-6.755712628359999972e-02,-3.202888369559999671e-01,1.000000000000000000e+00
2.395369349000000092e+00,-2.732708223349999965e+00,-1.606109793249999917e+00,-9.991189405789999256e+00,-1.248331647370000061e-02,-9.988973289729999316e-02,-3.059125542639999917e-01,1.000000000000000000e+00
2.400160872999999917e+00,-2.798687300690000157e+00,-1.029307099640000001e+00,-1.013851814809999929e+01,3.342397511009999930e-03,-1.286162137989999843e-01,-2.577388882639999879e-01,1.000000000000000000e+00
2.405149721999999990e+00,-2.624255739670000143e+00,-6.103824897930000271e-01,-1.018539329649999914e+01,-2.227026969190000136e-02,-1.906250119210000094e-01,-2.200529128310000082e-01,1.000000000000000000e+00
2.410256121000000196e+00,-2.326285477269999902e+00,-2.701193104610000173e-01,-1.049173771179999903e+01,-1.459235511720000100e-02,-2.240015417339999981e-01,-2.147421240810000187e-01,1.000000000000000000e+00
2.415291253999999999e+00,-2.252322415440000114e+00,-3.134960771060000262e-01,-1.037073349729999983e+01,1.759071834390000047e-02,-3.147244751450000155e-01,-1.880089342590000046e-01,1.000000000000000000e+00
2.420047138999999792e+00,-2.224616077869999931e+00,-5.519058879020000141e-02,-1.033201242919999885e+01,8.828404545780001167e-02,-3.642278313639999987e-01,-1.549417972559999912e-01,1.000000000000000000e+00
2.425158424000000146e+00,-2.533042267829999972e+00,5.039895004989999698e-03,-1.024182537779999969e+01,1.782550811769999799e-01,-4.298226237300000196e-01,-1.305363625289999996e-01,1.000000000000000000e+00
2.430126683000000121e+00,-2.359074963329999886e+00,1.982697153840000115e-01,-1.039310081190000012e+01,2.383767217400000193e-01,-4.880051910880000010e-01,-1.189747080210000058e-01,0.000000000000000000e+00
2.435169151000000198e+00,-1.868754767509999803e+00,4.480846898920000099e-01,-1.087220768589999942e+01,3.078726828100000201e-01,-5.859588980669999669e-01,-1.051119342449999966e-01,0.000000000000000000e+00
2.440097812999999949e+00,-2.093046922500000129e+00,6.187181737989999597e-01,-1.064610059049999968e+01,3.458421826359999729e-01,-6.901625990870000615e-01,-1.132687181230000034e-01,0.000000000000000000e+00
2.445094660000000086e+00,-2.372856235920000056e+00,5.820314245780000562e-01,-1.058188969190000073e+01,4.220449924470000003e-01,-7.862351536750000758e-01,-9.526843577619999170e-02,0.000000000000000000e+00
2.450137756999999805e+00,-2.291331945050000041e+00,4.484728489590000255e-01,-1.072522731870000001e+01,4.772082865239999916e-01,-8.831605911250000052e-01,-7.769856601949999553e-02,0.000000000000000000e+00
2.455359730000000074e+00,-2.106472659650000079e+00,4.136860881409999968e-01,-1.084324813339999949e+01,5.414834022519999790e-01,-9.601618647579999166e-01,-8.872436732049999997e-02,0.000000000000000000e+00
2.460024955000000180e+00,-2.148034065709999663e+00,1.288739157999999885e-01,-1.090442536349999969e+01,5.762013792989999494e-01,-1.061716675760000062e+00,-7.799376547339999244e-02,0.000000000000000000e+00
2.465163935000000084e+00,-2.083187645659999809e+00,-2.071457099610000008e-03,-1.091436457369999857e+01,5.727440714839999725e-01,-1.164955854420000048e+00,-9.687216579910000458e-02,0.000000000000000000e+00
2.470141883999999788e+00,-1.970604784179999847e+00,4.770426532259999797e-02,-1.115260166740000081e+01,5.621589422230000022e-01,-1.311136007310000018e+00,-1.008543446660000037e-01,0.000000000000000000e+00
2.475074942000000000e+00,-2.159439841340000221e+00,2.645621147250000194e-01,-1.129732578009999955e+01,5.349445343020000632e-01,-1.446310043330000017e+00,-6.938190758230000643e-02,0.000000000000000000e+00
2.480173568000000106e+00,-1.802497165490000164e+00,-1.532861345959999899e-01,-1.109308214140000182e+01,5.124315023419999671e-01,-1.583156466479999969e+00,-8.633707463739997978e-02,0.000000000000000000e+00
2.485200863000000204e+00,-2.060001854250000264e+00,-3.450767673260000251e-02,-1.117762154230000071e+01,5.456806421280000485e-01,-1.715206623080000048e+00,-5.075171962380000540e-02,0.000000000000000000e+00
2.490120005000000081e+00,-1.954768624880000027e+00,1.325522115870000073e-01,-1.124278988779999899e+01,5.329365730289999936e-01,-1.821500897409999986e+00,-5.424311012029999629e-02,0.000000000000000000e+00
2.495183685000000207e+00,-1.617382882420000056e+00,-1.352054660420000110e-01,-1.138376020099999941e+01,6.001742482190000061e-01,-1.980292797090000168e+00,-4.478183016180000559e-02,0.000000000000000000e+00
2.500208123999999810e+00,-9.181636233190000329e-01,-5.815794064940000840e-01,-1.192228723220000042e+01,6.535980105399999962e-01,-2.181885719299999860e+00,9.364828467370000728e-03,0.000000000000000000e+00
2.505127884999999832e+00,-1.774579230990000200e-01,-4.878487276669999928e-01,-1.230763913319999858e+01,7.633771300319999176e-01,-2.432797193529999902e+00,9.482657164339998446e-02,0.000000000000000000e+00
2.510339758000000199e+00,2.852814794860000225e-01,3.565319761590000081e-01,-1.270273618319999898e+01,8.898542523379999736e-01,-2.717617034909999951e+00,1.591066867110000060e-01,0.000000000000000000e+00
2.515332798999999842e+00,1.011140524640000038e+00,8.163940514749998822e-01,-1.289696930000000208e+01,1.066399574279999873e+00,-3.124619245529999922e+00,1.948285251859999956e-01,0.000000000000000000e+00
2.520248630999999850e+00,8.406910189949999834e-01,1.347532506829999921e+00,-1.307078740529999905e+01,1.242187142369999941e+00,-3.548001766200000073e+00,1.906112283470000057e-01,0.000000000000000000e+00
2.525200218999999802e+00,8.440331690289999342e-03,3.195182234729999848e+00,-1.314779699520000023e+01,1.424539208409999924e+00,-3.943557500839999896e+00,1.275262534619999999e-01,0.000000000000000000e+00
2.530164583999999994e+00,-8.805812039000000535e-01,4.536310719730000329e+00,-1.340060505059999940e+01,1.597341179850000126e+00,-4.248232841490000133e+00,-4.215089604259999317e-02,0.000000000000000000e+00
2.535210461000000137e+00,-2.530341484440000066e+00,4.787373392740000178e+00,-1.328937287299999959e+01,1.862312912940000231e+00,-4.454619407650000085e+00,-2.598130702970000150e-01,0.000000000000000000e+00
2.540275641000000029e+00,-2.558079678449999950e+00,4.778876490290000056e+00,-1.475638486900000146e+01,2.180593967440000114e+00,-4.583725452419999513e+00,-3.872025907039999826e-01,0.000000000000000000e+00
2.545306323000000148e+00,-2.511677408240000187e+00,3.947837754330000060e+00,-1.587672511549999932e+01,2.575828552249999959e+00,-4.690535545350000390e+00,-4.573000371459999824e-01,0.000000000000000000e+00
2.550251140999999944e+00,-1.252073652500000023e+00,3.304287629350000088e+00,-1.594255981589999926e+01,2.981666088099999889e+00,-4.831923961640000265e+00,-4.023284614090000266e-01,0.000000000000000000e+00
2.555143039999999921e+00,-5.050191312420000411e-01,2.980833089340000353e+00,-1.584979268490000059e+01,3.384020090099999933e+00,-5.067807674410000018e+00,-2.890942394730000031e-01,0.000000000000000000e+00
2.560229187000000017e+00,4.779534296619999956e-01,1.808859540129999832e+00,-1.536415085609999842e+01,3.682343959809999845e+00,-5.461598873139999810e+00,-1.922768056390000146e-01,0.000000000000000000e+00
2.565149916000000196e+00,-8.492193394959999253e-01,6.564316722519999425e-01,-1.496303439979999972e+01,3.983448266979999985e+00,-5.828506946560000124e+00,-1.278423517939999976e-01,0.000000000000000000e+00
2.570191621999999843e+00,-2.560518596040000094e+00,4.745195827550000023e-01,-1.517684783089999989e+01,4.245360851290000070e+00,-6.247742176059999153e+00,-1.337432563300000044e-01,0.000000000000000000e+00
2.575230251999999886e+00,-4.062644283200000039e+00,-2.097370484789999878e-01,-1.416559456660000116e+01,4.554129600519999599e+00,-6.576246738430000960e+00,-1.103927195069999978e-01,0.000000000000000000e+00
2.580180975000000210e+00,-7.985836256579999848e+00,-6.936416781620000638e-01,-1.417578512119999878e+01,5.029911994929999963e+00,-6.729212284090000828e+00,-1.698729097839999924e-01,0.000000000000000000e+00
2.585144232000000208e+00,-1.022793246160000002e+01,-1.311935708270000056e+00,-1.474905847160000150e+01,5.681229114530000679e+00,-6.617576122280000028e+00,-1.900886595250000088e-01,0.000000000000000000e+00
2.590194880999999949e+00,-1.579005688589999856e+01,-1.996286922449999945e+00,-1.702302047190000067e+01,6.321520328520000120e+00,-6.190341472630000119e+00,-1.543751209970000149e-01,0.000000000000000000e+00
2.595248529000000026e+00,-1.773776565540000050e+01,-2.557195881359999756e+00,-1.612005924010000157e+01,6.732964992519999470e+00,-5.611819267269999578e+00,2.367065101859999743e-02,0.000000000000000000e+00
2.600199632999999899e+00,-1.625919415450000116e+01,-4.058789945860000081e+00,-1.543713309029999969e+01,6.883416652680000247e+00,-4.877407550810000103e+00,1.725794076920000031e-01,0.000000000000000000e+00
2.605193320999999784e+00,-2.103219415400000258e+01,-6.439554909079999945e+00,-1.436319920559999908e+01,6.848863601679999746e+00,-4.078993320469999517e+00,4.389234483240000428e-01,0.000000000000000000e+00
2.610242096999999983e+00,-1.671055611250000084e+01,-8.329482520739999174e+00,-1.588963135880000088e+01,6.567210674290000050e+00,-3.260470628740000265e+00,8.391944766040000392e-01,0.000000000000000000e+00
2.615315557999999818e+00,-9.349544529910000179e+00,-7.514782925160000460e+00,-1.491070332400000176e+01,6.031303882599999611e+00,-2.518928527829999986e+00,1.430417180060000071e+00,0.000000000000000000e+00
2.620151117999999890e+00,-6.344796896500000116e+00,-8.493684071900000632e+00,-1.369182320839999889e+01,5.136809825899999460e+00,-1.876657366750000167e+00,1.847741127009999706e+00,0.000000000000000000e+00
2.625109322000000134e+00,-1.902758451659999794e+00,-1.099769635230000020e+01,-1.394928639609999976e+01,3.953318119049999524e+00,-1.202560663220000103e+00,2.272062301640000115e+00,0.000000000000000000e+00
2.630176715999999804e+00,2.945043690820000393e+00,-1.059382212169999882e+01,-1.516932971029999955e+01,2.724537372589999951e+00,-7.052461504939999681e-01,2.886972427369999927e+00,0.000000000000000000e+00
2.635050695999999970e+00,3.193853616470000212e+00,-4.197450520799999474e+00,-1.446513748509999964e+01,1.618988633160000079e+00,-2.236352115870000046e-01,3.679254770280000475e+00,0.000000000000000000e+00
2.640058481000000068e+00,1.902455523189999997e+00,1.306196726220000048e+00,-1.269688979520000061e+01,8.793041110039999664e-01,2.641270756720000001e-01,4.468126773829999898e+00,0.000000000000000000e+00
2.645241718999999936e+00,9.107504244530000292e-01,3.847249720419999797e+00,-1.489581087530000048e+01,6.088065505030000324e-01,8.003666996960000501e-01,4.887941360470000163e+00,0.000000000000000000e+00
2.650229549000000073e+00,2.044602917329999769e+00,4.200808306789999946e+00,-1.540614407770000049e+01,6.771963238720000167e-01,1.364974498750000098e+00,5.095182418819999448e+00,0.000000000000000000e+00
2.655165412000000114e+00,4.895006084469999408e+00,2.874848749349999899e+00,-1.377082251079999864e+01,8.435098528860000000e-01,2.024971723559999770e+00,5.164066314700000326e+00,0.000000000000000000e+00
2.660000516999999842e+00,7.807222733699999750e+00,2.183248002430000057e+00,-1.140089253760000076e+01,9.644687771799999032e-01,2.499048948290000460e+00,5.237737655640000156e+00,0.000000000000000000e+00
2.665032200000000184e+00,1.005250341390000024e+01,9.583921002670000577e-01,-9.736036833120000011e+00,1.003327250479999933e+00,2.780167341229999867e+00,5.345204353329999769e+00,0.000000000000000000e+00
2.670206172999999961e+00,1.110990234329999993e+01,-8.294105502410000774e-01,-8.515484400300000090e+00,9.387606978420000026e-01,2.851006984709999692e+00,5.411915779110000102e+00,0.000000000000000000e+00
2.675169687999999990e+00,1.161746257390000103e+01,-1.783653202680000049e+00,-8.019427560529999610e+00,7.805524468420000916e-01,2.806209564210000007e+00,5.357985019680000960e+00,0.000000000000000000e+00
2.680157958000000118e+00,1.100810668719999974e+01,-2.370706656669999912e+00,-7.857139734039999546e+00,5.545374751089999776e-01,2.848554134370000490e+00,5.220327854159999781e+00,0.000000000000000000e+00
2.685030457999999953e+00,1.022599886309999917e+01,-2.685085763690000071e+00,-7.849544456599999442e+00,3.414760231970000448e-01,3.003461599350000011e+00,5.025937080380000310e+00,0.000000000000000000e+00
2.690063879000000213e+00,1.058194814400000006e+01,-1.969290194449999865e+00,-7.513989728949999503e+00,1.843192428350000078e-01,3.164103269579999989e+00,4.751914978030000292e+00,0.000000000000000000e+00
2.695282476000000038e+00,1.034158806679999998e+01,-1.260935588870000013e+00,-7.064532727799999634e+00,1.229524612429999941e-01,3.293064594269999645e+00,4.552076339719999254e+00,0.000000000000000000e+00
2.700071643999999882e+00,9.970026206249999134e+00,-8.941653464849999011e-01,-6.716870798250000441e+00,2.086859196420000062e-01,3.450162172319999776e+00,4.403560161590000632e+00,0.000000000000000000e+00
2.705025179000000168e+00,9.490922839369998698e+00,-4.720213727310000329e-01,-6.637862143459999587e+00,3.641350269320000055e-01,3.604909181590000511e+00,4.277711868289999941e+00,0.000000000000000000e+00
2.710079933999999913e+00,9.073542645959999930e+00,1.143951807289999949e-02,-6.801947959290000512e+00,6.153972744940000572e-01,3.708926200869999690e+00,4.086627006530000550e+00,0.000000000000000000e+00
2.715172260000000115e+00,8.604493055580000771e+00,-5.134791905460000042e-03,-6.927019861589998939e+00,8.517646193500000296e-01,3.769352436070000145e+00,3.795497655869999321e+00,0.000000000000000000e+00
2.720164561999999897e+00,7.952965083589999651e+00,-4.585965123600000415e-01,-6.815318897520000085e+00,1.111453413960000081e+00,3.817201852799999795e+00,3.501639366150000043e+00,0.000000000000000000e+00
2.725091416999999794e+00,7.400991710810000512e+00,-1.175891964770000131e+00,-6.770447490130000467e+00,1.318821787829999925e+00,3.849441289900000118e+00,3.208063840869999961e+00,0.000000000000000000e+00
2.730231837999999911e+00,6.937009925209999928e+00,-1.793393383189999968e+00,-7.010492510049999737e+00,1.464571118350000090e+00,3.933655261989999818e+00,2.875626564030000054e+00,0.000000000000000000e+00
2.735143648999999844e+00,6.479601088259999919e+00,-2.246603161009999905e+00,-7.363224582470000001e+00,1.511330008510000100e+00,4.001535415650000260e+00,2.508358240129999750e+00,0.000000000000000000e+00
2.740153974000000048e+00,5.582549957209999469e+00,-2.854611140220000287e+00,-8.060656227500000881e+00,1.525868535040000085e+00,4.092576980590000524e+00,2.099681854249999979e+00,0.000000000000000000e+00
2.745197609999999955e+00,4.421475841540000395e+00,-2.859121311120000009e+00,-8.696277605300000602e+00,1.527798414229999846e+00,4.135031700129999876e+00,1.626866579060000095e+00,0.000000000000000000e+00
2.750194850000000191e+00,3.371325275839999858e+00,-2.482981767370000092e+00,-9.132469466699999927e+00,1.533014655110000124e+00,4.173148632050000195e+00,1.108518600460000059e+00,0.000000000000000000e+00
2.755087617000000044e+00,2.332650336129999946e+00,-2.080410436029999754e+00,-9.634950202040000633e+00,1.503095984460000034e+00,4.218406200410000473e+00,5.912585854530000296e-01,0.000000000000000000e+00
2.760023921999999796e+00,1.127496986370000176e+00,-1.417836753890000079e+00,-1.013720765000000057e+01,1.492247223849999971e+00,4.305397987370000124e+00,6.602399796249999731e-02,0.000000000000000000e+00
2.765017121000000078e+00,-5.126683673529999208e-01,7.705977660660000284e-02,-1.030138231320000131e+01,1.491073846820000215e+00,4.378430366519999062e+00,-4.602338969709999783e-01,0.000000000000000000e+00
2.770068068000000050e+00,-1.967754655449999834e+00,8.145956237510000308e-01,-1.042131217640000074e+01,1.501285791399999958e+00,4.435069561000000604e+00,-9.035937786100000091e-01,0.000000000000000000e+00
2.775091163999999999e+00,-3.393465503709999886e+00,3.337560441940000122e-01,-1.071867833539999992e+01,1.555429458620000149e+00,4.452641487119999297e+00,-1.277085065839999922e+00,0.000000000000000000e+00
2.780230814999999911e+00,-4.748004674430000627e+00,5.705494419030000541e-01,-1.088311720249999937e+01,1.612492799760000040e+00,4.499428272250000305e+00,-1.507046818729999904e+00,0.000000000000000000e+00
2.785136730000000060e+00,-6.041706514609999523e+00,1.086011202829999966e+00,-1.143064703990000019e+01,1.633333683010000037e+00,4.526954650880000486e+00,-1.639095306399999785e+00,0.000000000000000000e+00
2.790138992000000151e+00,-7.605512997399999975e+00,9.464785212420000482e-01,-1.138721121819999915e+01,1.629269361500000013e+00,4.570049285889999702e+00,-1.711461782460000025e+00,0.000000000000000000e+00
2.795068930999999868e+00,-9.440768523150000036e+00,6.088286114149999984e-01,-1.166857550599999982e+01,1.610767483709999892e+00,4.591044425959999842e+00,-1.724542140959999914e+00,0.000000000000000000e+00
2.800016225999999886e+00,-1.118792783229999976e+01,-1.082535635679999914e-01,-1.190052548230000085e+01,1.565095543860000049e+00,4.665897369380000548e+00,-1.662449955939999890e+00,0.000000000000000000e+00
2.805049456999999968e+00,-1.242080841630000165e+01,-9.181767750610000389e-01,-1.223846681280000048e+01,1.449664592739999813e+00,4.743749618530000767e+00,-1.572396755220000220e+00,0.000000000000000000e+00
2.810170108999999972e+00,-1.324259358619999816e+01,-1.007521676549999912e+00,-1.216715514230000039e+01,1.299042344089999856e+00,4.799726009369999602e+00,-1.466319799420000125e+00,0.000000000000000000e+00
2.815147619000000212e+00,-1.380424196529999925e+01,-7.592898430500000240e-01,-1.191699029489999972e+01,1.119709372520000024e+00,4.797877311709999759e+00,-1.395948052409999862e+00,0.000000000000000000e+00
2.820167452000000186e+00,-1.448298761460000073e+01,-6.362172978710000093e-01,-1.143371344170000015e+01,9.722617268559999859e-01,4.733767032619999426e+00,-1.317647814749999924e+00,0.000000000000000000e+00
2.825047951000000168e+00,-1.522322613569999916e+01,-4.729130608739999797e-01,-1.072024719220000044e+01,9.051464796070000096e-01,4.619908332819999686e+00,-1.225664973260000012e+00,0.000000000000000000e+00
2.830237868000000212e+00,-1.598796898339999828e+01,-6.927726037099999875e-04,-1.004714802440000021e+01,9.038412570949999614e-01,4.439785003659999951e+00,-1.109828233720000057e+00,0.000000000000000000e+00
2.835155943999999817e+00,-1.706217993139999933e+01,3.836771361829999782e-01,-9.625256491020000027e+00,9.810804724690000977e-01,4.190421581269999862e+00,-9.782102108000000351e-01,0.000000000000000000e+00
2.840183847000000039e+00,-1.800821575039999800e+01,6.533161705800000219e-01,-9.234575503949999487e+00,1.090247750279999872e+00,3.877755165099999957e+00,-8.589813113209999740e-01,0.000000000000000000e+00
2.845150358000000157e+00,-1.916612672589999988e+01,6.864935599729999893e-01,-8.738914385499999327e+00,1.210357308390000108e+00,3.533484458919999405e+00,-7.189995646479999669e-01,0.000000000000000000e+00
2.850227696000000144e+00,-2.039697083559999768e+01,3.301586407570000214e-01,-8.220210245119998760e+00,1.343437433240000090e+00,3.222550392149999610e+00,-5.803397297860000137e-01,0.000000000000000000e+00
2.855220089999999988e+00,-2.163678151110000059e+01,-6.192628020699999514e-01,-7.921634710299999327e+00,1.433733940119999994e+00,2.915343523029999773e+00,-4.360691607000000136e-01,0.000000000000000000e+00
2.860180252999999784e+00,-2.297712059929999739e+01,-1.776504646100000251e+00,-7.882358930969999733e+00,1.484163522720000072e+00,2.651163578030000245e+00,-2.621262073519999847e-01,0.000000000000000000e+00
2.865179087000000013e+00,-2.451241878050000267e+01,-2.388554740310000035e+00,-7.913792180110000629e+00,1.453300833699999961e+00,2.422610282900000023e+00,-1.043745502830000088e-01,0.000000000000000000e+00
2.870185273000000148e+00,-2.570146489889999941e+01,-2.225262266820000168e+00,-7.404336929580000337e+00,1.394223809239999889e+00,2.231738805770000056e+00,4.816005006429999874e-02,0.000000000000000000e+00
2.875136856000000130e+00,-2.608684953310000054e+01,-1.746668749149999922e+00,-6.431489091519999590e+00,1.330865263940000043e+00,2.085618495939999928e+00,1.763626039029999870e-01,0.000000000000000000e+00
2.880243246000000035e+00,-2.569305947410000002e+01,-1.164782833989999933e+00,-5.007120890040000383e+00,1.256833672520000000e+00,1.971419572829999911e+00,2.986236810680000242e-01,0.000000000000000000e+00
2.885220309000000150e+00,-2.454639586889999947e+01,-4.072526210270000502e-01,-3.321747005940000275e+00,1.218946456909999920e+00,1.810105681420000279e+00,4.087940454479999652e-01,0.000000000000000000e+00
2.890262231999999987e+00,-2.302265017829999749e+01,2.946625991580000270e-01,-1.564842840099999854e+00,1.207832932470000120e+00,1.522983670229999920e+00,5.287801027299999790e-01,0.000000000000000000e+00
2.895128952999999949e+00,-2.180561715179999993e+01,7.869629359379999300e-01,-4.129583583879999908e-01,1.225325465199999853e+00,1.143842816350000069e+00,6.146375536920000160e-01,0.000000000000000000e+00
2.900244798000000124e+00,-2.133428208079999777e+01,1.261189709760000000e+00,1.218965236690000009e-01,1.293090462679999941e+00,6.637737154959999497e-01,6.575284600259999612e-01,0.000000000000000000e+00
2.905049099999999829e+00,-2.147430313050000095e+01,1.920535223629999955e+00,6.257070828380000282e-01,1.325088143349999914e+00,1.530432403089999893e-01,6.560397148129999412e-01,0.000000000000000000e+00
2.910250373999999862e+00,-2.160596785519999941e+01,2.204634343199999957e+00,1.055314962729999806e+00,1.356289982799999905e+00,-2.619774639609999678e-01,5.972287654879999685e-01,0.000000000000000000e+00
2.915302869000000019e+00,-2.151808148190000125e+01,1.730879497740000161e+00,1.465243524969999989e+00,1.344305992130000016e+00,-5.429865121840000697e-01,5.392297506329999379e-01,0.000000000000000000e+00
2.920162442000000080e+00,-2.029705500190000222e+01,1.069502185780000003e+00,1.960858466190000149e+00,1.281747221949999904e+00,-7.179074883460000445e-01,4.741659164429999906e-01,0.000000000000000000e+00
