t,ax,ay,az,wx,wy,wz,zv
5.025075999999999848e-03,-2.455937400840000340e+00,4.019900425899999852e-02,-9.526290505349999549e+00,9.657851420340000936e-03,-1.129281055179999840e-02,-2.690711990000000308e-04,1.000000000000000000e+00
9.827116999999999797e-03,-2.444863341379999611e+00,5.343413247779999625e-02,-9.501831771399999127e+00,-6.789978127930000260e-03,6.632967852060000710e-03,1.368532795459999861e-02,1.000000000000000000e+00
1.500109099999999938e-02,-2.377402062659999871e+00,7.615646195810001073e-02,-9.482111756410001036e+00,-1.023179618640000050e-03,1.512052677570000121e-02,1.694771926849999988e-04,1.000000000000000000e+00
2.000104700000000096e-02,-2.449949704729999844e+00,1.119409377109999992e-01,-9.487163194580000791e+00,2.387270214970000281e-04,7.377961650489999260e-03,3.187770256770000154e-03,1.000000000000000000e+00
2.502489199999999997e-02,-2.408779928349999988e+00,1.023700219550000012e-01,-9.479718139270000066e+00,-7.973304018380001149e-03,1.409670710560000095e-02,2.228349680079999822e-03,1.000000000000000000e+00
3.007722900000000046e-02,-2.383169540140000375e+00,9.583869309019998894e-02,-9.539834462060001741e+00,2.048392780129999725e-04,-1.055733393879999815e-02,-2.777436282490000023e-03,1.000000000000000000e+00
3.502642000000000255e-02,-2.468817048420000049e+00,7.474248524069999899e-02,-9.515011570969999610e+00,5.948225501920000047e-03,1.589648053049999912e-02,2.172043547030000007e-02,1.000000000000000000e+00
3.990393400000000201e-02,-2.374714284880000026e+00,7.463010634080000094e-02,-9.518094923939999674e+00,2.195779699830000074e-03,-7.146403193469999526e-03,1.043030153959999956e-02,1.000000000000000000e+00
4.489451800000000131e-02,-2.386828208779999905e+00,6.997367710339999491e-02,-9.517290621819999075e+00,-3.200340084730000229e-03,-8.392592426390000065e-04,-8.142361417409999663e-03,1.000000000000000000e+00
4.991487000000000007e-02,-2.440110155500000211e+00,3.071175276509999913e-02,-9.508180263639999907e+00,9.264945983889999112e-03,-7.578175049279998847e-03,1.295297313480000059e-02,1.000000000000000000e+00
5.483743199999999846e-02,-2.376088203579999725e+00,6.662228888280000150e-02,-9.487758237859999610e+00,-5.051528103649999615e-03,1.290655881170000262e-02,-5.590112879869999288e-03,1.000000000000000000e+00
5.986744299999999935e-02,-2.419215543770000032e+00,8.694875446890000525e-02,-9.471493331760001411e+00,-7.239755708720000717e-03,-9.974695742129998516e-03,2.925830194730000278e-03,1.000000000000000000e+00
6.486856000000000566e-02,-2.405333002759999950e+00,5.578069560390000459e-02,-9.502094221729999290e+00,1.569487503729999984e-04,-1.097505912179999946e-02,1.013528322799999923e-03,1.000000000000000000e+00
6.989886700000000341e-02,-2.400342062609999605e+00,5.935442133830000355e-02,-9.496506776989999565e+00,2.593581099059999971e-03,-4.431558772920000076e-03,2.693922491739999918e-03,1.000000000000000000e+00
7.487399200000000032e-02,-2.404427432219999883e+00,8.325008261400000664e-02,-9.488060435680001348e+00,-1.009314227850000023e-02,-3.002629382539999826e-03,1.785490429029999932e-03,1.000000000000000000e+00
7.987465500000000274e-02,-2.425852205310000009e+00,7.860508808610000564e-02,-9.480483278419999493e+00,-1.059397030620000055e-02,3.941954579199999711e-03,5.062822252510000565e-03,1.000000000000000000e+00
8.503377500000000588e-02,-2.390503244030000030e+00,3.665042666559999857e-02,-9.511629527320000221e+00,-1.258902484549999845e-03,-3.944414667789999766e-03,-2.141687320549999930e-03,1.000000000000000000e+00
9.004736700000000316e-02,-2.401000526520000289e+00,7.030381323999999876e-02,-9.479122511459999956e+00,-4.229457117619999512e-03,7.459172047670000621e-05,-1.343142427499999930e-02,1.000000000000000000e+00
9.505931400000000586e-02,-2.452840019349999956e+00,5.381702171500000326e-02,-9.461032728019999283e+00,-1.162427663799999941e-02,-7.689964957540000069e-03,3.793947398660000290e-04,1.000000000000000000e+00
1.000078040000000057e-01,-2.414977467810000000e+00,6.649392239599999366e-02,-9.506563476100000187e+00,-1.095648575570000102e-02,8.840688504280000762e-03,-3.244509454820000260e-03,1.000000000000000000e+00
1.050031079999999978e-01,-2.416330343729999885e+00,7.224454921139999986e-02,-9.520357608169998542e+00,-2.692101057619999613e-03,1.468159258370000178e-02,4.831422120330000451e-03,1.000000000000000000e+00
1.100733269999999986e-01,-2.402641133329999956e+00,5.685312887469999577e-02,-9.518592352069999762e+00,-3.788375994190000366e-03,-1.189016504209999912e-03,-2.128535881640000130e-03,1.000000000000000000e+00
1.148817320000000003e-01,-2.398263795030000090e+00,7.015590636910000455e-02,-9.490275773639998746e+00,-1.033800840379999961e-02,-3.683875780549999718e-03,-7.510322146120000479e-03,1.000000000000000000e+00
1.198847900000000050e-01,-2.424409166890000300e+00,6.191195120080000835e-02,-9.481793191980001367e+00,-7.317511364820000232e-03,7.432318292559999921e-03,-8.376280311499999893e-04,1.000000000000000000e+00
1.248700499999999963e-01,-2.413562632579999701e+00,6.635177397890000550e-02,-9.521015779820000802e+00,-1.364174485210000072e-02,-2.960089826959999993e-03,-2.764451084660000165e-03,1.000000000000000000e+00
1.300380329999999973e-01,-2.430588440049999743e+00,7.355197854820000325e-02,-9.511668105760000103e+00,4.054722841829999994e-03,1.226743496950000005e-02,6.504124030470000671e-03,1.000000000000000000e+00
1.350279189999999963e-01,-2.362796029680000132e+00,1.190379011009999877e-01,-9.467457208110001687e+00,-1.041807979350000031e-02,-3.917592577640000191e-03,-4.936066921800000284e-03,1.000000000000000000e+00
1.400426389999999965e-01,-2.388522445479999590e+00,8.290272134789999914e-02,-9.520788985330000287e+00,1.506541203710000040e-02,5.037034861739999691e-05,-4.852064885199999789e-03,1.000000000000000000e+00
1.449725709999999945e-01,-2.436337797359999779e+00,8.553017464150000637e-02,-9.504428802160001410e+00,-2.851639874280000389e-03,1.412361115220000032e-02,4.405923187729999906e-03,1.000000000000000000e+00
1.498608580000000134e-01,-2.397420622199999851e+00,5.435521567829999789e-02,-9.528395368680000033e+00,6.994289346039999494e-03,5.860976874829999621e-03,-3.691362217069999244e-04,1.000000000000000000e+00
1.547916709999999918e-01,-2.417931641440000057e+00,9.151812647729999639e-02,-9.499702942680000817e+00,-2.095655305310000025e-03,5.073684267699999501e-03,-4.409218672659999979e-04,1.000000000000000000e+00
1.598901339999999893e-01,-2.422972412090000027e+00,6.656499203789999208e-02,-9.499337031980001456e+00,8.297088555989999906e-03,-9.089854545889999513e-03,-1.197977573610000020e-03,1.000000000000000000e+00
1.648624230000000079e-01,-2.417513416029999807e+00,7.839759194839998613e-02,-9.501005257450000130e+00,4.236437845979999610e-03,1.170132495460000054e-02,2.068664180109999837e-03,1.000000000000000000e+00
1.699307369999999984e-01,-2.423370471500000178e+00,1.001014559679999916e-01,-9.478862399219998736e+00,-2.712672343480000258e-03,-1.329195313160000218e-02,-6.110347807409999450e-03,1.000000000000000000e+00
1.748607510000000087e-01,-2.419569033390000179e+00,7.759339942609999596e-02,-9.453494733730000377e+00,6.610929500310000657e-03,4.634737037119999667e-03,1.924268202860000094e-03,1.000000000000000000e+00
1.798225519999999966e-01,-2.445148149670000048e+00,5.218408218430000550e-02,-9.516769812810000673e+00,7.749652140770000143e-04,1.691086217760000288e-02,6.232799030839999629e-03,1.000000000000000000e+00
1.848669669999999932e-01,-2.406722411290000085e+00,7.381905025280000032e-02,-9.477322184039998376e+00,8.983593434100000524e-03,-4.222304560239999865e-03,7.652590051289999071e-03,1.000000000000000000e+00
1.900503420000000110e-01,-2.415969547590000044e+00,1.035513772259999965e-01,-9.487587557470000377e+00,-1.233292371030000022e-02,-7.735082879660000119e-03,1.816409872840000096e-03,1.000000000000000000e+00
1.948548880000000039e-01,-2.403337737290000220e+00,9.261806880960000987e-02,-9.511534834769999947e+00,1.037759147579999860e-02,6.155301816759999652e-04,-7.533922791479999784e-03,1.000000000000000000e+00
1.999864889999999895e-01,-2.413077625540000160e+00,5.326784513330000415e-02,-9.504211360010000220e+00,-9.118227288129998609e-03,-1.009886059909999995e-02,1.095103938129999947e-02,1.000000000000000000e+00
2.050368969999999957e-01,-2.369640050350000138e+00,8.906495203839998043e-02,-9.510280450790000728e+00,-2.634357078929999837e-04,1.424719206989999779e-02,-1.621583662929999836e-02,1.000000000000000000e+00
2.099161089999999896e-01,-2.444297670320000115e+00,6.093464430100000578e-02,-9.452312830469999483e+00,1.314714271579999968e-02,7.005971856420000615e-03,6.732598878439999789e-03,1.000000000000000000e+00
2.149917090000000031e-01,-2.433749096040000115e+00,7.033708075540000271e-02,-9.482211709650000486e+00,3.094419650729999735e-02,6.975898519160000054e-03,3.597090719270000167e-03,1.000000000000000000e+00
2.200223169999999950e-01,-2.404402297779999920e+00,3.316154337030000065e-02,-9.509885898520000325e+00,1.028741057960000024e-02,9.477342478929999536e-03,-5.696320906279999340e-03,1.000000000000000000e+00
2.250282769999999988e-01,-2.422972850479999884e+00,7.045972075440000426e-02,-9.464564409279999424e+00,-2.341645536940000112e-03,7.715679705140000670e-03,-1.003145799039999869e-02,1.000000000000000000e+00
2.299052609999999996e-01,-2.471743749520000311e+00,3.430846436609999439e-02,-9.515789569600000775e+00,8.406681939959999642e-03,3.629518672820000215e-03,1.379113178699999977e-02,1.000000000000000000e+00
2.348788790000000126e-01,-2.370280247949999808e+00,4.835466922240000409e-02,-9.536559970429999922e+00,4.558260552590000410e-03,-8.560626767580001295e-03,-7.323306053880000201e-03,1.000000000000000000e+00
2.400465430000000011e-01,-2.427151597469999977e+00,9.734560878810001594e-02,-9.514027236110001340e+00,1.080153696240000044e-02,1.212385110559999896e-02,-3.274898976090000538e-03,1.000000000000000000e+00
2.449809259999999878e-01,-2.433258243780000107e+00,7.349348069339999012e-02,-9.510998828199999977e+00,4.914667457340000239e-03,1.363779418169999876e-02,1.650765165689999786e-02,1.000000000000000000e+00
2.499102719999999889e-01,-2.399306874340000117e+00,7.857986231329999738e-02,-9.482903199049999898e+00,-2.053514588620000171e-03,4.099325276909999288e-03,6.857554428279999219e-03,1.000000000000000000e+00
2.548715730000000179e-01,-2.393995031669999829e+00,6.282614800289999801e-02,-9.510637593669999390e+00,3.773516975340000367e-03,8.407711982729999811e-03,1.651122467590000016e-03,1.000000000000000000e+00
2.600162540000000022e-01,-2.377185935690000029e+00,3.095477687390000079e-02,-9.479588959930000058e+00,8.568436838689999849e-03,6.859452463689999849e-03,-8.683654479680001301e-03,1.000000000000000000e+00
2.648652329999999777e-01,-2.412168109480000044e+00,2.602660660660000014e-02,-9.495337148680000894e+00,4.576213657859999964e-03,1.250616181639999797e-02,3.635758301239999744e-03,1.000000000000000000e+00
2.699507329999999983e-01,-2.435186727629999659e+00,7.731029903519999469e-02,-9.494648581899999940e+00,7.105126511310000219e-03,1.085474528370000170e-02,9.203575551510001160e-03,1.000000000000000000e+00
2.748201459999999874e-01,-2.361619971629999704e+00,7.114805007839998530e-02,-9.505157116430000386e+00,9.405587799850000444e-03,6.726980209350000468e-03,-5.112835671749999845e-03,1.000000000000000000e+00
2.798271880000000045e-01,-2.401309300199999885e+00,5.108867902990000404e-02,-9.491531911180000947e+00,-3.008157364090000355e-04,-3.836299758400000398e-03,-5.440500099209999614e-03,1.000000000000000000e+00
2.850033599999999834e-01,-2.422862521969999960e+00,6.307605394359999673e-02,-9.484221880430000695e+00,8.816624060270001131e-03,9.038210846479999457e-04,1.059906324370000043e-03,1.000000000000000000e+00
2.900411070000000202e-01,-2.410798282430000050e+00,4.771670467899999379e-02,-9.473298335360000877e+00,3.882462158800000212e-03,7.455768994989999017e-03,7.879314944150000316e-05,1.000000000000000000e+00
2.948374040000000251e-01,-2.381059708380000028e+00,4.609284350399999591e-02,-9.506680964999999262e+00,4.312774632130000375e-03,2.010238356890000147e-02,4.618644714359999848e-03,1.000000000000000000e+00
2.999852029999999781e-01,-2.391881692780000179e+00,5.929824787140000608e-02,-9.502505725139998916e+00,-2.771468367429999642e-03,-2.514087595050000078e-03,2.586602931840000039e-03,1.000000000000000000e+00
3.050510390000000238e-01,-2.373774665940000084e+00,1.033186005169999949e-01,-9.497157934369999666e+00,-2.925914712249999810e-03,-4.317823331799999949e-04,-3.427460091189999791e-03,1.000000000000000000e+00
3.100678640000000263e-01,-2.447993894490000155e+00,7.139458131860000611e-02,-9.495481525589999805e+00,-2.146468963469999863e-03,8.549589663740000262e-03,3.128463169559999885e-03,1.000000000000000000e+00
3.148955840000000062e-01,-2.380078296130000215e+00,5.920766067819999839e-02,-9.506537757130001154e+00,-6.170091219250000043e-03,1.189296040679999923e-02,3.003171877940000439e-03,1.000000000000000000e+00
3.200227789999999795e-01,-2.392886924299999940e+00,5.551817677680000868e-02,-9.527491113310000870e+00,1.479578111320000063e-02,2.360801585020000024e-02,8.126618340610000657e-04,1.000000000000000000e+00
3.249008099999999843e-01,-2.380904810079999656e+00,6.988188433380000675e-02,-9.509074582140000231e+00,1.630928553640000056e-02,7.848169654610000212e-03,2.413867739960000054e-03,1.000000000000000000e+00
3.298903449999999737e-01,-2.376064822700000079e+00,5.549979173669999238e-02,-9.518716270710001481e+00,6.092639174309999982e-03,4.524464718999999906e-03,5.074858665470000085e-03,1.000000000000000000e+00
3.350458510000000056e-01,-2.390552343870000040e+00,4.756766073030000569e-02,-9.485575633130000739e+00,1.193131413309999993e-02,1.488436385989999784e-02,-1.451938878739999659e-04,1.000000000000000000e+00
3.400369249999999899e-01,-2.374644142249999756e+00,5.688972999149999321e-02,-9.496028053559999904e+00,2.476239576940000159e-02,4.893331788479999937e-05,1.224624225869999899e-03,1.000000000000000000e+00
3.450171169999999843e-01,-2.399825929779999978e+00,5.692073248449999734e-02,-9.505821133299999559e+00,1.964895427230000172e-02,1.024764962489999910e-02,-1.049403101209999984e-03,1.000000000000000000e+00
3.499180559999999773e-01,-2.409237755119999935e+00,6.872123848999998896e-02,-9.512190083810001084e+00,-3.857773030179999663e-03,-1.115530543029999780e-02,7.052456028759999940e-03,1.000000000000000000e+00
3.548602140000000071e-01,-2.344671759440000169e+00,8.539366138080001223e-02,-9.495438270970000261e+00,-1.172826858239999978e-03,1.728058606390000043e-02,8.799508213999998867e-05,1.000000000000000000e+00
3.600279869999999938e-01,-2.344617983430000052e+00,6.388706436580000869e-02,-9.516080661510001093e+00,1.127488352360000133e-02,-1.562936231489999871e-04,-1.870142854749999931e-02,1.000000000000000000e+00
3.650373749999999973e-01,-2.455386781220000092e+00,9.059930373249999724e-02,-9.461978484439999448e+00,-2.763404510920000005e-03,8.872693870220000516e-04,8.300295099619998951e-03,1.000000000000000000e+00
3.700568710000000094e-01,-2.379154751540000223e+00,-3.219127584929999675e-02,-9.489979421039999252e+00,1.268989033999999919e-02,5.196633748710000229e-03,8.750120177869999448e-04,1.000000000000000000e+00
3.750348620000000244e-01,-2.390837444420000235e+00,8.314116061319999640e-02,-9.496689147819999732e+00,6.657674442979999614e-03,9.379378519950000437e-03,-2.093977062029999964e-03,1.000000000000000000e+00
3.798494459999999795e-01,-2.383571691200000231e+00,-3.929210370579999667e-03,-9.516858075619998303e+00,1.504061184820000042e-02,-7.038215175270000346e-03,2.467557787900000231e-04,1.000000000000000000e+00
3.848725570000000040e-01,-2.413583236970000101e+00,4.875932733350000353e-02,-9.492252626670000026e+00,-4.369139671329999586e-03,2.259120345119999731e-03,-1.773634692650000134e-03,1.000000000000000000e+00
3.899910750000000204e-01,-2.394354220369999897e+00,6.179265850300000307e-02,-9.478242806020000799e+00,-4.619164858010000110e-03,1.203602645550000058e-02,1.093227043749999891e-02,1.000000000000000000e+00
3.948532339999999974e-01,-2.331925236720000072e+00,2.568146926359999790e-02,-9.512447857959999808e+00,1.056673284620000125e-02,1.581820845599999845e-02,1.037595793599999962e-02,1.000000000000000000e+00
4.000387739999999859e-01,-2.342098401819999953e+00,7.234189950550000414e-02,-9.487302310789999638e+00,4.330970114100000376e-05,1.689766068010000073e-04,7.492440752689999255e-03,1.000000000000000000e+00
4.050195540000000038e-01,-2.328613189569999964e+00,2.103336443989999860e-01,-9.491486318479999795e+00,-7.976638153199998998e-03,1.016917172820000145e-02,-9.067518636580000624e-03,1.000000000000000000e+00
4.100738879999999975e-01,-2.433271833920000127e+00,-1.891366019570000015e-02,-9.477454285989999505e+00,6.815574131909999875e-03,-7.358451373880000104e-03,-9.755850769580001443e-04,1.000000000000000000e+00
4.150322719999999799e-01,-2.321151767649999975e+00,2.033156371290000264e-01,-9.460447621609999302e+00,7.595706265420000027e-03,-1.501120626930000203e-03,-2.771848812699999794e-06,1.000000000000000000e+00
4.198394049999999988e-01,-2.532321260079999803e+00,-3.312993352250000190e-02,-9.380950306529999949e+00,3.873926587399999927e-03,-3.761262632909999609e-03,4.576169885690000068e-05,1.000000000000000000e+00
4.248791539999999811e-01,-2.393532820979999975e+00,7.487884323769999906e-02,-9.488345682360000310e+00,-6.095340009780000033e-03,2.237712219359999991e-02,-3.837461117659999601e-04,1.000000000000000000e+00
4.299260710000000207e-01,-2.407185791019999854e+00,2.695807192050000273e-02,-9.538537407989998940e+00,-9.746613912280000999e-03,-1.262828707699999858e-02,-7.129861973229999553e-03,1.000000000000000000e+00
4.348529819999999990e-01,-2.470803546059999967e+00,1.254237296809999902e-01,-9.442991459899999995e+00,-3.027872182429999955e-03,-8.178929798310001151e-03,4.253707826139999960e-03,1.000000000000000000e+00
4.400481760000000131e-01,-2.386802489819999984e+00,6.763964923180000588e-02,-9.500218490989999154e+00,6.550078745930000036e-03,-7.691138423979999687e-03,3.138105385009999550e-04,1.000000000000000000e+00
4.449761400000000200e-01,-2.414933044150000097e+00,5.473695870469999503e-02,-9.488720360889999483e+00,1.816167868669999949e-02,9.681984782219999960e-03,-9.622426005080000769e-04,1.000000000000000000e+00
4.499226889999999868e-01,-2.373869796879999772e+00,3.507472461440000466e-02,-9.542416879770000193e+00,1.089107152070000091e-02,9.400067850950001233e-03,3.787709865719999917e-04,1.000000000000000000e+00
4.548679919999999988e-01,-2.359154896690000225e+00,7.602456550699999982e-02,-9.482000112730000652e+00,-4.397412762050000208e-03,1.613780297339999920e-02,-3.530337475239999842e-03,1.000000000000000000e+00
4.600193719999999820e-01,-2.388290244159999798e+00,-2.814468332259999900e-02,-9.562279518099998654e+00,1.206224877390000075e-02,-1.021647709420000051e-03,5.833784118290000036e-03,1.000000000000000000e+00
4.649868120000000271e-01,-2.412566315019999852e+00,1.316635328190000030e-02,-9.486859243200001401e+00,2.143550664190000017e-03,-5.087562371050000087e-03,-3.090851707379999990e-03,1.000000000000000000e+00
4.700705470000000052e-01,-2.327241755079999752e+00,8.267226445979999894e-02,-9.537027587939999052e+00,9.555675089359999888e-03,-5.230504088100000788e-03,-2.146383188660000094e-02,1.000000000000000000e+00
4.748882580000000075e-01,-2.349294889199999847e+00,1.111377498350000076e-01,-9.398415820589999470e+00,-5.173471290619999219e-03,-3.452412784099999528e-03,-1.535275857900000006e-02,1.000000000000000000e+00
4.798254080000000088e-01,-2.359497426519999941e+00,4.496082553309999064e-02,-9.499550382469999832e+00,1.091034337879999948e-02,-1.650005695409999945e-03,-2.119751833379999659e-02,1.000000000000000000e+00
4.849973220000000085e-01,-2.449910687900000106e+00,-1.011539903779999985e-02,-9.564320084020000223e+00,5.096325185150000223e-05,1.026719994839999858e-02,-9.551532566549999353e-03,1.000000000000000000e+00
4.899773620000000274e-01,-2.356605650600000157e+00,7.017820496580000345e-02,-9.603906828999999590e+00,1.434151176359999870e-02,1.247084233909999916e-02,-1.009920611979999924e-02,1.000000000000000000e+00
4.948547560000000067e-01,-2.393225216339999850e+00,1.967001462460000183e-01,-9.427461882330000265e+00,1.594150997699999781e-02,2.819965593520000306e-03,-5.938743241130000315e-03,1.000000000000000000e+00
4.998521819999999782e-01,-2.417568653350000041e+00,1.263771944810000020e-02,-9.538795182139999440e+00,2.339488361029999977e-03,-6.745812483129999884e-03,-1.085635856730000036e-03,1.000000000000000000e+00
5.050185849999999643e-01,-2.443860155689999925e+00,-9.494306855789998167e-02,-9.472856436810001668e+00,-1.049119140949999855e-02,-1.373443007470000025e-02,4.180644638839999851e-03,1.000000000000000000e+00
5.100201030000000024e-01,-2.317210482670000182e+00,-7.152989585270000221e-03,-9.584554478270000288e+00,9.441733360290001723e-03,-2.704569697379999652e-02,9.493374265729999373e-03,1.000000000000000000e+00
5.150286410000000092e-01,-2.477987320080000000e+00,8.691774740930000021e-02,-9.232987357979999032e+00,-1.258163712920000021e-03,1.184763666239999937e-02,7.763164117930000316e-03,1.000000000000000000e+00
5.200168539999999728e-01,-2.444714434429999805e+00,1.267144544780000048e-01,-9.583886954269999592e+00,-5.256823264060000306e-03,6.658758968109999149e-03,-1.293041370810000049e-02,1.000000000000000000e+00
5.249761250000000157e-01,-2.328118099529999707e+00,3.257891661009999773e-02,-9.538832007019999892e+00,3.955203574150000130e-03,4.738084971899999762e-03,-1.386704482140000035e-02,1.000000000000000000e+00
5.300825980000000159e-01,-2.380422725649999904e+00,-1.350262918169999916e-02,-9.496060202260000693e+00,-9.136968292299998962e-03,9.393674321469999353e-03,2.069801092150000063e-02,1.000000000000000000e+00
5.348673120000000392e-01,-2.386211684320000082e+00,1.655769334529999873e-02,-9.506059033710000605e+00,6.689681671560000591e-03,-5.689260549840000590e-03,-1.190723851320000230e-04,1.000000000000000000e+00
5.400322850000000008e-01,-2.284338579029999927e+00,-3.573443976530000371e-02,-9.431818908500000376e+00,-3.246279433369999960e-03,9.930015541610000274e-03,1.220519468189999908e-02,1.000000000000000000e+00
5.450043409999999477e-01,-2.389661386379999808e+00,1.060795257310000045e-01,-9.608068624850000461e+00,-7.945911958810000092e-03,7.780757732689999942e-03,-7.480186410250000417e-03,1.000000000000000000e+00
5.499025370000000246e-01,-2.197042280629999844e+00,1.323402036709999952e-01,-9.361142613250001077e+00,1.851330278439999996e-03,6.442170124500000037e-04,-3.410985693340000055e-03,1.000000000000000000e+00
5.548740989999999540e-01,-2.343985384609999834e+00,6.270155350880000922e-02,-9.636527826620000070e+00,-2.292525023219999826e-03,1.258503738789999889e-02,-2.248077653350000205e-03,1.000000000000000000e+00
5.600124739999999823e-01,-2.235770509089999969e+00,-1.926483912040000135e-02,-9.453381921010000966e+00,-1.246004924179999925e-02,9.375331923370000889e-03,-1.519265957179999869e-02,1.000000000000000000e+00
5.650096740000000173e-01,-2.378729511870000035e+00,1.136223971250000103e-01,-9.539285011480000520e+00,1.303137652579999979e-02,-1.549910195169999956e-02,-1.345054805280000015e-02,1.000000000000000000e+00
5.700475179999999753e-01,-2.323876370299999827e+00,1.140922613920000023e-01,-9.453253326189999584e+00,-6.166377570479999841e-04,-4.040273837750000055e-03,-5.081810522819999289e-04,1.000000000000000000e+00
5.749996240000000425e-01,-2.430625849449999709e+00,5.873073191540000015e-02,-9.579251695689999124e+00,-8.991535287350000121e-05,-1.612549275159999920e-02,3.394417231899999905e-03,1.000000000000000000e+00
5.800210980000000127e-01,-2.444130058670000327e+00,3.159097415190000036e-02,-9.437978015649999719e+00,-4.484849516300000102e-03,3.459408879280000126e-03,-1.207377854730000075e-02,1.000000000000000000e+00
5.850091229999999642e-01,-2.492005031780000213e+00,-2.725742247659999895e-02,-9.497588142479999718e+00,1.435352955009999883e-03,3.437382634730000441e-03,3.619407536459999953e-03,1.000000000000000000e+00
5.899480799999999858e-01,-2.435321898309999789e+00,-6.893702753199999755e-02,-9.482069670830000518e+00,4.005713853989999532e-03,4.985966719689999965e-03,1.632487215099999792e-02,1.000000000000000000e+00
5.948801099999999620e-01,-2.403902385440000344e+00,2.227969571279999825e-02,-9.530099249990000132e+00,-1.291537098590000120e-02,1.681832782920000130e-02,6.981979124250000182e-03,1.000000000000000000e+00
5.998798690000000100e-01,-2.322623447629999838e+00,-1.722649027670000027e-02,-9.523961185619999270e+00,-1.606591045860000094e-02,3.162783384320000390e-02,-1.929411664609999809e-04,1.000000000000000000e+00
6.050094710000000209e-01,-2.391126928890000336e+00,4.658521300619999916e-03,-9.489297283999999166e+00,-5.425391718750000383e-03,1.589701883489999870e-02,2.774689113719999885e-03,1.000000000000000000e+00
6.100524680000000144e-01,-2.356791820820000272e+00,1.018516606359999993e-01,-9.521546525699999819e+00,-1.167468540370000113e-02,1.497615315020000074e-02,-2.469721948730000186e-03,1.000000000000000000e+00
6.150243250000000383e-01,-2.447910453990000068e+00,1.915243510430000018e-01,-9.496351878680000524e+00,-1.403157319869999947e-02,1.491386257110000058e-02,4.134537652129999935e-03,1.000000000000000000e+00
6.200076089999999596e-01,-2.395375818499999809e+00,1.021027675870000012e-01,-9.507379468659999944e+00,-1.324977725739999966e-02,7.409654557699999790e-03,2.826577983799999838e-04,1.000000000000000000e+00
6.250332680000000307e-01,-2.380896188379999945e+00,2.688219138939999808e-02,-9.525742223820000021e+00,9.557333774860000269e-03,9.552694391460000729e-04,6.705272011459999584e-03,1.000000000000000000e+00
6.300419990000000192e-01,-2.306944963119999858e+00,1.649242942130000056e-01,-9.502800324169999868e+00,-5.775922443720000153e-03,1.991439796979999760e-02,-5.105689167979999762e-03,1.000000000000000000e+00
6.348435690000000520e-01,-2.385646890040000301e+00,2.126216092049999784e-01,-9.502222816539999783e+00,-7.865861058239999662e-03,-2.087261527779999803e-03,7.130722515289999834e-03,1.000000000000000000e+00
6.398475860000000237e-01,-2.427698271570000177e+00,8.343336675910000000e-02,-9.471066046260000704e+00,1.665882300589999979e-03,-9.703630581500000477e-03,1.294743549079999979e-02,1.000000000000000000e+00
6.449988049999999529e-01,-2.471662500979999955e+00,5.612112937230000209e-02,-9.491704929660000900e+00,2.620677463710000162e-03,-9.399408008899999382e-04,9.202963672580000143e-03,1.000000000000000000e+00
6.498885930000000144e-01,-2.292138000740000070e+00,5.353930075220000168e-02,-9.454231231310000538e+00,2.847538562490000043e-03,7.673051208259999700e-03,-1.100647449489999992e-02,1.000000000000000000e+00
6.549087829999999943e-01,-2.421456162309999716e+00,-1.617636701919999975e-02,-9.426829429650000591e+00,8.836114779109999554e-03,-1.515295822169999973e-02,2.460134448480000204e-03,1.000000000000000000e+00
6.600204039999999495e-01,-2.399712094139999863e+00,9.058887367010001745e-02,-9.469858424030000776e+00,1.082496158779999891e-02,-9.218391031030000876e-03,-7.153102196749999697e-03,1.000000000000000000e+00
6.650042550000000441e-01,-2.824838517769999946e+00,-6.884749978479999533e-02,-9.766792036860001858e+00,-4.997292533520000281e-03,-1.456432789559999885e-02,9.755426086490000259e-03,1.000000000000000000e+00
6.700472469999999570e-01,-2.087467953320000014e+00,9.089899906519999240e-02,-9.308154534910000777e+00,3.339837770909999913e-03,7.267402485010000107e-03,-3.875724738459999843e-03,1.000000000000000000e+00
6.750179490000000060e-01,-2.393447042400000058e+00,4.049743921630000187e-02,-9.612191842260001451e+00,8.234936743970000181e-03,3.637121059000000302e-03,-3.875048831110000126e-03,1.000000000000000000e+00
6.800298900000000257e-01,-2.538574767520000108e+00,-6.811838635919999219e-02,-9.429042429520000823e+00,5.194274708630000625e-03,5.626527592540000663e-03,1.031189877539999931e-02,1.000000000000000000e+00
6.850086079999999633e-01,-2.314504146320000011e+00,9.411953201419999415e-02,-9.583969371860000308e+00,8.542248047890001542e-03,-8.146191015839999994e-03,-8.715081959959999902e-03,1.000000000000000000e+00
6.899228010000000300e-01,-2.439337271429999898e+00,-8.480861205150000415e-03,-9.382514487099999911e+00,-1.190558262170000013e-02,2.617398742589999855e-03,-1.101752277460000054e-02,1.000000000000000000e+00
6.948727749999999981e-01,-2.436498248619999973e+00,1.193158595260000038e-01,-9.595857378049998943e+00,-2.224289998409999941e-02,1.817923225459999736e-02,-1.340693701060000076e-02,1.000000000000000000e+00
6.998055629999999638e-01,-2.327085687740000353e+00,-2.946616401759999740e-02,-9.275503726669999338e+00,-2.300726063550000144e-02,-2.138196118179999661e-02,-1.584924641070000178e-03,1.000000000000000000e+00
7.049946030000000530e-01,-2.376679301339999828e+00,8.430737311460001493e-02,-9.485731115950001069e+00,-1.670966669920000147e-02,-2.167485654350000156e-04,5.046403966840000074e-03,1.000000000000000000e+00
7.100666319999999754e-01,-2.343167346230000003e+00,6.966615009080000254e-02,-9.512944117050000870e+00,-1.284631667660000040e-03,8.581041358410000652e-03,1.334558706729999968e-02,1.000000000000000000e+00
7.150331540000000041e-01,-2.339307748189999980e+00,-3.607014484289999823e-02,-9.511258940439999421e+00,-7.666710298510000764e-03,-3.837059484790000113e-03,3.556412877510000108e-03,1.000000000000000000e+00
7.199070440000000515e-01,-2.426472383030000124e+00,6.936992535680000516e-02,-9.440398520789999637e+00,-2.640690654519999708e-02,-1.637472398580000141e-02,1.660935208200000138e-02,1.000000000000000000e+00
7.248754790000000447e-01,-2.433031010900000179e+00,-3.187607470359999501e-02,-9.477553070189999929e+00,-1.979735493659999859e-02,-1.047956757250000093e-02,7.105854339899999629e-03,1.000000000000000000e+00
7.298111809999999755e-01,-2.409337562229999730e+00,5.173854407370000186e-02,-9.427530855910001506e+00,-7.524998858570000441e-03,-2.315106103199999696e-03,-2.739909105000000022e-03,1.000000000000000000e+00
7.348423200000000488e-01,-2.352913518090000267e+00,3.136322752729999580e-02,-9.546823590289999828e+00,-3.418293967839999836e-02,1.813354156909999931e-02,2.841778332369999677e-03,1.000000000000000000e+00
7.400105900000000236e-01,-2.395435439729999949e+00,4.402585080449999966e-02,-9.475320196569999354e+00,-2.642848715190000350e-02,9.802141226829999554e-03,8.958330377939999201e-03,1.000000000000000000e+00
7.450062889999999882e-01,-2.363609391890000300e+00,5.100477273930000000e-02,-9.482140982500000703e+00,-1.725281029940000169e-02,-3.943026997150000240e-03,1.292833779009999913e-02,1.000000000000000000e+00
7.499516040000000494e-01,-2.387607814849999954e+00,7.593274533799999892e-02,-9.498299505619998584e+00,-1.938599534329999916e-02,3.004004713150000214e-03,1.650565862660000049e-02,1.000000000000000000e+00
7.548167449999999556e-01,-2.385585807500000044e+00,8.993999044040000557e-02,-9.530508999830001216e+00,-1.042452454570000006e-02,4.920046776529999992e-03,1.729218475520000187e-02,1.000000000000000000e+00
7.600472539999999499e-01,-2.367677371979999723e+00,7.398174826749999433e-02,-9.471627771789998818e+00,-2.133996970950000072e-02,-1.767627894880000050e-02,-1.733023300770000080e-02,1.000000000000000000e+00
7.649886099999999578e-01,-2.426851445479999647e+00,3.070587786340000028e-02,-9.507111173110001090e+00,-1.210281066600000024e-02,-4.509394988420000264e-03,-8.405696135009999969e-04,1.000000000000000000e+00
7.700193560000000437e-01,-2.397064209979999916e+00,6.512554751900000161e-02,-9.510144841719998965e+00,-1.455594226720000224e-02,4.720868542790000039e-03,7.451347075400000138e-03,1.000000000000000000e+00
7.748874129999999694e-01,-2.402967588809999722e+00,4.727520798919999934e-02,-9.520114447070000097e+00,-1.886504329740000194e-02,1.151637081060000005e-02,7.611395791170000140e-03,1.000000000000000000e+00
7.798562599999999678e-01,-2.183996921100000321e+00,1.038248101729999893e-02,-9.435321948180000362e+00,-3.879266977310000253e-02,1.138193905349999847e-02,3.309235209599999897e-03,1.000000000000000000e+00
7.849893249999999600e-01,-2.640501064290000421e+00,1.797505275490000054e-01,-9.566666939400001013e+00,-1.509660761799999987e-02,-1.912259380329999836e-03,4.203621298069999505e-03,1.000000000000000000e+00
7.899299960000000231e-01,-2.343212208279999764e+00,2.157395859620000328e-02,-9.439496603520000306e+00,-2.949169278140000017e-02,-1.154743973170000056e-02,6.743300706149999400e-03,1.000000000000000000e+00
7.949059469999999461e-01,-2.318990790219999987e+00,7.215368345700000352e-02,-9.490962586860000272e+00,-2.167112007740000165e-02,8.274852298200000358e-03,1.435711141679999955e-02,1.000000000000000000e+00
7.998105890000000162e-01,-2.478812080470000012e+00,4.199012089290000277e-02,-9.482722581779999160e+00,-3.219241276379999905e-02,1.100068911909999995e-02,5.001987330620000401e-03,1.000000000000000000e+00
8.050074329999999945e-01,-2.510249421259999725e+00,4.588598668709999856e-02,-9.446827092539999526e+00,-3.743362054230000430e-02,1.693926937879999817e-02,9.318085387350001289e-03,1.000000000000000000e+00
8.100374919999999701e-01,-2.329717497549999905e+00,3.723195288059999442e-02,-9.551919452130000820e+00,-1.586976274850000063e-02,1.780758239329999909e-02,7.996787317100000764e-03,1.000000000000000000e+00
8.150000080000000535e-01,-2.363187951600000059e+00,7.219965975690000037e-02,-9.512898524339998829e+00,-3.354124724859999795e-02,1.634412258859999773e-02,4.559930413960000192e-03,1.000000000000000000e+00
8.200078240000000518e-01,-2.312117105060000011e+00,1.006083277779999952e-01,-9.498547927420000647e+00,-2.501186169679999946e-02,-3.728590672839999804e-03,1.255320385100000026e-02,1.000000000000000000e+00
8.250086279999999661e-01,-2.387098842409999921e+00,5.569454255730000442e-02,-9.503864154009999510e+00,-3.053863719110000083e-02,9.028331376610000680e-03,1.142481621349999976e-02,1.000000000000000000e+00
8.300591729999999835e-01,-2.489465284170000015e+00,2.757704406909999850e-02,-9.491485733950000281e+00,-2.369478531179999847e-02,1.182524859910000052e-02,1.652299240229999910e-02,1.000000000000000000e+00
8.348547950000000384e-01,-2.313494238630000144e+00,9.346889521889999164e-02,-9.501862751060000889e+00,-2.118097059429999846e-02,1.262806262820000136e-02,2.149595506489999919e-02,1.000000000000000000e+00
8.398431509999999545e-01,-2.354067218169999975e+00,2.490187917620000080e-02,-9.614207273739999948e+00,-1.370330061759999878e-02,-4.011881537740000117e-04,1.775995455679999988e-02,1.000000000000000000e+00
8.449765729999999531e-01,-2.266537549400000184e+00,-6.695237935370000615e-02,-9.593313538789999484e+00,-6.017329171300001174e-03,-6.174712441859999713e-03,3.272874653340000078e-02,1.000000000000000000e+00
8.500198319999999752e-01,-2.266033983799999874e+00,-4.382766135129999990e-02,-9.535988892549999818e+00,1.616576313970000123e-02,-1.089692302050000033e-02,4.344560578469999768e-02,1.000000000000000000e+00
8.550006669999999920e-01,-2.339765282700000171e+00,1.879635053400000033e-02,-9.482627889239999774e+00,3.012663312259999948e-02,-2.382064983249999879e-02,4.781411960720000076e-02,1.000000000000000000e+00
8.598396929999999605e-01,-2.432616584879999877e+00,8.113260640290000103e-02,-9.457084282660000341e+00,2.650366164739999947e-02,-9.030989371239998495e-03,6.225879117850000033e-02,1.000000000000000000e+00
8.648559369999999635e-01,-2.414593436929999726e+00,3.078305986909999903e-01,-9.531453002679999287e+00,1.517771091310000063e-02,-2.665784582500000180e-02,4.608552530410000431e-02,1.000000000000000000e+00
8.700282649999999673e-01,-2.426374037230000003e+00,4.305891460160000128e-01,-9.512610939570000923e+00,3.786402940749999946e-02,-2.796170301739999905e-02,2.474389970300000172e-02,1.000000000000000000e+00
8.750013100000000321e-01,-2.468714464829999677e+00,3.384937767729999658e-01,-9.432122859879999766e+00,3.240812197330000116e-02,-2.841952256859999609e-02,2.678723633290000170e-02,1.000000000000000000e+00
8.799986349999999735e-01,-2.429761926100000302e+00,1.366715656729999839e-01,-9.515964926169999671e+00,1.956724561749999952e-02,-7.478808052839999720e-03,1.939051598309999777e-02,1.000000000000000000e+00
8.848628410000000111e-01,-2.431490795719999820e+00,1.173177079789999994e-01,-9.539459199010000390e+00,3.026073984800000186e-02,-1.311120018360000146e-02,2.976610325279999830e-02,1.000000000000000000e+00
8.899153929999999990e-01,-2.300787025009999986e+00,5.492182288539999846e-02,-9.565455810050000451e+00,4.112388193609999715e-02,-2.836515009399999745e-02,1.870023086670000168e-02,1.000000000000000000e+00
8.950020720000000374e-01,-2.337110092020000085e+00,4.209470921199999494e-02,-9.528868246889999227e+00,5.523873865599999988e-02,-3.954229503869999968e-02,3.464400395750000250e-02,1.000000000000000000e+00
8.998369040000000485e-01,-2.335931988150000027e+00,1.182925534930000105e-01,-9.531070140840000704e+00,3.832598403100000162e-02,-3.445682674649999666e-02,3.719343990090000218e-02,1.000000000000000000e+00
9.050012520000000338e-01,-2.401512713819999867e+00,1.210920662849999940e-01,-9.520087559060000260e+00,5.099619925019999861e-02,-5.348020792009999802e-02,2.685235999520000152e-02,1.000000000000000000e+00
9.098940140000000287e-01,-2.479141750820000212e+00,1.902605599190000107e-01,-9.520309677380000224e+00,3.884388506409999775e-02,-7.668250054120000214e-02,3.044234029949999948e-02,1.000000000000000000e+00
9.150113650000000209e-01,-2.433923721949999841e+00,1.260947699430000069e-01,-9.498200721419999937e+00,3.416563197970000354e-02,-8.968950062989998473e-02,2.879126928750000078e-02,1.000000000000000000e+00
9.200012010000000462e-01,-2.494760760230000152e+00,1.129433059860000116e-02,-9.456243740179999691e+00,4.503754526380000789e-02,-6.596839427950000612e-02,2.736338973050000262e-02,1.000000000000000000e+00
9.250026510000000091e-01,-2.527176590669999889e+00,-7.893020555439999274e-04,-9.482114679020000381e+00,3.279446065430000057e-02,-5.744235962629999637e-02,3.745044767860000040e-02,1.000000000000000000e+00
9.299791920000000101e-01,-2.395584492819999856e+00,1.242353510129999977e-01,-9.430717669260001657e+00,2.222307398919999913e-02,-4.082041233780000361e-02,2.546180970970000207e-02,1.000000000000000000e+00
9.350122929999999943e-01,-2.466519585129999914e+00,1.679187815879999712e-01,-9.488106028389999835e+00,3.236344084139999855e-02,-3.327170014380000096e-02,2.551350742579999720e-02,1.000000000000000000e+00
9.400033639999999524e-01,-2.487704996500000210e+00,1.354885938330000206e-01,-9.400994146649999550e+00,2.415403909980000027e-02,-3.456271439789999900e-02,1.914155669509999894e-02,1.000000000000000000e+00
9.448576890000000006e-01,-2.534764853840000054e+00,3.894493537759999985e-02,-9.447517412889999022e+00,2.163372747599999826e-02,-1.008451264350000015e-02,7.227743975820000340e-03,1.000000000000000000e+00
9.500367669999999487e-01,-2.504506201440000357e+00,8.056357434330001233e-02,-9.420041376939998656e+00,5.757670849560000796e-03,-1.471868250520000018e-02,1.565223932270000048e-02,1.000000000000000000e+00
9.550024019999999725e-01,-2.446618806740000096e+00,1.216435261549999869e-01,-9.474664363010001367e+00,5.868275766259999299e-04,-8.290796540680000354e-03,5.802428349850000631e-03,1.000000000000000000e+00
9.600029719999999545e-01,-2.468736384400000095e+00,1.172988754139999978e-01,-9.431373502819999644e+00,4.211258143189999630e-03,-6.448983214800000849e-03,1.764067215839999758e-03,1.000000000000000000e+00
9.649516649999999585e-01,-2.478932491979999764e+00,1.086158575419999966e-01,-9.469687743639999766e+00,-1.443102676420000147e-02,3.178258426489999778e-03,6.459056399760000622e-03,1.000000000000000000e+00
9.700143209999999572e-01,-2.394384323249999724e+00,1.916331999790000240e-01,-9.474351643800000389e+00,-1.123101916160000081e-02,1.167123857889999783e-02,-2.604927169159999747e-03,1.000000000000000000e+00
9.749720579999999748e-01,-2.441790655940000221e+00,1.848939365850000016e-01,-9.460136071439999128e+00,-8.823323878459999670e-05,1.026551797989999973e-02,-2.657304890449999762e-02,1.000000000000000000e+00
9.799967619999999657e-01,-2.477742405409999904e+00,1.618459644799999930e-01,-9.495705397469999198e+00,-9.559934958819999926e-03,3.793282900010000371e-03,-1.232272014020000146e-02,1.000000000000000000e+00
9.850026859999999607e-01,-2.496984866020000027e+00,1.215712829030000108e-01,-9.478556694279999917e+00,-8.852138184010000660e-03,3.044434357430000036e-03,8.991470560430000689e-03,1.000000000000000000e+00
9.898999569999999970e-01,-2.348996490770000278e+00,8.330612365020000076e-02,-9.484291438530000562e+00,-7.763601839540000202e-03,6.902273744339999795e-03,-2.350727468729999978e-02,1.000000000000000000e+00
9.949798380000000053e-01,-2.445803106450000097e+00,8.813456672000000158e-02,-9.486015193589999228e+00,-1.793986186390000154e-02,-7.574968039989999659e-03,-1.881244964900000149e-02,1.000000000000000000e+00
9.998548999999999909e-01,-2.422781857950000006e+00,1.046924278869999919e-01,-9.492420968979999429e+00,-2.080108039079999957e-02,-1.457226346250000077e-03,-2.023799344899999963e-02,1.000000000000000000e+00
1.004856903999999940e+00,-2.480854107690000365e+00,8.108453861060001266e-02,-9.481963872370000601e+00,-9.063184261319998797e-03,1.001356448979999827e-02,-5.046296864750000367e-03,1.000000000000000000e+00
1.010046535999999939e+00,-2.376783784630000174e+00,1.285043244360000170e-01,-9.481268875839999666e+00,-8.998473174870002048e-03,4.031302407380000022e-03,-1.934200152749999957e-02,1.000000000000000000e+00
1.015020945000000063e+00,-2.399934066329999727e+00,1.080704255529999977e-02,-9.487807922220000023e+00,-1.142829656600000132e-02,1.624300330880000184e-02,-3.866736963390000198e-02,1.000000000000000000e+00
1.019999228000000091e+00,-2.371305060950000154e+00,1.707911541200000244e-02,-9.409605907650000489e+00,-2.071104245260000070e-03,5.232806317510000499e-03,-2.240904234349999982e-02,1.000000000000000000e+00
1.025000705000000067e+00,-2.440288434679999785e+00,6.380276534949999578e-02,-9.420750986519999870e+00,-9.624987840650000778e-03,8.377946913239999946e-03,-3.222211450339999839e-02,1.000000000000000000e+00
1.030024260000000025e+00,-2.257904891749999976e+00,6.408499809069999331e-02,-9.435459895350000181e+00,-3.638526424769999990e-02,6.561930291350001089e-03,-2.401923388240000123e-02,1.000000000000000000e+00
1.034850094999999914e+00,-2.316701948630000008e+00,1.936325114370000128e-02,-9.557571194279999460e+00,-1.434149965640000093e-02,8.763140067460001336e-04,-3.517801687120000048e-02,1.000000000000000000e+00
1.039838575000000098e+00,-2.261974187009999859e+00,7.246147761439999252e-04,-9.477566514189998514e+00,-1.574296504260000104e-02,-7.158544845879999917e-03,-3.157813474540000637e-02,1.000000000000000000e+00
1.044847215999999968e+00,-2.304311107479999787e+00,4.571775854730000810e-02,-9.524019637809999494e+00,-3.518081456419999697e-02,-5.185049958529999899e-03,-3.414887189870000062e-02,1.000000000000000000e+00
1.049839049000000024e+00,-2.515902624719999814e+00,1.052038206079999871e-01,-9.464016712270000298e+00,-2.662849426270000319e-02,-1.747569441799999915e-02,-2.587004005909999960e-02,1.000000000000000000e+00
1.054827775999999995e+00,-2.333504030349999869e+00,3.244762523050000180e-02,-9.416001746160000963e+00,-3.830348327759999782e-02,4.685935564340000525e-03,-2.327818423509999540e-02,1.000000000000000000e+00
1.059977901999999972e+00,-2.477707334099999770e+00,-1.592509338850000081e-02,-9.452776356330000240e+00,-3.511398285630000504e-02,-5.375338252629999723e-03,-4.886984452609999946e-02,1.000000000000000000e+00
1.064975527999999949e+00,-2.420023937549999893e+00,4.320676210710000520e-02,-9.429037168819998982e+00,-2.929909341040000392e-02,-8.391907438640001590e-03,-2.588394843040000073e-02,1.000000000000000000e+00
1.069845646999999955e+00,-2.418271540920000184e+00,1.338509370279999944e-01,-9.425566277839999785e+00,-4.080808907749999825e-02,1.617692783470000076e-02,-3.415366634730000045e-02,1.000000000000000000e+00
1.074973106000000067e+00,-2.300105472479999857e+00,-9.864723628850000439e-03,-9.481069553879999390e+00,-2.810250222680000035e-02,6.918521597980000111e-03,-3.194682300090000149e-02,1.000000000000000000e+00
1.079983987000000090e+00,-2.281402963970000197e+00,8.024737540040000061e-02,-9.495017415210000422e+00,-4.301973059769999275e-02,4.008081275969999600e-03,-1.537614036349999914e-02,1.000000000000000000e+00
1.084849597999999915e+00,-2.337776008579999676e+00,2.146049285100000079e-02,-9.457074345789999725e+00,-5.272303149100000114e-02,-1.125414669510000146e-02,-2.112211287020000078e-02,1.000000000000000000e+00
1.089893467000000005e+00,-2.476701664190000152e+00,9.433190068989998978e-04,-9.404448086489999525e+00,-4.042230173950000366e-02,-6.976080127060000496e-03,-1.835663616659999678e-02,1.000000000000000000e+00
1.094986400000000026e+00,-2.418484306889999935e+00,-4.975325314959999981e-03,-9.516873273189998983e+00,-3.598832711580000204e-02,-2.385154552760000018e-02,-1.863437145950000082e-02,1.000000000000000000e+00
1.099844951999999987e+00,-2.320512446830000020e+00,1.617156526319999954e-01,-9.593781156300000390e+00,-2.479060739280000009e-02,-2.470534667369999812e-02,-1.757835038009999615e-02,1.000000000000000000e+00
1.104997059000000004e+00,-2.243701155959999749e+00,1.629886317089999925e-01,-9.574211363430000787e+00,-3.127293661239999994e-02,-1.986528187990000208e-02,-4.344001039860000135e-02,1.000000000000000000e+00
1.109987974000000044e+00,-2.365952447879999809e+00,6.534502178890000401e-02,-9.604446342699999306e+00,-1.752380095420000283e-02,-4.652726650240000122e-02,-2.916420251129999905e-02,1.000000000000000000e+00
1.115013559999999959e+00,-2.487485508529999834e+00,-3.976524791769999595e-02,-9.560113279979999490e+00,-2.869192324579999953e-02,-6.107429414990000333e-02,-5.571231245989999477e-03,1.000000000000000000e+00
1.120017500000000110e+00,-2.563878427859999753e+00,-6.894344357310001632e-04,-9.504754965369999198e+00,-1.395507715640000035e-02,-3.595395386219999573e-02,-1.890004612510000001e-02,1.000000000000000000e+00
1.124965427000000018e+00,-2.566348617370000085e+00,2.664229401609999881e-01,-9.548410567219999479e+00,-2.638959884640000239e-02,-2.607333473859999723e-02,-1.053484156730000003e-02,1.000000000000000000e+00
1.130046289999999898e+00,-2.488797467910000005e+00,2.446880416820000070e-01,-9.547389407480000756e+00,-1.806237362329999804e-02,-2.181738987569999816e-02,5.693816579879999902e-03,1.000000000000000000e+00
1.134848445999999900e+00,-2.439270489809999720e+00,1.690863823290000012e-01,-9.504994619349998786e+00,-8.457053452730000156e-03,-2.208411134780000062e-02,-2.585167624059999877e-02,1.000000000000000000e+00
1.139850892999999976e+00,-2.481021573209999609e+00,1.734745342850000094e-01,-9.527896771510000917e+00,-9.120197035370000357e-03,-1.336319372060000045e-02,-1.170836854730000071e-02,1.000000000000000000e+00
1.144827553000000053e+00,-2.381814764529999628e+00,1.649255545890000174e-01,-9.532876898010000488e+00,-2.867053495719999821e-03,-2.671187743540000270e-02,-2.259850129490000026e-02,1.000000000000000000e+00
1.149844499999999936e+00,-2.395341770099999934e+00,2.599658912420000356e-01,-9.544446924289999856e+00,-3.070233389739999725e-03,-4.091359674930000051e-02,-2.399088069800000070e-02,1.000000000000000000e+00
1.154832483999999937e+00,-2.505640466160000024e+00,1.468053303430000012e-01,-9.457842992070000676e+00,3.727213945240000041e-03,-4.752950370310000255e-02,-8.998775854709999480e-03,1.000000000000000000e+00
1.159832626000000033e+00,-2.684424377170000042e+00,2.639526593239999719e-01,-9.322603916020000270e+00,4.762605298310000450e-03,-3.242967650290000392e-02,1.228225417439999904e-02,1.000000000000000000e+00
1.164893407999999964e+00,-2.535246207619999748e+00,3.550827271980000477e-01,-9.483978134800000959e+00,1.145007833839999968e-02,-1.910072751340000040e-05,-6.596499122680000299e-03,1.000000000000000000e+00
1.169763686000000025e+00,-2.493546708270000245e+00,1.887233769469999767e-01,-9.444804062280001133e+00,-1.281304657460000107e-02,-6.042480003089999857e-03,-2.242588810620000164e-02,1.000000000000000000e+00
1.174957715999999985e+00,-2.402894231309999906e+00,1.737461360349999984e-01,-9.484601235139999531e+00,1.848858594890000207e-02,-2.892153104770000139e-03,-3.340873494740000116e-02,1.000000000000000000e+00
1.179982633000000058e+00,-2.498678518199999754e+00,9.350486158150000948e-02,-9.567332125320000102e+00,5.569644737990000170e-03,-8.877615444360000344e-03,-1.984118856490000096e-02,1.000000000000000000e+00
1.184843372000000006e+00,-2.481452658109999820e+00,1.905999662070000100e-01,-9.470926930050000081e+00,2.896066382529999955e-02,-2.233332581819999843e-02,-2.532813930880000331e-03,1.000000000000000000e+00
1.189985202999999991e+00,-2.546258600020000262e+00,1.669165640090000124e-01,-9.503387768670000568e+00,2.182631567120000421e-02,-2.555863000450000339e-02,-7.325679995120000162e-03,1.000000000000000000e+00
1.194983549000000034e+00,-2.530709148709999745e+00,9.951983842150001480e-02,-9.449716384239998490e+00,2.693907171490000224e-02,-2.473761886359999995e-02,-1.137520931660000040e-02,1.000000000000000000e+00
1.199829365999999897e+00,-2.440569443579999831e+00,1.846257871680000162e-01,-9.475547575589999383e+00,2.158877626059999694e-02,-1.771694421770000222e-02,-1.679564453660000248e-02,1.000000000000000000e+00
1.204835886999999994e+00,-2.481798402809999970e+00,2.001112515969999950e-01,-9.483283138280000912e+00,3.329358249900000316e-02,-1.272737234829999890e-02,-1.389064919199999894e-02,1.000000000000000000e+00
1.210009984999999899e+00,-2.416062924959999858e+00,1.275077876790000064e-01,-9.477565345149999487e+00,3.239661455149999564e-02,-1.212301570920000168e-02,-3.105633892120000100e-02,1.000000000000000000e+00
1.215007375999999972e+00,-2.506283732500000028e+00,1.643268215110000041e-01,-9.491603222849999355e+00,2.664863877000000006e-02,-9.585030376910001065e-03,-1.170282717789999927e-02,1.000000000000000000e+00
1.219989568999999996e+00,-2.423485476180000209e+00,1.348764441510000023e-01,-9.432392908989999825e+00,3.267617896200000066e-02,-3.428889065980000178e-02,-2.391232643280000094e-03,1.000000000000000000e+00
1.224993401000000093e+00,-2.373188682740000388e+00,2.747277541040000007e-02,-9.480020921610000428e+00,3.277214244010000221e-02,-2.146205119790000476e-02,-2.760356478390000451e-02,1.000000000000000000e+00
1.230030117999999950e+00,-2.428725861049999768e+00,1.052624486109999917e-02,-9.497743625300000048e+00,2.741724625229999962e-02,-1.978068985040000102e-02,-4.535502754149999677e-03,1.000000000000000000e+00
1.234830290000000108e+00,-2.305125492599999770e+00,-1.181985094009999904e-01,-9.499974745359999417e+00,3.322859108449999904e-02,-1.920330338179999929e-02,-1.016632281239999991e-02,1.000000000000000000e+00
1.239848359000000011e+00,-2.398954992159999744e+00,4.737506533430000527e-02,-9.504869531660000703e+00,3.762251511219999456e-02,-1.903866231440000389e-02,-7.475201971830000049e-03,1.000000000000000000e+00
1.244966551999999949e+00,-2.547704707169999860e+00,4.953449012419999797e-02,-9.464071072799999484e+00,1.368585135790000018e-02,-2.441628836099999852e-02,-1.670993492009999887e-02,1.000000000000000000e+00
1.249904383000000063e+00,-2.664073370800000173e+00,-1.084417796160000100e-02,-9.454808738939998847e+00,2.437558583920000285e-02,-1.831826567650000209e-02,4.228902980690000223e-03,1.000000000000000000e+00
1.254851582999999993e+00,-2.552808167790000304e+00,1.590554569790000039e-01,-9.445192184810000668e+00,2.193234302100000033e-02,-3.269623965019999995e-02,8.284649811689999768e-03,1.000000000000000000e+00
1.259860203999999984e+00,-2.417412001480000239e+00,2.023913253580000016e-01,-9.486280566530000513e+00,2.056297846140000066e-02,-6.276022177189999459e-04,-1.125168148429999890e-02,1.000000000000000000e+00
1.264829819000000022e+00,-2.516112175820000019e+00,1.606156007020000109e-01,-9.524979422750000424e+00,2.571814693509999819e-02,-1.941981492560000125e-03,-7.705631665890000370e-03,1.000000000000000000e+00
1.269890015000000094e+00,-2.564168935240000113e+00,1.535472514840000025e-01,-9.529981761089999281e+00,3.154804930090000098e-02,-2.841407200320000392e-03,4.416111856699999477e-03,1.000000000000000000e+00
1.274842416000000034e+00,-2.511838151760000137e+00,1.268997661830000012e-01,-9.438591179110000340e+00,2.356085367500000000e-02,-1.490613818170000160e-02,1.356507884339999952e-03,1.000000000000000000e+00
1.279841604000000022e+00,-2.533756553579999959e+00,1.170721174530000019e-01,-9.473213579680001217e+00,2.681072056290000061e-02,-3.183579305189999757e-03,1.117393467579999924e-02,1.000000000000000000e+00
1.284825260000000080e+00,-2.424961540079999978e+00,8.713797516439998614e-02,-9.468940140149999962e+00,3.674779832359999915e-02,-1.924689859150000015e-02,-1.169245108030000056e-03,1.000000000000000000e+00
1.289990661999999899e+00,-2.517873048009999781e+00,1.144469565819999923e-01,-9.496241988570000458e+00,3.903277684000000004e-03,-6.176025606689999371e-03,7.205761037770001300e-03,1.000000000000000000e+00
1.295002221000000064e+00,-2.509127723759999817e+00,5.423096824419999795e-02,-9.443398871650000359e+00,3.950153291229999836e-02,-1.240119058639999917e-02,1.253027003260000216e-02,1.000000000000000000e+00
1.299801446000000027e+00,-2.442965544929999844e+00,8.744751603760000935e-02,-9.442071422439999751e+00,3.004654683170000090e-02,-9.100338444109999994e-03,-1.572818146090000039e-03,1.000000000000000000e+00
1.304792154000000037e+00,-2.484959789449999956e+00,9.203753810839999938e-02,-9.467895015010000748e+00,3.094269894059999831e-02,6.749625317750000339e-03,-2.191128209229999731e-03,1.000000000000000000e+00
1.309832475000000107e+00,-2.513276660129999840e+00,2.164312169219999998e-02,-9.490228427369999054e+00,3.361437469720000154e-02,3.834831062700000057e-03,1.467846985910000075e-02,1.000000000000000000e+00
1.314985859000000090e+00,-2.431751054090000252e+00,6.339366395880000060e-02,-9.467320429990000008e+00,4.367743432519999303e-02,-1.147105172279999814e-02,1.333981519559999766e-03,1.000000000000000000e+00
1.319979336999999919e+00,-2.445743339079999856e+00,4.594450280819999816e-02,-9.418523958119999762e+00,4.734462127090000721e-02,-1.790682226419999801e-02,-6.819111295040000773e-04,1.000000000000000000e+00
1.324988810000000017e+00,-2.438206513839999978e+00,5.313206709160000346e-02,-9.403701067520000123e+00,3.483498096469999500e-02,-3.018547547979999815e-03,4.522969014939999706e-03,1.000000000000000000e+00
1.330016070000000106e+00,-2.339665183330000175e+00,2.460675270419999949e-02,-9.493739065839999824e+00,4.268165305260000070e-02,-1.164952199910000014e-02,1.463732775300000122e-02,1.000000000000000000e+00
1.334850448999999939e+00,-2.266685871830000032e+00,-1.191272165019999999e-03,-9.581142623999999941e+00,4.054997488860000165e-02,-1.733277738089999964e-02,-3.644444979729999975e-03,1.000000000000000000e+00
1.339988264999999901e+00,-2.320779573329999845e+00,4.199285627270000348e-02,-9.546357726349999240e+00,4.607072100040000145e-02,-2.516707032920000031e-02,-3.093071514739999511e-03,1.000000000000000000e+00
1.344803135999999899e+00,-2.498009532889999829e+00,8.236343597259999927e-02,-9.472376544339999427e+00,4.341940209269999629e-02,-1.197479106489999882e-02,1.993627659980000064e-02,1.000000000000000000e+00
1.349819850000000043e+00,-2.502905488240000142e+00,3.579312941630000133e-02,-9.389723980090000310e+00,2.166224084790000295e-02,-3.555694967510000110e-02,3.713565180079999792e-03,1.000000000000000000e+00
1.354834824000000104e+00,-2.477962770169999995e+00,1.956245666030000108e-02,-9.447828963060000973e+00,2.695913240309999806e-02,-2.914221212270000014e-02,1.237962488089999931e-02,1.000000000000000000e+00
1.359998051999999902e+00,-2.391352554340000047e+00,4.526115561990000369e-02,-9.463836095010000449e+00,3.768060356379999976e-02,-3.986201435330000153e-02,2.405109070240000341e-02,1.000000000000000000e+00
1.364843484999999967e+00,-2.406553192210000081e+00,-7.395557264669999631e-02,-9.517448442730000124e+00,2.226289547979999964e-02,-3.397222608330000004e-02,1.557367574419999887e-02,1.000000000000000000e+00
1.369983710000000077e+00,-2.381375788590000209e+00,-1.289368432349999871e-01,-9.524667288060001624e+00,1.188181247560000063e-02,-3.156482055780000101e-02,2.308148704470000187e-02,1.000000000000000000e+00
1.374929118999999922e+00,-2.369480183609999902e+00,-5.776688728540000511e-02,-9.555633504210000240e+00,-2.466040896250000069e-03,-8.412354625759999732e-03,1.469146739690000043e-02,1.000000000000000000e+00
1.379956527999999905e+00,-2.410495646220000232e+00,1.273862162590000124e-01,-9.476261276810001632e+00,3.062963951380000206e-04,-3.833440691230000780e-02,1.360403839500000031e-02,1.000000000000000000e+00
1.384838983000000079e+00,-2.479944591629999806e+00,2.925218790680000347e-01,-9.526830603580000556e+00,3.755617886780000282e-03,-3.723607212309999748e-02,1.444004569200000102e-02,1.000000000000000000e+00
1.389840463999999942e+00,-2.442113458150000138e+00,2.884374227659999845e-01,-9.442560667260000429e+00,2.537679113450000065e-02,-4.870195686819999564e-02,4.001573659479999712e-03,1.000000000000000000e+00
1.394980227000000017e+00,-2.529707278190000075e+00,3.503821482919999841e-01,-9.579480828270000359e+00,1.444045081729999902e-02,-6.866730749610000517e-02,2.574497275049999687e-02,1.000000000000000000e+00
1.399841622000000063e+00,-2.530159113609999899e+00,3.440142937600000339e-01,-9.522325108849999609e+00,4.693043604489999937e-02,-6.673932820559999590e-02,8.689727634190000383e-03,1.000000000000000000e+00
1.404836001999999917e+00,-2.638077052020000313e+00,3.296030892330000239e-01,-9.433989238269999689e+00,4.970411211249999711e-02,-5.686277151110000205e-02,5.786024965350000313e-03,1.000000000000000000e+00
1.409838662999999936e+00,-2.586112471499999899e+00,2.076189055469999933e-01,-9.498340422150000961e+00,6.433139741419999225e-02,-7.055908441539998632e-02,-9.456010535360000191e-03,1.000000000000000000e+00
1.414959550999999927e+00,-2.559851072040000286e+00,1.291936401410000157e-01,-9.459311311060000449e+00,7.842832058669998996e-02,-4.748803377150000171e-02,-1.474160118960000021e-03,1.000000000000000000e+00
1.419998644999999948e+00,-2.487920100559999792e+00,6.488795763719999721e-02,-9.440495551430000631e+00,8.377154171469999855e-02,-4.929116368290000633e-02,3.491785610090000075e-03,1.000000000000000000e+00
1.424979900000000077e+00,-2.364886572209999649e+00,-5.341825905519999307e-02,-9.459465624839999975e+00,5.656822025780000596e-02,-4.580307006840000222e-02,2.471061889080000034e-04,1.000000000000000000e+00
1.429833888999999969e+00,-2.282408780009999916e+00,-1.900917609570000055e-01,-9.558081481889999509e+00,3.499047458169999431e-02,-7.609459757799999502e-02,-1.396399829540000137e-02,1.000000000000000000e+00
1.434721294000000036e+00,-2.195888872819999893e+00,-9.246486927549998902e-02,-9.635087564680000938e+00,2.166628278790000417e-02,-7.366948574780000925e-02,-1.058620959519999960e-02,1.000000000000000000e+00
1.439959825000000082e+00,-2.267111988290000379e+00,-2.456749155609999902e-01,-9.357879227539999789e+00,1.608220301570000010e-02,-1.063371524210000030e-01,-1.018344075419999909e-03,1.000000000000000000e+00
1.444809074999999998e+00,-2.368520837059999717e+00,-3.975544164959999849e-01,-9.378521033549999331e+00,1.169760944319999958e-03,-1.057443097230000018e-01,-1.849235408009999859e-02,1.000000000000000000e+00
1.449725517000000075e+00,-2.303332910099999964e+00,-3.417486138509999716e-01,-9.354027812810000952e+00,-2.193205431100000297e-02,-9.872404485940000640e-02,-2.478083036840000170e-02,1.000000000000000000e+00
1.454788659000000095e+00,-2.257551402129999829e+00,-3.390003745889999531e-01,-9.399291434380000254e+00,-2.408727630970000297e-02,-9.275564551349999021e-02,6.544329226020000230e-03,1.000000000000000000e+00
1.459961008999999921e+00,-2.231387763959999937e+00,-5.753091671180000644e-01,-9.370151849139999101e+00,-3.986537829040000258e-02,-1.409014016390000013e-01,3.786150598900000185e-03,1.000000000000000000e+00
1.464853882999999968e+00,-2.170158511490000386e+00,-5.410427038459999505e-01,-9.493722114700000603e+00,-3.335893526670000164e-02,-1.423695981499999985e-01,1.933054812249999921e-02,1.000000000000000000e+00
1.469825251999999915e+00,-2.268697065530000057e+00,-2.325177296829999962e-01,-9.605070027560000057e+00,-2.444959618149999958e-02,-1.632053107020000060e-01,5.337577313180000282e-02,1.000000000000000000e+00
1.474996272999999913e+00,-2.345458672040000359e+00,-1.764187162449999957e-01,-9.483490643550000598e+00,-1.036609802400000058e-02,-1.835142672060000035e-01,7.965126633640000342e-02,1.000000000000000000e+00
1.479994789999999893e+00,-2.527202601890000011e+00,-2.937013346440000006e-01,-9.643018942199999444e+00,2.746268361809999642e-02,-2.142958790060000007e-01,1.034978628159999997e-01,1.000000000000000000e+00
1.484998774999999993e+00,-2.313258384050000060e+00,-1.567197029409999817e-02,-9.598220600050000328e+00,1.021762192249999965e-02,-2.453281283379999955e-01,1.177141591909999924e-01,1.000000000000000000e+00
1.489985952999999919e+00,-2.570691030479999917e+00,1.111404167159999873e-01,-9.489768408639999819e+00,2.199548296630000031e-03,-2.458972632879999898e-01,1.240907683970000064e-01,1.000000000000000000e+00
1.494854240000000001e+00,-2.672650060490000090e+00,-2.964259373020000088e-01,-9.483775890229999561e+00,3.548935521389999775e-03,-2.217464447019999729e-01,1.290327310559999940e-01,1.000000000000000000e+00
1.499820535000000010e+00,-2.547011756470000332e+00,-1.160889356520000172e-02,-9.512997308539999253e+00,3.235836746169999667e-03,-2.055811583999999914e-01,1.276979744429999897e-01,1.000000000000000000e+00
1.504982524000000099e+00,-2.286652701189999970e+00,2.507108456359999904e-01,-9.614968905760001405e+00,1.786503754559999949e-02,-1.794062703850000107e-01,1.163437217470000007e-01,1.000000000000000000e+00
1.509847130999999898e+00,-2.218234706270000078e+00,8.164376166230000176e-02,-9.594994039219999493e+00,2.981014736000000068e-02,-1.840116530660000083e-01,1.175446659330000032e-01,1.000000000000000000e+00
1.514989120000000078e+00,-2.202279450640000302e+00,-1.023704786119999932e-01,-9.674759649849999477e+00,3.727746009830000540e-02,-2.084434777499999947e-01,1.309981644150000069e-01,1.000000000000000000e+00
1.519838333999999902e+00,-2.119181919099999867e+00,9.961625713379999858e-02,-9.683408235730000868e+00,4.464372992520000000e-02,-2.400598227980000055e-01,1.235817894339999862e-01,1.000000000000000000e+00
1.524821420000000094e+00,-2.084082694799999746e+00,-4.251380775360000253e-01,-9.694708212909999290e+00,6.110264360899999442e-02,-2.893016040329999816e-01,1.117066964509999955e-01,1.000000000000000000e+00
1.529830001999999967e+00,-2.157081587780000032e+00,-2.367911692190000084e-01,-9.805551098849999647e+00,5.328118428590000732e-02,-3.452412188050000275e-01,1.117744147780000002e-01,1.000000000000000000e+00
1.534829860999999962e+00,-2.182135365009999717e+00,-2.979253820789999896e-01,-9.592266075560001326e+00,5.499355122449999661e-02,-3.862786889079999897e-01,1.160132437940000066e-01,1.000000000000000000e+00
1.540079957999999971e+00,-2.294075106279999776e+00,-3.589567556200000120e-01,-1.007645595189999987e+01,5.532761290669999804e-02,-3.744591474530000186e-01,1.407473683359999894e-01,1.000000000000000000e+00
1.544689600000000107e+00,-2.321694496220000126e+00,-3.019361886230000347e-01,-1.009858010549999996e+01,4.409971833230000304e-02,-4.079710245130000468e-01,1.630983054640000041e-01,1.000000000000000000e+00
1.549668727000000024e+00,-2.386476472730000076e+00,1.807559051990000054e-01,-1.016604562200000039e+01,4.747249558569999195e-02,-4.681088626380000006e-01,1.695334315300000005e-01,1.000000000000000000e+00
1.554691921999999948e+00,-2.291861814140000231e+00,-1.240285124629999895e-02,-1.018163715879999920e+01,7.003737241030000282e-02,-5.172703862190000113e-01,1.744898706670000021e-01,1.000000000000000000e+00
1.559858076999999899e+00,-2.408943448340000071e+00,2.842414506470000157e-01,-1.031173887200000117e+01,5.704138427969999287e-02,-5.917316079140000351e-01,1.826621294020000230e-01,1.000000000000000000e+00
1.564695589000000053e+00,-2.088742357170000119e+00,8.760228989909999570e-03,-1.028074869049999940e+01,9.650088846680000831e-02,-6.404622793199999942e-01,1.670148670670000002e-01,1.000000000000000000e+00
1.569718520999999978e+00,-2.365087647740000243e+00,-1.886349132119999883e-01,-1.036588547270000049e+01,1.011967658999999992e-01,-7.144826054570000418e-01,1.793506741519999836e-01,1.000000000000000000e+00
1.574746320999999893e+00,-2.210877767629999990e+00,1.865047693149999783e-02,-1.040067972269999963e+01,1.364260762929999926e-01,-7.468372583390000541e-01,1.947505921129999984e-01,1.000000000000000000e+00
1.579806427999999929e+00,-2.204195659520000294e+00,2.254489968739999961e-01,-1.056509520889999898e+01,1.255655437709999878e-01,-8.001422882080000409e-01,1.982668489219999997e-01,1.000000000000000000e+00
1.584945395999999951e+00,-1.858726709970000002e+00,1.385082704480000149e-01,-1.084656003450000128e+01,1.637116372590000091e-01,-8.694347143170000347e-01,2.024279832839999960e-01,1.000000000000000000e+00
1.589987969999999917e+00,-2.236369351760000068e+00,9.485241286609999434e-02,-1.106767882009999937e+01,1.712944060559999926e-01,-9.552240371700000399e-01,2.461141198869999935e-01,0.000000000000000000e+00
1.594941815000000096e+00,-2.241841645700000107e+00,3.711912371630000096e-01,-1.077331593460000114e+01,2.324361503119999894e-01,-1.064132213589999987e+00,2.636716961860000041e-01,0.000000000000000000e+00
1.599788455000000109e+00,-2.345549272930000040e+00,3.180839894179999794e-01,-1.103636481339999875e+01,2.642921209340000077e-01,-1.138849020000000101e+00,2.893886566159999951e-01,0.000000000000000000e+00
1.604798445999999990e+00,-1.992062875009999789e+00,2.409166333849999952e-01,-1.145870759770000014e+01,3.174511790280000190e-01,-1.232949733729999942e+00,2.709045410159999778e-01,0.000000000000000000e+00
1.609961739999999919e+00,-2.149680371609999696e+00,1.041580104829999964e-01,-1.150991522240000009e+01,3.130308687689999925e-01,-1.329915881160000035e+00,2.661928534510000222e-01,0.000000000000000000e+00
1.614933667999999933e+00,-1.900804394979999978e+00,-9.074682358609999916e-03,-1.196611702160000057e+01,3.169076740740000009e-01,-1.430499911310000094e+00,2.837221920490000104e-01,0.000000000000000000e+00
1.619947999000000083e+00,-1.971263101959999764e+00,-6.401080034330000612e-02,-1.207216332089999966e+01,2.511928975580000056e-01,-1.589543104169999888e+00,2.402978837489999908e-01,0.000000000000000000e+00
1.624823268999999959e+00,-2.371267797679999845e+00,6.214747059649999850e-01,-1.203614391300000008e+01,2.008312195540000178e-01,-1.733571648600000126e+00,2.297772169110000040e-01,0.000000000000000000e+00
1.629846477999999932e+00,-2.122729236320000101e+00,9.267477656599999447e-01,-1.227794425220000107e+01,1.659052371979999885e-01,-1.912543773650000167e+00,1.968741118910000143e-01,0.000000000000000000e+00
1.634806940000000042e+00,-1.860331076430000063e+00,2.838117905259999740e-01,-1.196377893400000048e+01,1.842216402290000055e-01,-2.056537151340000147e+00,1.687509864570000129e-01,0.000000000000000000e+00
1.639975622999999993e+00,-1.864074208479999939e+00,3.636254278509999660e-02,-1.206504735140000051e+01,2.496772557499999934e-01,-2.195438385009999660e+00,1.943609118459999896e-01,0.000000000000000000e+00
1.644852049000000038e+00,-1.744379615299999964e+00,-1.374314623960000148e-01,-1.244414603729999946e+01,2.552039921279999901e-01,-2.388077497479999867e+00,2.221428155900000145e-01,0.000000000000000000e+00
1.649978734999999919e+00,-1.523327319020000070e+00,1.035364627850000052e-01,-1.229118367299999903e+01,2.167992144819999856e-01,-2.576133728029999848e+00,2.322035282849999882e-01,0.000000000000000000e+00
1.654780120000000077e+00,-1.573728011220000056e+00,-3.841418676180000102e-01,-1.234576749609999879e+01,1.574133485560000045e-01,-2.789502859120000178e+00,2.054611891510000066e-01,0.000000000000000000e+00
1.659928923999999917e+00,-1.495620104659999949e+00,-1.610218251489999863e+00,-1.265559449280000059e+01,3.386516869069999824e-02,-2.977330923079999803e+00,2.319123893980000184e-01,0.000000000000000000e+00
1.664908231999999932e+00,-8.699189401100000385e-01,-2.217294941200000036e+00,-1.289708152819999931e+01,-8.994051814079999374e-02,-3.165269136430000074e+00,2.198510468010000107e-01,0.000000000000000000e+00
1.669960678000000032e+00,-8.207300348530000011e-01,-7.560173241850001169e-01,-1.267161857579999840e+01,-2.425307035450000037e-01,-3.350182056429999999e+00,2.159010022879999935e-01,0.000000000000000000e+00
1.674952234999999900e+00,-3.150658837060000272e-01,-4.888057726630000155e-01,-1.335943132869999950e+01,-4.411816895009999517e-01,-3.645380020140000177e+00,1.965480148790000048e-01,0.000000000000000000e+00
1.679806643000000044e+00,-1.040605469379999981e+00,-1.605454690349999991e+00,-1.248272565099999909e+01,-6.370515227319999418e-01,-3.876085281369999525e+00,7.735903561119999994e-02,0.000000000000000000e+00
1.684943244999999923e+00,-5.624883735869999901e-01,-3.105399380209999727e+00,-1.311994686519999931e+01,-7.801690697669999564e-01,-4.135788440699999846e+00,1.289973855020000171e-01,0.000000000000000000e+00
1.689982990000000074e+00,-1.077274208019999985e-01,-2.889232079490000160e+00,-1.314625970260000010e+01,-9.461640715600000417e-01,-4.381813049319999820e+00,1.461741924290000105e-01,0.000000000000000000e+00
1.694937345999999900e+00,-8.660599996590000460e-01,-2.823685840610000053e+00,-1.291675302790000046e+01,-1.141714334490000038e+00,-4.616540431979999859e+00,1.540455073120000073e-01,0.000000000000000000e+00
1.699783929000000082e+00,-7.050025186750000783e-01,-2.524550333820000159e+00,-1.277844579640000156e+01,-1.325926780699999918e+00,-4.871567726140000332e+00,1.865601390599999909e-01,0.000000000000000000e+00
1.704950018999999983e+00,-5.387400163939999320e-01,-2.813943322009999637e+00,-1.274683719069999910e+01,-1.513107895850000162e+00,-5.163152694699999934e+00,2.443733215329999819e-01,0.000000000000000000e+00
1.709982434000000051e+00,-1.422460322040000058e+00,-2.798213837960000117e+00,-1.255380351280000006e+01,-1.732571125029999992e+00,-5.329664707180000960e+00,2.914611697199999685e-01,0.000000000000000000e+00
1.714927727000000068e+00,-2.270449462150000208e+00,-2.872166962920000177e+00,-1.284458795539999976e+01,-1.897823333740000118e+00,-5.551287174219999621e+00,4.608783125879999942e-01,0.000000000000000000e+00
1.719945456000000039e+00,-1.762915096690000238e+00,-3.146454444179999754e+00,-1.224471535180000004e+01,-2.072463035579999779e+00,-5.780450820920000510e+00,5.548928380009999772e-01,0.000000000000000000e+00
1.724966675999999977e+00,-4.051746749350000343e+00,-4.128545619130000510e+00,-1.296015728529999933e+01,-2.312641143800000076e+00,-5.896770477289999590e+00,7.205821871759999775e-01,0.000000000000000000e+00
1.729978698000000037e+00,-4.064212263169999950e+00,-5.840046462660000159e+00,-1.276099664900000086e+01,-2.708904743190000186e+00,-6.197696208950000063e+00,8.103586435320000447e-01,0.000000000000000000e+00
1.734794347000000014e+00,-4.306185036280000489e+00,-6.935601811980000697e+00,-1.414139185320000003e+01,-3.221809864040000360e+00,-6.342147827150000694e+00,8.793414235119999534e-01,0.000000000000000000e+00
1.739940145999999910e+00,-6.175562027339999815e+00,-7.815379152150000230e+00,-1.456195184569999945e+01,-3.768238067630000021e+00,-6.502728462220000338e+00,1.013522982600000066e+00,0.000000000000000000e+00
1.744841786999999922e+00,-8.548992702150000511e+00,-8.642409236989998078e+00,-1.660915091700000090e+01,-4.288151264190000589e+00,-6.665734767910000080e+00,1.099674701689999923e+00,0.000000000000000000e+00
1.749969112999999910e+00,-1.322938222249999995e+01,-7.142081246900001013e+00,-1.887875004589999861e+01,-4.573569297790000654e+00,-6.698410511019999625e+00,1.241251230239999837e+00,0.000000000000000000e+00
1.754778039999999928e+00,-1.631957760380000266e+01,-4.153727698930000045e+00,-1.825559827360000043e+01,-4.588418960569999427e+00,-6.620590209959999584e+00,1.298061728480000010e+00,0.000000000000000000e+00
1.759923142000000107e+00,-1.402616856020000036e+01,-2.092204041940000092e+00,-1.676459165410000196e+01,-4.456879615780000137e+00,-6.381730079650000498e+00,1.300105690959999949e+00,0.000000000000000000e+00
1.764794497000000018e+00,-1.394182672770000053e+01,3.561011104609999589e-01,-1.777337823599999922e+01,-4.291438102719999925e+00,-6.115462779999999654e+00,1.121807694439999947e+00,0.000000000000000000e+00
1.769974761000000063e+00,-1.384928989829999857e+01,-9.149992410039999857e-01,-1.649101436690000000e+01,-4.228953361509999453e+00,-5.746108531950000931e+00,1.024612665179999826e+00,0.000000000000000000e+00
1.774922668000000092e+00,-1.409465815910000153e+01,-1.687635545429999828e+00,-1.755599337620000000e+01,-4.182870864869999927e+00,-5.375361442570000037e+00,9.889948368070000662e-01,0.000000000000000000e+00
1.779782388000000104e+00,-1.357832191690000023e+01,-2.911314147440000166e+00,-1.748014464670000123e+01,-4.214395523069999427e+00,-4.711097717290000375e+00,1.204453945160000039e+00,0.000000000000000000e+00
1.784940903000000079e+00,-2.153707844330000043e+01,-7.290589554369999448e+00,-1.692005694110000036e+01,-4.315382957459999780e+00,-4.291929721829999878e+00,1.517597198490000077e+00,0.000000000000000000e+00
1.789842844999999905e+00,-2.055725141390000132e+01,-5.175363241030000339e+00,-1.880472502479999974e+01,-4.328929901119999535e+00,-3.834497213359999712e+00,1.301252007480000028e+00,0.000000000000000000e+00
1.794870375999999990e+00,-1.863677084309999898e+01,-5.338907789580000340e+00,-1.675663163500000152e+01,-4.434697151179999963e+00,-2.973480463029999576e+00,1.312892913820000063e+00,0.000000000000000000e+00
1.799746386000000031e+00,-7.337209851249999915e+00,-4.909835989330000316e+00,-1.786539834810000116e+01,-4.511539936070000145e+00,-2.252467155459999759e+00,1.149681806560000075e+00,0.000000000000000000e+00
1.804945577000000023e+00,-5.167820497499999721e-01,-5.995432254689999851e+00,-1.846374534950000168e+01,-4.630115032199999980e+00,-1.625445604320000070e+00,1.090188026429999901e+00,0.000000000000000000e+00
1.809855556000000032e+00,2.747501887850000379e+00,-7.422005857260000283e+00,-1.588062855269999929e+01,-4.808570384980000334e+00,-8.117921352390000678e-01,1.052631139760000112e+00,0.000000000000000000e+00
1.814921363999999926e+00,1.278719375099999844e+01,-8.977803221120000288e+00,-1.639049296849999848e+01,-4.752990245819999515e+00,3.475662171839999925e-01,9.863410592079999706e-01,0.000000000000000000e+00
1.819945066000000056e+00,4.334486417139999936e+00,-8.306682075389998587e+00,-1.764206773160000097e+01,-4.603033065800000045e+00,9.802724123000000622e-01,7.608104348180000365e-01,0.000000000000000000e+00
1.824936131999999933e+00,-7.583633758539999548e+00,-3.700900636810000144e+00,-2.362035420569999999e+01,-4.400603294369999752e+00,7.605404257770000953e-01,4.158560037610000149e-01,0.000000000000000000e+00
1.829852575999999953e+00,-1.134392620329999879e+01,-8.641721839249999704e+00,-2.739383580229999993e+01,-4.096713542939999897e+00,1.698745369909999914e+00,3.351933658119999881e-01,0.000000000000000000e+00
1.834912711000000085e+00,-8.025435861040000063e-01,-8.117063758900000536e+00,-2.389063011320000030e+01,-3.534569025040000145e+00,2.608994960779999595e+00,3.899346664549999814e-02,0.000000000000000000e+00
1.839786257000000091e+00,7.895395522669999444e+00,-8.883523931970000120e+00,-1.898008860590000069e+01,-3.119803190229999856e+00,3.785673618319999711e+00,-7.660120725629999960e-02,0.000000000000000000e+00
1.844761596999999975e+00,6.738106478500000662e+00,-1.117354274859999919e+01,-1.686701508670000038e+01,-3.062772274020000296e+00,4.674494266509999996e+00,1.725105382500000117e-02,0.000000000000000000e+00
1.849691039999999953e+00,8.142908394250000015e+00,-1.424317932599999992e+01,-1.518058058759999973e+01,-3.061642408370000012e+00,5.282106876369999426e+00,7.990712672470000333e-02,0.000000000000000000e+00
1.854753768999999997e+00,1.051157989180000030e+01,-1.410607737869999845e+01,-1.428337689640000185e+01,-3.020320892330000007e+00,5.199557781220000230e+00,1.640108376740000151e-01,0.000000000000000000e+00
1.859759471999999914e+00,1.146508005529999963e+01,-1.368002872569999973e+01,-1.284493282329999886e+01,-2.875854015350000292e+00,4.848723411559999974e+00,1.414143443110000009e-01,0.000000000000000000e+00
1.864665067000000009e+00,1.169609128939999998e+01,-1.281988489130000097e+01,-1.243130642940000108e+01,-2.760878562929999891e+00,4.504223823550000283e+00,-2.682171575729999646e-02,0.000000000000000000e+00
1.869763526999999925e+00,1.069898579300000030e+01,-1.252225803550000016e+01,-1.200486147049999985e+01,-2.594126939770000195e+00,4.365992069239999829e+00,-2.135068476200000231e-01,0.000000000000000000e+00
1.874702144000000015e+00,9.079128921649999739e+00,-1.243686523260000065e+01,-1.146898232349999880e+01,-2.446143150329999738e+00,4.323929309840000457e+00,-3.993982076640000267e-01,0.000000000000000000e+00
1.879718965999999991e+00,6.774236945549999334e+00,-1.217393676520000056e+01,-1.158539687210000046e+01,-2.175761222840000286e+00,4.517411708830000094e+00,-5.638700723649999746e-01,0.000000000000000000e+00
1.884601457999999896e+00,4.871655311759999663e+00,-1.171624560420000094e+01,-1.159741347309999959e+01,-1.820695281029999890e+00,4.882488727569999298e+00,-7.290284633640000678e-01,0.000000000000000000e+00
1.889562460999999916e+00,6.560438127519999441e+00,-1.292054540589999867e+01,-1.142239125270000066e+01,-1.405819773670000217e+00,5.174788951870000098e+00,-7.621299028399999287e-01,0.000000000000000000e+00
1.894537036000000008e+00,5.076725172139999742e+00,-1.207858955460000061e+01,-1.177347497339999904e+01,-1.052080035209999931e+00,5.502048015589999785e+00,-9.247536659239999901e-01,0.000000000000000000e+00
1.899689732999999991e+00,2.013177851490000059e+00,-1.093271271579999926e+01,-1.162934590390000089e+01,-6.665782928469999868e-01,5.736326694489999767e+00,-1.408161997799999954e+00,0.000000000000000000e+00
1.904678451000000106e+00,3.710429220400000005e+00,-1.238855216029999973e+01,-1.093356845579999970e+01,-4.676491320130000129e-01,5.914494991299999782e+00,-1.888457655909999922e+00,0.000000000000000000e+00
1.909682442999999896e+00,2.312264258439999942e+00,-1.364573599539999904e+01,-1.114801667769999938e+01,-2.727653682229999599e-01,6.044895648959999868e+00,-2.252607822420000350e+00,0.000000000000000000e+00
1.914677224999999927e+00,1.866308105009999885e+00,-1.609242538319999838e+01,-1.144895426539999939e+01,-2.753628194330000056e-01,6.298470497130000290e+00,-2.248397350309999876e+00,0.000000000000000000e+00
1.919634260000000037e+00,-7.889248105960000590e-02,-1.612004287349999743e+01,-1.104371692980000041e+01,-2.181720547379999847e-02,6.328109741209999584e+00,-2.396031856540000060e+00,0.000000000000000000e+00
1.924675109999999911e+00,-3.516585979689999808e-02,-1.165975974690000072e+01,-1.086264490780000003e+01,7.636202871800000513e-02,6.329137802119999989e+00,-2.796665906909999944e+00,0.000000000000000000e+00
1.929717619000000051e+00,3.720206371909999810e-01,-1.524874051619999804e+01,-1.143460776020000047e+01,-2.736333012579999710e-02,6.249684333800000324e+00,-2.887039184570000305e+00,0.000000000000000000e+00
1.934755092999999926e+00,-1.795459229680000046e+00,-1.419647018180000053e+01,-1.079359066079999963e+01,1.850884407759999933e-03,6.347430229190000439e+00,-3.041881084439999938e+00,0.000000000000000000e+00
1.939790099999999962e+00,-1.897231212670000167e+00,-1.340646195989999967e+01,-1.102714456510000041e+01,1.376144886020000124e-01,6.544608116150000043e+00,-3.266327142720000243e+00,0.000000000000000000e+00
1.944739693999999908e+00,-3.322121684470000336e+00,-1.280149232549999994e+01,-1.158866084229999949e+01,1.488747298719999834e-01,6.515801429750000651e+00,-3.385996341709999857e+00,0.000000000000000000e+00
1.949754793000000097e+00,-3.904434373670000014e+00,-1.391215288949999973e+01,-1.221656477760000037e+01,1.589497774840000210e-01,6.601516246799999266e+00,-3.509867429730000321e+00,0.000000000000000000e+00
1.954759093999999919e+00,-5.898862808769999688e+00,-1.400675892630000163e+01,-1.342355221089999873e+01,1.130706220870000001e-01,6.605595588679999963e+00,-3.507077455519999720e+00,0.000000000000000000e+00
1.959798806000000004e+00,-5.776611809110000273e+00,-1.290899291520000070e+01,-1.387025552949999962e+01,9.170643985269999465e-02,6.664180278779999966e+00,-3.585180521010000287e+00,0.000000000000000000e+00
1.964821284999999973e+00,-6.595395459129999693e+00,-1.122893438089999840e+01,-1.467053497000000029e+01,1.164813414220000065e-01,6.636965274809999649e+00,-3.626715898510000091e+00,0.000000000000000000e+00
1.969808648999999967e+00,-7.607956883419999983e+00,-1.102371225259999932e+01,-1.550785439369999885e+01,1.868501007559999760e-01,6.790716171259999712e+00,-3.585490703580000549e+00,0.000000000000000000e+00
1.974743675999999892e+00,-9.138825557729999716e+00,-9.597765257500000757e+00,-1.586558763539999894e+01,4.457808136940000221e-01,6.939918041230000334e+00,-3.492271900179999999e+00,0.000000000000000000e+00
1.979741978999999930e+00,-9.815697229810000479e+00,-8.199398927760000788e+00,-1.625965475779999991e+01,7.701519131659999573e-01,6.972261428830000440e+00,-3.460539579390000231e+00,0.000000000000000000e+00
1.984749716000000053e+00,-1.205158347420000098e+01,-8.145701239839999275e+00,-1.626567299510000097e+01,1.143151998520000046e+00,6.956355571749999633e+00,-3.329088449479999934e+00,0.000000000000000000e+00
1.989993066000000033e+00,-1.432293149270000043e+01,-8.725769657249999867e+00,-1.600910880210000187e+01,1.565692186360000182e+00,7.034092903139998576e+00,-3.120700120930000043e+00,0.000000000000000000e+00
1.994938292999999918e+00,-1.566029536440000136e+01,-9.328853039540000225e+00,-1.553602717969999958e+01,1.932202577590000026e+00,7.051036834719999646e+00,-2.989483833309999561e+00,0.000000000000000000e+00
1.999849814999999920e+00,-1.694494822119999711e+01,-1.005532782370000078e+01,-1.519357217119999959e+01,2.228033781049999718e+00,6.985683917999999437e+00,-3.003605604170000110e+00,0.000000000000000000e+00
2.004763856999999927e+00,-1.793500204560000100e+01,-1.163871695880000168e+01,-1.476436242369999974e+01,2.350553512569999892e+00,6.896642208099999394e+00,-3.141443014140000489e+00,0.000000000000000000e+00
2.009984386999999817e+00,-1.860796911150000099e+01,-1.462586697619999931e+01,-1.439636030150000146e+01,2.434637308120000121e+00,6.720999240880000336e+00,-3.285250663759999856e+00,0.000000000000000000e+00
2.014907715000000099e+00,-1.919619570089999883e+01,-1.267510349540000014e+01,-1.335958914959999966e+01,2.477870941159999951e+00,6.340924739839999269e+00,-3.400623083109999722e+00,0.000000000000000000e+00
2.019792273000000193e+00,-2.154282546260000331e+01,-1.350428871239999928e+01,-1.507246274279999909e+01,2.489486932750000214e+00,6.024158477780000354e+00,-3.910885572430000234e+00,0.000000000000000000e+00
2.024964118000000202e+00,-2.397000584770000131e+01,-1.262968263740000019e+01,-1.371172150249999966e+01,2.600312709809999845e+00,5.653275489809999499e+00,-4.433763504030000746e+00,0.000000000000000000e+00
2.029982315999999898e+00,-2.553417707219999855e+01,-7.580252883930000074e+00,-1.361396606170000112e+01,2.800305604929999692e+00,5.175151824950000368e+00,-5.061389446259999758e+00,0.000000000000000000e+00
2.034940645999999909e+00,-2.524688222530000203e+01,-6.011359891659999732e+00,-1.282640698650000033e+01,3.167979478839999974e+00,4.527219772340000503e+00,-5.543244838709999733e+00,0.000000000000000000e+00
2.039961973000000039e+00,-2.711010186280000056e+01,-4.735321133940000315e+00,-1.191835690699999972e+01,3.669803380969999473e+00,3.885722875599999959e+00,-5.951836586000000651e+00,0.000000000000000000e+00
2.044956791000000162e+00,-3.028343379249999856e+01,-4.119485237580000181e+00,-1.246130175470000090e+01,4.293238162989999829e+00,3.249197721479999856e+00,-6.221143722529999920e+00,0.000000000000000000e+00
2.049973828999999803e+00,-3.463755839159999539e+01,-4.191356295569999446e+00,-1.142440785319999996e+01,4.753699779509999779e+00,2.605633497239999929e+00,-6.327149391169999859e+00,0.000000000000000000e+00
2.054806950000000132e+00,-3.909062617989999922e+01,-6.048005322490000779e+00,-1.184530686839999980e+01,4.990135669709999888e+00,2.305188894270000066e+00,-6.241833686830000616e+00,0.000000000000000000e+00
2.059813742999999864e+00,-4.283882837390000020e+01,-7.942968005710000945e+00,-9.078671241020000338e+00,4.969417095179999855e+00,1.923298954959999918e+00,-6.413295269009999799e+00,0.000000000000000000e+00
2.064945697000000191e+00,-4.410656750529999925e+01,-7.103670559960000297e+00,-7.414258604139998710e+00,4.475695133209999454e+00,1.726085662840000090e+00,-6.532633304600000024e+00,0.000000000000000000e+00
2.069966057999999887e+00,-4.138775512080000141e+01,-8.042211054750000088e+00,-3.900513108569999776e+00,3.709747076030000645e+00,1.667928695679999906e+00,-6.267000675199999371e+00,0.000000000000000000e+00
2.074822495999999905e+00,-3.920113822649999946e+01,-5.274692214780000832e+00,-2.504033907750000232e+00,2.760168075559999767e+00,1.658477544779999757e+00,-6.354800224299999911e+00,0.000000000000000000e+00
2.079821439999999910e+00,-3.824872994989999597e+01,-4.824165538569999967e+00,1.509931538610000068e+00,1.913360595699999944e+00,1.553210139270000179e+00,-5.872744560240000133e+00,0.000000000000000000e+00
2.084810232999999791e+00,-3.697356739050000130e+01,-2.638250655020000224e+00,3.373315572870000167e+00,1.158156156540000037e+00,1.231909990309999925e+00,-4.940804481509999846e+00,0.000000000000000000e+00
2.089845927999999908e+00,-3.585234685400000387e+01,2.372584433240000124e+00,4.911706459380000389e+00,6.401273012160000331e-01,7.795882821080000191e-01,-4.023144245150000131e+00,0.000000000000000000e+00
2.094962848999999849e+00,-3.621256431380000151e+01,5.267476292059999565e+00,4.625745491460000025e+00,2.868322432039999703e-01,4.123543798920000225e-01,-3.261488437649999739e+00,0.000000000000000000e+00
2.099838902000000118e+00,-3.611987550869999808e+01,8.382989070000000709e+00,4.522993557519999541e+00,1.958124637599999718e-01,1.638018488880000068e-01,-2.562013626100000163e+00,0.000000000000000000e+00
2.104967186000000101e+00,-2.492134328019999856e+01,8.930342381770000060e+00,1.437400701539999881e+00,1.779377460480000006e-01,2.105678059159999879e-02,-1.935593247409999940e+00,0.000000000000000000e+00
2.109973860000000201e+00,-4.348976597880000128e+01,1.200267185150000060e+01,2.836305960459999831e+00,-9.839392304420000457e-01,-1.540837645530000133e+00,-1.768284201619999996e+00,0.000000000000000000e+00
2.114941436000000063e+00,-3.840904793760000047e+01,1.227217385209999989e+01,1.243612639690000066e+01,-2.179931163790000070e+00,-1.693581342700000159e+00,-1.920058965679999785e+00,0.000000000000000000e+00
2.119970432000000127e+00,-3.469535357790000063e+01,9.582658873779999809e+00,1.321024380680000121e+01,-3.695824146269999666e+00,-1.910177588459999853e+00,-2.284022092819999905e+00,0.000000000000000000e+00
2.124968713999999981e+00,-4.489886120779999601e+01,1.236453064880000063e+01,1.529383053469999965e+01,-4.130770683289999745e+00,-3.237762689589999798e+00,-2.711207151409999572e+00,0.000000000000000000e+00
2.129970538999999885e+00,-1.499603299849999871e+01,2.535266432070000064e+01,1.298683486430000045e+01,-4.059378623959999821e+00,-4.277469158169999730e+00,-2.074171304700000107e+00,0.000000000000000000e+00
2.134959455999999811e+00,9.203633253199999809e-02,3.665016779550000336e+01,-1.357234225789999904e+01,-2.924562454219999719e+00,-4.836147785189999659e+00,-1.541324615479999771e+00,0.000000000000000000e+00
2.139965914999999885e+00,-9.330915817290000858e-01,5.057888019010000136e+01,-3.442109123110000013e+01,-2.287935733799999927e+00,-6.769167423250000759e+00,-1.994130492209999828e+00,0.000000000000000000e+00
2.144958341999999796e+00,-2.805680520579999992e+01,3.548157059089999876e+01,-6.179555130180000333e+01,-2.359487295149999664e+00,-7.622631072999999091e+00,-7.482908964159999954e-01,0.000000000000000000e+00
2.149831668000000029e+00,-3.894329626860000104e+01,2.786466818439999926e+01,-4.445535405500000081e+01,-2.063044071200000218e+00,-7.917303562160000752e+00,6.119986176489999874e-01,0.000000000000000000e+00
2.154804909000000102e+00,-4.579863679540000021e+01,3.353005775289999946e+01,-3.073977003179999912e+01,-3.558262586590000276e-01,-6.303968906399999739e+00,1.047618150710000196e+00,0.000000000000000000e+00
2.159860790000000197e+00,-2.858409538820000151e+01,1.017682771269999975e+01,-4.822250352600000234e+00,1.529642343519999947e+00,-2.607104301450000161e+00,1.442808866500000065e+00,0.000000000000000000e+00
2.164931902999999824e+00,-2.722567937600000043e+00,-2.146274128749999832e+01,-4.869077277959999783e+00,3.259992837910000052e+00,-4.054394662380000347e-01,2.367016077040000166e+00,0.000000000000000000e+00
2.169966994000000149e+00,4.219634295549999914e-01,-3.987802860330000243e+01,-6.598433803919999896e+00,3.485614061359999738e+00,2.592079639430000082e+00,4.401617050169999601e+00,0.000000000000000000e+00
2.174821913000000162e+00,1.337224872470000037e+01,-5.235166026270000117e+01,3.859977392310000255e+00,2.796404838559999995e+00,3.739772319790000132e+00,4.932669162749999892e+00,0.000000000000000000e+00
2.179811808000000184e+00,3.886290229690000597e+00,-4.058014226859999951e+01,-3.545860297230000402e+00,1.338086247439999932e+00,2.671803236009999694e+00,4.413450241090000503e+00,0.000000000000000000e+00
2.184808576000000002e+00,-1.429339092539999889e+01,-1.519487302459999967e+00,-3.787242644770000055e+01,-1.678950071329999849e+00,-3.918796032669999430e-02,2.344983816150000067e+00,0.000000000000000000e+00
2.189816695999999840e+00,-5.586192697630000481e+00,3.171097653239999659e+01,-2.081208892929999976e+01,-5.556649208069999624e+00,-2.228771924970000207e+00,1.942178606989999889e-01,0.000000000000000000e+00
2.194760269000000097e+00,6.649766516269999705e+00,1.515429113109999903e+01,5.727415524259999557e+00,-6.258361816409999889e+00,-4.176285266879999902e+00,-1.716092586520000074e+00,0.000000000000000000e+00
2.199864840000000044e+00,-3.753495916449999914e+00,-1.437494575750000081e+01,-7.141944468780000221e+00,-4.279624462130001028e+00,-2.942857027049999630e+00,-2.231842041020000167e+00,0.000000000000000000e+00
2.204953978999999897e+00,-2.304571307400000180e+01,-7.458487621960000702e+00,-9.053805679830000841e+00,-2.019496917720000173e+00,-1.663376212120000197e+00,-3.894884884359999799e-01,0.000000000000000000e+00
2.209960168999999919e+00,-1.361732238640000148e+01,1.585128789190000020e+01,-1.185612169240000036e+01,-1.698244512079999935e-01,-5.228684544560000536e-01,1.382269859310000015e+00,0.000000000000000000e+00
2.214803767999999895e+00,-1.437809720729999796e+00,1.038379171629999931e+01,-9.834169290569999333e+00,6.662147641179999580e-01,2.175527811050000093e-01,1.214503884320000004e+00,0.000000000000000000e+00
2.219952896000000120e+00,-4.255444152339999953e+00,-3.254133313129999650e+00,-1.016196682820000063e+01,3.221412301059999872e-01,4.155674576760000072e-01,1.300454139710000012e+00,0.000000000000000000e+00
2.224814229999999782e+00,-2.026015413500000140e+00,-4.488797857930000745e+00,-1.046341762620000004e+01,-5.079383254049999463e-01,4.521129131319999717e-01,1.398469924930000108e+00,1.000000000000000000e+00
2.229842924000000171e+00,3.303815627930000165e-01,8.824591266010000101e-01,-1.097668045230000011e+01,-1.135165333750000061e+00,-2.160049825910000110e-01,1.080387234689999865e+00,1.000000000000000000e+00
2.234799010000000141e+00,-3.069067253110000060e+00,2.894896973379999849e+00,-9.294706439789999664e+00,-1.246994495389999846e+00,-3.606054186819999674e-01,8.679437041280000376e-01,1.000000000000000000e+00
2.239963889000000208e+00,-3.634455403259999606e+00,1.983111652919999912e+00,-1.068186631590000069e+01,-9.499673843379999871e-01,-5.569238066670000320e-01,6.791377067569999149e-01,0.000000000000000000e+00
2.244946609999999954e+00,-5.181062913969999961e+00,9.897481925180000584e-01,-1.000641737009999943e+01,-5.613477826120000236e-01,-4.627563953399999597e-01,6.056447029110000324e-01,0.000000000000000000e+00
2.249981212999999869e+00,-4.136520251280000338e+00,5.413872429680000042e-01,-9.757959911110001272e+00,-3.981014192099999738e-01,-3.694890141489999835e-01,6.329615712169999187e-01,0.000000000000000000e+00
2.254795928000000060e+00,-2.741077992279999709e+00,1.857627808820000004e+00,-1.009589013570000127e+01,-3.587100803850000186e-01,-3.135035037989999940e-01,6.218376755710000037e-01,0.000000000000000000e+00
2.259851648000000157e+00,-2.295949667979999997e+00,1.802155074050000083e+00,-1.078950134569999975e+01,-4.678156375890000218e-01,-2.299094051120000037e-01,4.819555580619999668e-01,0.000000000000000000e+00
2.264804826999999854e+00,-2.758686421949999801e+00,1.899392043970000055e+00,-1.108328087839999831e+01,-5.578581690789999881e-01,-2.036353945730000059e-01,2.578642368319999933e-01,1.000000000000000000e+00
2.269850132999999826e+00,-2.797242654840000231e+00,1.046725632760000080e+00,-1.031985320489999935e+01,-5.564109086990000064e-01,-2.385535538199999861e-01,1.199952363969999936e-01,1.000000000000000000e+00
2.274812639999999941e+00,-3.184667270450000309e+00,2.384581014370000140e+00,-1.051847140489999965e+01,-4.798598587510000124e-01,-3.167444169520000075e-01,-1.983956433829999963e-02,1.000000000000000000e+00
2.279803310000000138e+00,-2.417605916619999906e+00,7.113273377830000577e-01,-1.023834162740000053e+01,-3.992512524130000240e-01,-3.476511240010000114e-01,-8.640756458039998422e-02,1.000000000000000000e+00
2.284796239999999923e+00,-3.132624948529999731e+00,4.038123078470000071e-01,-1.014814054740000060e+01,-4.065184295180000462e-01,-3.709823489190000045e-01,-9.569022059439999395e-02,1.000000000000000000e+00
2.289831508999999876e+00,-3.546802546509999488e+00,-1.158962457279999914e+00,-1.043925232219999977e+01,-4.500021338459999631e-01,-3.109809756280000337e-01,-1.135059818629999967e-01,1.000000000000000000e+00
2.294811361999999910e+00,-3.211857182929999777e+00,-1.781386280659999821e+00,-9.265402019369998854e+00,-4.966486990449999750e-01,-2.373056411740000204e-01,5.189486779270000190e-03,1.000000000000000000e+00
2.299957556999999930e+00,-3.088418727049999646e+00,-3.840235750000000170e+00,-1.033350529809999863e+01,-4.955944418909999927e-01,-2.398783117529999787e-01,7.731278985739999110e-02,0.000000000000000000e+00
2.304958284000000024e+00,-3.293427797159999670e+00,-1.213202289250000065e+00,-9.768625682030000590e+00,-5.041095614430000094e-01,-3.309809863569999622e-01,3.512844145300000331e-01,0.000000000000000000e+00
2.309984555000000217e+00,-2.722983824929999574e+00,-4.747452812699999858e-01,-1.170270924630000131e+01,-5.225554704670000161e-01,-4.671132266520000020e-01,3.521038591860000122e-01,0.000000000000000000e+00
2.314819184000000085e+00,-1.940070383579999724e+00,2.506555900510000212e-01,-1.183757130569999916e+01,-5.814176797869999858e-01,-5.635604262350000226e-01,3.227030038829999947e-01,0.000000000000000000e+00
2.319960384999999903e+00,-2.329100973080000081e+00,-2.256080781590000250e-01,-1.248242637579999936e+01,-6.717363595959999767e-01,-6.945499181750000028e-01,2.728409171099999697e-01,0.000000000000000000e+00
2.324930424999999801e+00,-1.901118283239999984e+00,-9.036107818309999651e-01,-1.285614044599999950e+01,-7.054656743999999646e-01,-8.442966938020000089e-01,2.223819047210000011e-01,0.000000000000000000e+00
2.329957534000000052e+00,-1.732181958640000241e+00,-1.572092226709999929e+00,-1.368382110369999971e+01,-8.024283051489999874e-01,-1.035658955570000206e+00,2.523609995839999898e-01,0.000000000000000000e+00
2.334957884000000039e+00,-9.198739343680000236e-01,-1.428516114939999859e+00,-1.465148773970000029e+01,-8.539024591449999591e-01,-1.305592656139999974e+00,2.538419961930000190e-01,0.000000000000000000e+00
2.339808564000000146e+00,-3.445225355439999748e-01,5.043906971450000665e-01,-1.541435777930000128e+01,-9.164394140239999764e-01,-1.595407962799999968e+00,2.138446867469999957e-01,0.000000000000000000e+00
2.344811528999999783e+00,1.102141595839999794e-02,1.455554051739999855e+00,-1.565939636979999960e+01,-9.929413199420000780e-01,-1.961767911909999773e+00,9.847653657199999244e-02,0.000000000000000000e+00
2.349955222000000177e+00,-6.840516467139999834e-01,1.254793432849999890e+00,-1.574059230549999988e+01,-9.598950147629999874e-01,-2.278765916820000292e+00,3.857574984430000437e-02,0.000000000000000000e+00
2.354801579000000089e+00,6.965989205329999878e-01,1.522297099190000003e+00,-1.694755051270000124e+01,-9.903588294980000262e-01,-2.692429065699999846e+00,1.933258585629999901e-02,0.000000000000000000e+00
2.359817985999999923e+00,-2.223324540219999979e-01,2.138833691159999884e+00,-1.632602020410000065e+01,-8.735660314560000916e-01,-3.075006961819999773e+00,6.191913969810000813e-03,0.000000000000000000e+00
2.364834689999999906e+00,6.134768390789999692e-01,2.848452033069999612e+00,-1.668843897320000025e+01,-9.163025617600000228e-01,-3.461578607559999909e+00,-1.155625656250000022e-01,0.000000000000000000e+00
2.369831537000000043e+00,7.473205517820000199e-02,2.802656496580000045e+00,-1.626517848960000023e+01,-9.233804941179999393e-01,-3.803108930590000103e+00,-1.885660141710000237e-01,0.000000000000000000e+00
2.374798079000000062e+00,1.033038395120000175e+00,3.486836445849999855e+00,-1.588474709390000150e+01,-9.340982437129999871e-01,-4.206718921660000277e+00,-2.948190569880000389e-01,0.000000000000000000e+00
2.379792205999999855e+00,1.351892747860000243e+00,3.357056511990000214e+00,-1.560166080459999982e+01,-9.259634613989999874e-01,-4.541703224180000831e+00,-3.498492538930000340e-01,0.000000000000000000e+00
2.384788464000000108e+00,2.410912848720000223e+00,3.272326849210000166e+00,-1.486287189779999984e+01,-9.067980051039999934e-01,-4.910307407380000377e+00,-4.836146235469999666e-01,0.000000000000000000e+00
2.389820995000000003e+00,1.352873283330000120e+00,2.605560683809999833e+00,-1.405311268119999824e+01,-9.087226986890000191e-01,-5.238660812380000031e+00,-4.922888576980000153e-01,0.000000000000000000e+00
2.394948133000000201e+00,1.642269778650000012e+00,1.531135070159999945e+00,-1.354199855759999949e+01,-8.691644072530000376e-01,-5.543367862699999371e+00,-4.643688499930000435e-01,0.000000000000000000e+00
2.399939690000000070e+00,3.747029350780000101e+00,1.852970922919999985e+00,-1.246595571800000002e+01,-9.429391622539999851e-01,-5.835016727450000218e+00,-2.599584460259999896e-01,0.000000000000000000e+00
2.404948303999999926e+00,8.244894604520000003e-01,1.880439213959999911e+00,-1.170435525989999981e+01,-1.102286577220000119e+00,-6.005611896510000491e+00,-1.665104627610000110e-01,0.000000000000000000e+00
2.409821640000000098e+00,-2.059651725640000208e+00,-2.736493002580000056e+00,-1.334226859690000033e+01,-1.309151649479999957e+00,-6.032646179199999459e+00,-3.674512505529999862e-01,0.000000000000000000e+00
2.414972677000000179e+00,-1.180382188860000126e+00,-4.227215836720000119e+00,-1.287316990670000116e+01,-1.457308411599999909e+00,-6.271040439609999240e+00,-3.754054009910000045e-01,0.000000000000000000e+00
2.419813830999999915e+00,-3.588444470450000257e+00,-3.137181881179999632e+00,-1.208858721700000061e+01,-1.683041095729999936e+00,-6.398529529570000207e+00,-2.704046964649999829e-01,0.000000000000000000e+00
2.424794507000000099e+00,-9.695313777580000902e+00,-3.246608178320000260e+00,-1.273240768329999995e+01,-1.905294537540000110e+00,-6.604909420009999366e+00,1.441667675970000062e-01,0.000000000000000000e+00
2.429820492999999804e+00,-1.905842272250000136e+01,-3.286626592720000239e+00,-1.587931571650000073e+01,-2.010584354400000162e+00,-6.666549205780000875e+00,3.861680626870000466e-01,0.000000000000000000e+00
2.434955423999999979e+00,-2.469031918670000181e+01,-1.683672048620000083e+00,-1.611320046019999808e+01,-1.880526304240000224e+00,-6.436431407929999793e+00,5.488579869269999412e-01,0.000000000000000000e+00
2.439953542000000031e+00,-2.345366025320000247e+01,3.532335629740000371e+00,-1.499011763700000088e+01,-1.741184711459999868e+00,-5.851934909819999753e+00,5.577831268309999535e-01,0.000000000000000000e+00
2.444832035000000126e+00,-1.769236116400000114e+01,5.480374361849999154e+00,-1.335734458549999992e+01,-1.551144361500000013e+00,-4.950702667240000743e+00,4.751303493980000292e-01,0.000000000000000000e+00
2.449805491999999862e+00,-1.600356636549999934e+01,2.554113405170000295e+00,-1.271264967439999971e+01,-1.472836494449999867e+00,-3.817622661590000188e+00,6.234889626499999782e-01,0.000000000000000000e+00
2.454760902999999939e+00,-1.354399060819999967e+01,-8.879862194589999147e-01,-1.450666425819999894e+01,-1.566665530200000100e+00,-3.029723644260000182e+00,7.928149700159999869e-01,0.000000000000000000e+00
2.459953018999999852e+00,-1.329593354670000060e+01,-3.018162703040000228e+00,-1.451662334220000083e+01,-1.809557557109999992e+00,-2.640949726100000117e+00,9.557201862340000131e-01,0.000000000000000000e+00
2.464824660000000112e+00,-1.702319115230000079e+01,1.084504305400000090e+00,-1.861382602079999771e+01,-2.128715038300000195e+00,-2.655471801760000083e+00,6.616318225859999513e-01,0.000000000000000000e+00
2.469833675999999922e+00,-1.054036993299999914e+01,-1.281074267659999988e+00,-1.426047649779999915e+01,-2.155556678770000012e+00,-2.548173189159999907e+00,5.174297690389999538e-01,0.000000000000000000e+00
2.474954595999999896e+00,-4.376573162240000592e+00,-8.553608379250000615e-01,-1.339012106599999896e+01,-1.989191174509999716e+00,-2.108890771870000069e+00,3.351258933540000040e-01,0.000000000000000000e+00
2.479956470999999940e+00,-1.913177408209999708e+00,-6.060314915090000421e-01,-1.190173427349999891e+01,-1.912391901019999896e+00,-1.492418050770000226e+00,2.714686691759999881e-01,0.000000000000000000e+00
2.484788416999999860e+00,5.156090385280000632e+00,-6.291737506479999631e+00,-1.297194826089999964e+01,-2.137078046800000131e+00,-8.681031465530000268e-01,6.864107251170000756e-01,0.000000000000000000e+00
2.489979517000000087e+00,-9.870274038650000747e+00,-6.122531863419999887e+00,-1.401960087229999985e+01,-2.535015344620000111e+00,-9.825502634049999573e-01,1.001822352410000061e+00,0.000000000000000000e+00
2.494946316000000053e+00,-2.133567791910000011e+01,7.064786410299999986e+00,-2.820983771270000062e+01,-3.184442758559999920e+00,-1.786382794379999917e+00,1.117107152940000070e+00,0.000000000000000000e+00
2.499804122000000017e+00,-1.618296197869999986e+01,-3.914684111139999922e-01,-2.581213593540000062e+01,-3.556571960450000347e+00,-1.456631660460000033e+00,9.528340101240000415e-01,0.000000000000000000e+00
2.504794662000000116e+00,-4.059900829709999215e+00,-4.060215302490000511e+00,-2.304199785289999980e+01,-2.863287210460000232e+00,-6.966198682790000207e-01,2.476470470430000015e-01,0.000000000000000000e+00
2.509827907000000025e+00,-4.662407581160000092e+00,-7.653552075030000124e-01,-2.143378641119999983e+01,-2.441228151319999817e+00,7.394201755519999031e-01,1.224812045690000101e-01,0.000000000000000000e+00
2.514967829000000155e+00,-2.988847761229999733e+00,-2.649607623070000084e+00,-2.023378167630000135e+01,-2.625255823140000278e+00,1.754554152490000130e+00,2.987349927430000274e-01,0.000000000000000000e+00
2.519927588999999912e+00,1.140555278449999932e+00,-6.656796561039999283e+00,-1.941296447470000075e+01,-2.729380607600000008e+00,2.366433143620000124e+00,5.438032746320000665e-01,0.000000000000000000e+00
2.524958044999999984e+00,3.544787115040000103e+00,-5.639776403780000003e+00,-1.803981266569999775e+01,-2.681415557859999854e+00,2.504152774809999649e+00,7.498919367790000123e-01,0.000000000000000000e+00
2.529980019999999996e+00,5.340543866350000002e+00,-5.128285263510000469e+00,-1.702983833529999913e+01,-2.701230049129999866e+00,2.219006299970000207e+00,7.726784348490000065e-01,0.000000000000000000e+00
2.534820319000000044e+00,5.837673888309999448e+00,-5.428681584010000449e+00,-1.497376388359999844e+01,-2.891565799709999496e+00,1.845384836200000045e+00,7.938884496690000736e-01,0.000000000000000000e+00
2.539951895000000182e+00,4.349150610039999698e+00,-6.406029071579999901e+00,-1.328255267160000130e+01,-3.090656995770000304e+00,1.839134693149999888e+00,8.901897668839999778e-01,0.000000000000000000e+00
2.544808495999999920e+00,3.925262934430000072e+00,-6.139746617600000178e+00,-1.235388182900000054e+01,-3.325248718259999681e+00,1.949914097790000245e+00,8.445047736169999375e-01,0.000000000000000000e+00
2.549999811000000172e+00,1.810520166820000165e+00,-5.581197958080000632e+00,-1.203153203529999971e+01,-3.478709459300000084e+00,2.246866226199999872e+00,8.224512934679999443e-01,0.000000000000000000e+00
2.554795531999999980e+00,8.554922822849999609e-01,-5.656185102259999375e+00,-1.208126315770000048e+01,-3.577822923659999876e+00,2.574786663059999814e+00,8.959510922429999580e-01,0.000000000000000000e+00
2.559974318000000082e+00,-1.463189989970000160e-01,-5.749833107779999786e+00,-1.183917172660000006e+01,-3.575942039490000113e+00,2.877439975740000211e+00,1.060310721400000045e+00,0.000000000000000000e+00
2.564807107000000030e+00,-8.043637872679999523e-01,-5.688576967300000398e+00,-1.120576042609999945e+01,-3.487413406369999525e+00,3.119454622270000144e+00,1.247177600860000179e+00,0.000000000000000000e+00
2.569830544000000216e+00,-1.218458529270000090e+00,-5.026745043440000060e+00,-1.040552774730000074e+01,-3.373805284499999946e+00,3.336911916729999650e+00,1.385407924649999956e+00,0.000000000000000000e+00
2.574781633000000181e+00,-1.115572009170000101e+00,-4.533612858949999769e+00,-9.542545474580000686e+00,-3.203578948970000173e+00,3.529141664509999554e+00,1.428531050679999970e+00,0.000000000000000000e+00
2.579949860000000150e+00,-3.144879011549999714e-01,-4.353905695619999960e+00,-8.540571495289999149e+00,-3.008745908739999919e+00,3.695410490039999996e+00,1.445428609850000212e+00,0.000000000000000000e+00
2.584944761000000035e+00,-5.449249886399999410e-01,-5.021709387359999610e+00,-7.741074145010000684e+00,-2.803016901019999896e+00,3.836571455000000075e+00,1.458955287929999844e+00,0.000000000000000000e+00
2.589837650999999852e+00,-2.662353086340000230e-01,-5.700087372350000514e+00,-7.623441452799999851e+00,-2.578999757770000123e+00,3.952541351319999841e+00,1.536607861520000062e+00,0.000000000000000000e+00
2.594753024000000075e+00,-5.147149246190000360e-01,-6.330826238810000284e+00,-7.112735325430000088e+00,-2.387881517409999876e+00,3.973252296449999665e+00,1.573030710220000072e+00,0.000000000000000000e+00
2.599801397999999875e+00,-9.655025167949999876e-01,-6.369920816360000515e+00,-6.375963019140000299e+00,-2.227249860759999756e+00,3.984463691710000255e+00,1.542915105820000132e+00,0.000000000000000000e+00
2.604951750000000121e+00,-1.169258737300000073e+00,-6.327361777569999290e+00,-5.630677736039999992e+00,-2.063092947009999900e+00,3.957110881809999814e+00,1.387682676320000086e+00,0.000000000000000000e+00
2.609976392000000089e+00,-1.457438550310000247e+00,-6.507886102509999660e+00,-4.927838679009999723e+00,-1.947649240490000322e+00,3.978517532350000163e+00,1.190768718720000008e+00,0.000000000000000000e+00
2.614940821999999887e+00,-1.769239477400000204e+00,-7.102478135310000162e+00,-4.799831892300000291e+00,-1.841804742809999951e+00,4.031969547270000120e+00,9.516525864599999496e-01,0.000000000000000000e+00
2.619800955000000098e+00,-2.153100409190000342e+00,-7.374469614580000609e+00,-4.654271913239999670e+00,-1.723515987400000116e+00,4.066847801209999780e+00,6.934620738029999565e-01,0.000000000000000000e+00
2.624797242000000086e+00,-2.621340436750000169e+00,-7.668397615860000904e+00,-4.588329953040000575e+00,-1.588543295859999871e+00,4.083137512209999542e+00,4.361971020699999535e-01,0.000000000000000000e+00
2.629838597000000000e+00,-3.057173693959999827e+00,-7.875449882230000753e+00,-4.537129927159999632e+00,-1.456926345830000136e+00,4.057120800019999862e+00,1.381501704449999979e-01,0.000000000000000000e+00
2.634771377999999942e+00,-3.649099137900000400e+00,-8.136091699970000590e+00,-4.540650502500000130e+00,-1.327710509300000119e+00,4.045875072480000334e+00,-1.782239228489999883e-01,0.000000000000000000e+00
2.639950529000000046e+00,-4.206570815840000144e+00,-8.291742864930000678e+00,-4.666303419559999277e+00,-1.191181421279999819e+00,4.019575119019999754e+00,-5.557048320769999439e-01,0.000000000000000000e+00
2.644943175999999951e+00,-4.822971360350000403e+00,-8.271805407800000509e+00,-4.821118425959999954e+00,-1.073512911799999969e+00,4.036304950709999950e+00,-9.328777194020000385e-01,0.000000000000000000e+00
2.649980615000000039e+00,-4.898503863450000217e+00,-1.041063413050000008e+01,-5.449988575939999969e+00,-1.268664956090000073e+00,4.270124435419999642e+00,-1.508706927300000000e+00,0.000000000000000000e+00
2.654917853999999799e+00,-1.071948497559999858e+01,-1.102744033319999950e+01,-6.521495525659999792e+00,-1.180190563199999820e+00,4.464709281919999384e+00,-1.853405356409999705e+00,0.000000000000000000e+00
2.659796496999999871e+00,-5.414581746989999722e+00,-6.926488531200000409e+00,-4.537600759540000084e+00,-6.454442739490000580e-01,4.417538166049999937e+00,-2.214205265049999927e+00,0.000000000000000000e+00
2.664807936999999960e+00,-3.989226288030000234e+00,-8.731458808799999360e+00,-4.928198744490000394e+00,-6.380200982089999640e-01,4.316937923430000268e+00,-2.520748853679999790e+00,0.000000000000000000e+00
2.669833715000000218e+00,-6.228122820190000297e+00,-8.145401964630000435e+00,-3.254214269409999805e+00,-5.067056417469999463e-01,4.167365074160000127e+00,-2.619264364240000198e+00,0.000000000000000000e+00
2.674802341999999999e+00,-4.739242691300000310e+00,-6.681901776200000143e+00,-3.685047818640000195e+00,-3.809024095539999544e-01,4.255693435669999580e+00,-3.035743236540000556e+00,0.000000000000000000e+00
2.679802113000000041e+00,-3.520189557139999703e+00,-5.778058500780000273e+00,-3.845761235430000369e+00,-1.413466930389999932e-01,4.146444797520000058e+00,-3.389664888380000018e+00,0.000000000000000000e+00
2.684938633999999880e+00,-4.460761557749999717e+00,-5.177348861890000542e+00,-3.785721777270000032e+00,1.762539334599999910e-02,4.085745811459999821e+00,-3.689281225199999792e+00,0.000000000000000000e+00
2.689839194999999794e+00,-5.832686163029999982e+00,-5.977874970690000289e+00,-3.980781992549999870e+00,2.421497255559999784e-01,4.003682613369999643e+00,-3.697431802749999719e+00,0.000000000000000000e+00
2.694787653000000116e+00,-5.922350067340000024e+00,-5.349481206050000104e+00,-4.348301591999999438e+00,5.091801881790000150e-01,3.931208610530000147e+00,-3.653326988219999460e+00,0.000000000000000000e+00
2.699782256000000213e+00,-6.231540519680000223e+00,-4.130110676490000188e+00,-4.674220476290000370e+00,7.049556970600000527e-01,3.865170001980000158e+00,-3.702098608020000015e+00,0.000000000000000000e+00
2.704942872000000165e+00,-7.216971360449999651e+00,-4.218673049309999534e+00,-5.116770182280000689e+00,8.519297242159999950e-01,3.834560394290000396e+00,-3.715072393419999397e+00,0.000000000000000000e+00
2.709983263999999892e+00,-7.067130927600000057e+00,-4.126351908480000219e+00,-5.349598694950000066e+00,9.326922297480000346e-01,3.780167579649999610e+00,-3.689227342609999738e+00,0.000000000000000000e+00
2.714950715000000070e+00,-7.131666235870000037e+00,-3.916393983789999922e+00,-5.918579901150000211e+00,1.053775072099999877e+00,3.729702711109999846e+00,-3.739209175109999617e+00,0.000000000000000000e+00
2.719946599000000020e+00,-7.721601967299999814e+00,-4.259721975789999782e+00,-6.593257278060000282e+00,1.133504271510000105e+00,3.677692174909999778e+00,-3.706434249880000475e+00,0.000000000000000000e+00
2.724815648999999951e+00,-8.315352873100000153e+00,-4.704891801150000497e+00,-7.267135613549999817e+00,1.186407208439999916e+00,3.592581272130000780e+00,-3.655187129969999837e+00,0.000000000000000000e+00
2.729816513999999916e+00,-9.289046514330001614e+00,-5.001913384519999894e+00,-7.533107101880000656e+00,1.209960341449999977e+00,3.588246107099999804e+00,-3.654263734819999776e+00,0.000000000000000000e+00
2.734774530999999786e+00,-9.620516018489999155e+00,-6.023470600689999621e+00,-7.810021424510001253e+00,1.131057977679999826e+00,3.613014459609999562e+00,-3.685747861859999919e+00,0.000000000000000000e+00
2.739725249000000140e+00,-9.950325480480000095e+00,-7.015615259889999678e+00,-8.243524485210000918e+00,9.716668725010000340e-01,3.701492547990000048e+00,-3.726373672490000288e+00,0.000000000000000000e+00
2.744746237000000200e+00,-9.943675959470001047e+00,-7.881403822200000242e+00,-8.421612522909999399e+00,7.193636894230001078e-01,3.801576614380000052e+00,-3.839325428009999985e+00,0.000000000000000000e+00
2.749745132000000147e+00,-9.651698507739999044e+00,-8.666850435289999766e+00,-8.231922310219999872e+00,4.289189279079999584e-01,3.859282016749999933e+00,-3.979389905930000637e+00,0.000000000000000000e+00
2.754748238999999987e+00,-9.597989129389999263e+00,-9.569188566839999410e+00,-8.151977251369999067e+00,9.988328069450000402e-02,3.873173952099999706e+00,-4.117173194890000332e+00,0.000000000000000000e+00
2.759945377000000200e+00,-8.892732489820000197e+00,-9.803005506019999871e+00,-7.869186145660001408e+00,-1.451886296269999932e-01,3.866052865980000419e+00,-4.172250747679999705e+00,0.000000000000000000e+00
2.764789562999999895e+00,-8.501548813930000392e+00,-8.744400123440000172e+00,-7.607898431230000647e+00,-3.376893699169999929e-01,3.788978815080000118e+00,-4.271216869349999889e+00,0.000000000000000000e+00
2.769830842000000182e+00,-8.325729890210000761e+00,-8.118316389310001213e+00,-7.343622056380000096e+00,-3.527272641659999763e-01,3.742689371109999996e+00,-4.360290527340000111e+00,0.000000000000000000e+00
2.774946896999999968e+00,-8.201632385899999989e+00,-7.572988445890000087e+00,-7.402360076549999945e+00,-3.184568583969999978e-01,3.620156764980000386e+00,-4.490882396700000001e+00,0.000000000000000000e+00
2.779786314999999952e+00,-8.320921613139999451e+00,-7.803104776989998825e+00,-7.021221409339998942e+00,-1.724855452780000020e-01,3.559972286219999837e+00,-4.519322872159999172e+00,0.000000000000000000e+00
2.784774253999999782e+00,-8.215561542530000594e+00,-9.063803926749999462e+00,-7.070741519310001166e+00,-7.627482712270000631e-02,3.480505228040000176e+00,-4.516712665560000062e+00,0.000000000000000000e+00
2.789746597000000161e+00,-7.941145466460000080e+00,-8.917329170940000438e+00,-6.987995431559999915e+00,1.440451759849999992e-02,3.353875398640000061e+00,-4.575900554659999564e+00,0.000000000000000000e+00
2.795916012000000173e+00,-8.077435512859999278e+00,-1.031362453960000103e+01,-7.458053322200000501e+00,7.512304931879999759e-02,3.265570402149999829e+00,-4.658249378199999846e+00,0.000000000000000000e+00
2.799743322999999950e+00,-7.929253368610000408e+00,-1.081494558349999835e+01,-7.410456289239998995e+00,2.772898413240000234e-02,3.132799863820000308e+00,-4.691911220549999761e+00,0.000000000000000000e+00
2.804745386000000007e+00,-8.255024368870000018e+00,-1.096858599319999961e+01,-7.378333304269999005e+00,1.837914250790000092e-02,3.021903514859999973e+00,-4.827458381650000518e+00,0.000000000000000000e+00
2.809711236000000056e+00,-7.927489866070000168e+00,-1.093005898640000062e+01,-7.546321388239999095e+00,-4.129851609469999824e-02,2.878794908520000195e+00,-4.896787166600000241e+00,0.000000000000000000e+00
2.814948371999999921e+00,-8.383806231599999492e+00,-1.158501342569999970e+01,-7.965519444730000842e+00,-5.070327222350000385e-02,2.757122278209999777e+00,-4.975777149199999805e+00,0.000000000000000000e+00
2.819918674000000181e+00,-8.947491669489998856e+00,-1.079663601989999933e+01,-9.364520565250000317e+00,2.849082089959999869e-02,2.590197086329999898e+00,-5.098642826080000745e+00,0.000000000000000000e+00
2.824793290000000123e+00,-1.005404772079999987e+01,-1.072516652840000084e+01,-1.032422075240000048e+01,1.743407696489999714e-01,2.511651039120000206e+00,-5.173572063449999980e+00,0.000000000000000000e+00
2.829839616000000113e+00,-1.065334281670000038e+01,-9.186655230389998650e+00,-1.110695167680000139e+01,3.800863921639999754e-01,2.491872787479999740e+00,-5.292207241059999845e+00,0.000000000000000000e+00
2.834780619000000002e+00,-1.139262272190000047e+01,-9.115445266660000101e+00,-1.187682078160000110e+01,6.510958671569999634e-01,2.580941200259999846e+00,-5.438516139979999942e+00,0.000000000000000000e+00
2.839935619999999883e+00,-1.118111581420000000e+01,-8.491171212299999382e+00,-1.290332071479999954e+01,8.949502706530000351e-01,2.655824661250000052e+00,-5.562048912050000737e+00,0.000000000000000000e+00
2.844785749999999780e+00,-1.120959605880000076e+01,-9.136786160850000726e+00,-1.289465225520000047e+01,1.097704172130000044e+00,2.809224128719999936e+00,-5.684904098509999670e+00,0.000000000000000000e+00
2.849812865000000084e+00,-1.099160329619999921e+01,-8.602264858130000746e+00,-1.314044721700000018e+01,1.270551204680000046e+00,2.946088790889999753e+00,-5.765149593350000323e+00,0.000000000000000000e+00
2.854920009000000203e+00,-9.415249466489999719e+00,-8.493902098570000447e+00,-1.287102471140000048e+01,1.384123086929999857e+00,3.013905525209999769e+00,-5.818838596340000890e+00,0.000000000000000000e+00
2.859938774999999822e+00,-9.693504097810000886e+00,-9.065446433260001768e+00,-1.271540627959999981e+01,1.431399226189999929e+00,3.069459915159999941e+00,-5.791858673099999244e+00,0.000000000000000000e+00
2.864779250000000221e+00,-8.654580736299999799e+00,-8.163186627649999139e+00,-1.225660335799999956e+01,1.508888959880000158e+00,3.066354990009999781e+00,-5.656309127810000170e+00,0.000000000000000000e+00
2.869830835000000135e+00,-8.273211767460001198e+00,-7.717801405970000417e+00,-1.229048809190000036e+01,1.558658003810000192e+00,3.030865430830000040e+00,-5.501214981080000399e+00,0.000000000000000000e+00
2.874808172999999911e+00,-8.513679981230000138e+00,-7.419003752839999244e+00,-1.231409342390000106e+01,1.618144869799999830e+00,2.973522186280000312e+00,-5.298586368559999649e+00,0.000000000000000000e+00
2.879794474000000104e+00,-8.467769878449999510e+00,-7.014405884099999433e+00,-1.250744157459999961e+01,1.693987727170000124e+00,2.918127536769999697e+00,-5.057180881499999892e+00,0.000000000000000000e+00
2.884783457000000162e+00,-9.034579001310000024e+00,-6.889167393060001032e+00,-1.276544369150000158e+01,1.767802119259999971e+00,2.877708911900000111e+00,-4.740344524380000202e+00,0.000000000000000000e+00
2.889809418000000019e+00,-9.279901669370000050e+00,-6.692143184229999875e+00,-1.277547759429999985e+01,1.882325649260000011e+00,2.817738533019999991e+00,-4.433518886569999040e+00,0.000000000000000000e+00
2.894746002999999845e+00,-9.894870719769999212e+00,-6.133834178679999916e+00,-1.247125265539999894e+01,1.939988970759999765e+00,2.744284391399999912e+00,-4.027918815609999648e+00,0.000000000000000000e+00
2.899744216000000208e+00,-1.077210831230000032e+01,-4.907220838389999784e+00,-1.190160450970000028e+01,2.026681900020000260e+00,2.651217222209999669e+00,-3.708878040309999680e+00,0.000000000000000000e+00
2.904936485999999984e+00,-1.067614501559999951e+01,-9.815109639179999679e-01,-1.180454932609999830e+01,2.104032993320000156e+00,2.535767316819999895e+00,-3.392075300220000145e+00,0.000000000000000000e+00
2.909982717000000108e+00,-1.195072656029999969e+01,-4.471590994799999885e-01,-1.318878717720000004e+01,2.260137081149999894e+00,2.422407865520000314e+00,-3.000064373019999842e+00,0.000000000000000000e+00
2.914751787999999788e+00,-1.482297944789999988e+01,2.814016606439999624e-01,-1.527486046130000119e+01,2.583102703090000229e+00,2.440427303309999907e+00,-2.785624027250000356e+00,0.000000000000000000e+00
2.919759845000000187e+00,-1.791198591170000043e+01,-1.274261007449999927e-01,-1.564519833309999974e+01,2.836984395980000073e+00,2.467678785319999957e+00,-2.521950483320000380e+00,0.000000000000000000e+00
2.924745257000000098e+00,-1.388924196950000045e+01,5.993039806590000573e+00,-1.201277472790000012e+01,2.971900224690000591e+00,2.685769319530000310e+00,-2.443762540820000329e+00,0.000000000000000000e+00
