t,ax,ay,az,wx,wy,wz,zv
5.063287999999999990e-03,-2.518911158890000390e+00,5.107042276730000552e-01,-9.461321481839998881e+00,-5.160656874069999333e-04,3.029242390770000258e-03,1.522076874970000084e-02,1.000000000000000000e+00
1.002464999999999953e-02,-2.479553546490000038e+00,5.286962498289999868e-01,-9.454726905880001198e+00,-1.321466988880000111e-03,-4.303350578989999990e-04,7.369048427789999176e-03,1.000000000000000000e+00
1.503152999999999954e-02,-2.513265261949999996e+00,4.927524279300000698e-01,-9.474031910329999917e+00,-1.288607437159999987e-02,-5.551737733189999330e-03,4.181704949590000012e-03,1.000000000000000000e+00
2.002044299999999888e-02,-2.497984690709999622e+00,5.595262358460000307e-01,-9.447596907869998617e+00,-1.516415830700000057e-02,-2.878402825440000163e-03,2.330335322769999749e-03,1.000000000000000000e+00
2.498176599999999900e-02,-2.504883510320000006e+00,4.746258926739999606e-01,-9.497172547419999944e+00,8.041001856330000711e-03,-7.541643455619999846e-03,6.888163741680000500e-03,1.000000000000000000e+00
3.004648500000000125e-02,-2.493905896969999869e+00,4.928368182779999662e-01,-9.449911030029999992e+00,1.175339147450000024e-02,1.046206103639999840e-03,1.155714318159999955e-02,1.000000000000000000e+00
3.505753600000000025e-02,-2.491022158219999838e+00,5.724671486249999219e-01,-9.466523726649999304e+00,4.089214839040000542e-03,-2.341551473360000378e-03,3.185339272019999980e-03,1.000000000000000000e+00
4.002771699999999738e-02,-2.446360155809999881e+00,5.318646507320000660e-01,-9.468592349619999737e+00,2.468177117409999909e-04,1.058223750439999875e-02,-7.552204187959999857e-03,1.000000000000000000e+00
4.503380900000000103e-02,-2.508067108790000166e+00,5.179892701149999557e-01,-9.429789448500001114e+00,-5.717541091139999657e-03,2.026449190450000000e-03,3.961096052079999923e-03,1.000000000000000000e+00
5.003396899999999758e-02,-2.518217331399999814e+00,5.178575334939999886e-01,-9.469793542099999684e+00,-6.527750287199999592e-03,4.102715291080000215e-03,-9.910115972159998926e-03,1.000000000000000000e+00
5.503149499999999972e-02,-2.513990069100000113e+00,5.356172081989999390e-01,-9.458335159500000699e+00,-2.565720118580000139e-02,-8.178509771819999011e-03,-1.519485376779999993e-04,1.000000000000000000e+00
6.004670599999999830e-02,-2.511039110340000047e+00,5.273001923610000086e-01,-9.463781149949999971e+00,-4.035693127659999678e-03,-2.981075085700000070e-04,9.426195174459999838e-05,1.000000000000000000e+00
6.506666599999999523e-02,-2.465716159789999917e+00,5.580784481910000538e-01,-9.470681430860000916e+00,-1.100253313779999895e-02,9.186270646750000629e-03,-1.032308861610000024e-02,1.000000000000000000e+00
7.002890500000000240e-02,-2.513752168689999955e+00,5.403881489280000228e-01,-9.458266770439999860e+00,-7.519247010350000107e-03,8.166298270230000489e-03,-2.477495465429999794e-03,1.000000000000000000e+00
7.502425599999999750e-02,-2.488035543630000124e+00,5.069629222529999923e-01,-9.464533429619999438e+00,4.356543533500000301e-03,4.181569442150000204e-03,1.733416691420000023e-03,1.000000000000000000e+00
8.005176899999999485e-02,-2.503862642840000152e+00,5.283415546399999885e-01,-9.470487954110000217e+00,-7.025064900520000717e-03,-3.736482467500000146e-04,1.113149523739999890e-02,1.000000000000000000e+00
8.503158600000000622e-02,-2.489105218690000232e+00,5.510138435670000057e-01,-9.472314585019999456e+00,1.148073561489999957e-02,1.007506158200000002e-02,3.791819326580000656e-04,1.000000000000000000e+00
8.996982600000000274e-02,-2.535677292509999958e+00,5.357284500210000022e-01,-9.456374673080000903e+00,3.015690483150000167e-03,-4.219332709909999826e-03,7.777276914570000095e-03,1.000000000000000000e+00
9.497707599999999362e-02,-2.503101303079999784e+00,4.879151074340000172e-01,-9.487934763469999311e+00,-1.090079778810000089e-03,-1.232154318130000269e-03,-6.790790706869999707e-03,1.000000000000000000e+00
9.993599899999999758e-02,-2.485295305009999733e+00,5.641846195790000129e-01,-9.452797983640000012e+00,-4.230670165269999686e-03,8.613350801170000653e-03,-7.798023056239999917e-03,1.000000000000000000e+00
1.050093470000000029e-01,-2.495478845370000087e+00,5.130461146239999604e-01,-9.460196277199999670e+00,-1.122535672039999847e-03,-6.997501477599999417e-04,-1.380469650029999933e-02,1.000000000000000000e+00
1.099872120000000009e-01,-2.544899294359999953e+00,4.782906622590000212e-01,-9.488698733579999711e+00,-1.452902099119999808e-03,5.034375935789999965e-03,7.500250358130000454e-03,1.000000000000000000e+00
1.149775650000000038e-01,-2.484165131940000215e+00,5.200501116350000341e-01,-9.473511685850001030e+00,3.351604565980000061e-03,-1.030887942760000051e-02,-1.796156167980000060e-03,1.000000000000000000e+00
1.199864360000000019e-01,-2.496203067990000246e+00,5.164397391180000074e-01,-9.474921552639999689e+00,4.300693981349999924e-03,1.123374979940000053e-02,-7.151917088780000318e-04,1.000000000000000000e+00
1.249608999999999998e-01,-2.483166184029999890e+00,4.986485002310000469e-01,-9.467732517920000035e+00,7.767338771369999492e-03,4.721120931210000260e-03,-4.587894305589999833e-03,1.000000000000000000e+00
1.299450219999999934e-01,-2.502559743539999992e+00,5.081181567029999790e-01,-9.475945634989999533e+00,7.538657169790000459e-03,9.676062501969999452e-03,-2.166087040679999867e-03,1.000000000000000000e+00
1.349899539999999953e-01,-2.485429452780000048e+00,5.069448751399999731e-01,-9.464670792260001519e+00,8.422540500760000368e-03,9.483481757339999943e-03,3.119176719340000306e-03,1.000000000000000000e+00
1.399978050000000029e-01,-2.506951841019999794e+00,5.304648304039999429e-01,-9.502536120280000276e+00,1.115561742339999871e-02,6.308840587740000352e-03,1.097754202780000000e-02,1.000000000000000000e+00
1.449659500000000101e-01,-2.449827393529999675e+00,5.128339697110000373e-01,-9.471839368719999541e+00,-3.519926220180000145e-03,-1.008905749770000124e-02,-2.462066709999999933e-03,1.000000000000000000e+00
1.499728949999999950e-01,-2.521986620809999913e+00,5.045800822370000160e-01,-9.477920734460001384e+00,8.570368401710000417e-03,8.908330462870000035e-03,3.122644498940000367e-03,1.000000000000000000e+00
1.549359369999999958e-01,-2.517137719469999979e+00,5.309371606239999819e-01,-9.463283137299999481e+00,-2.151321852579999964e-03,1.553035899999999879e-02,-2.677868586030000050e-03,1.000000000000000000e+00
1.599442229999999965e-01,-2.490064419109999871e+00,5.056661969729999706e-01,-9.480942712630000102e+00,1.870261877779999873e-02,5.564439110459999671e-03,-2.383703133089999995e-03,1.000000000000000000e+00
1.649368659999999875e-01,-2.484493633240000054e+00,5.460344842519999631e-01,-9.485111522749999580e+00,9.229854680599999112e-03,5.086699966339999421e-04,2.757871989160000392e-04,1.000000000000000000e+00
1.699197590000000035e-01,-2.487218089769999807e+00,5.094334770849999749e-01,-9.454937333760000229e+00,-7.692256011070000565e-03,-3.331795567649999731e-03,2.845668699590000496e-03,1.000000000000000000e+00
1.749246120000000071e-01,-2.431366877079999878e+00,5.163686831759999318e-01,-9.477691017359999748e+00,4.011531826110000323e-03,-2.831246238199999592e-03,-2.242383174599999959e-02,1.000000000000000000e+00
1.799755419999999884e-01,-2.595945298729999795e+00,4.760301699809999509e-01,-9.484439322569999220e+00,2.588621806349999943e-03,1.680474914610000092e-02,1.330659538510000142e-02,1.000000000000000000e+00
1.849853890000000001e-01,-2.526074766909999880e+00,5.296332018860000490e-01,-9.464147060650001109e+00,-2.893600147219999724e-03,-1.501734741029999917e-02,2.730557508770000211e-02,1.000000000000000000e+00
1.899843109999999891e-01,-2.421848230359999743e+00,5.211556251910000048e-01,-9.470814701849999295e+00,-4.583432339130000255e-03,9.498884901400000622e-03,1.500893849880000032e-03,1.000000000000000000e+00
1.949354600000000048e-01,-2.477133333600000320e+00,5.116745705430000291e-01,-9.482746547180001429e+00,-1.234462764110000159e-02,3.399441251529999961e-03,-1.573239266870000291e-02,1.000000000000000000e+00
2.000012369999999984e-01,-2.518523328609999723e+00,5.391750468110000361e-01,-9.464010282529999429e+00,-7.709275465460000212e-03,-3.198767779389999951e-03,-9.170120581979999269e-03,1.000000000000000000e+00
2.050193190000000054e-01,-2.508895376309999925e+00,5.392105930480000087e-01,-9.460397352730000264e+00,-1.697732368479999959e-03,1.571546867490000027e-02,-8.120094425979999114e-03,1.000000000000000000e+00
2.099820069999999983e-01,-2.531793436810000131e+00,5.222176649319999475e-01,-9.492963989810000669e+00,-3.845262341199999576e-03,3.048543119800000128e-03,1.295927725729999896e-02,1.000000000000000000e+00
2.149790289999999882e-01,-2.506633861120000084e+00,5.213493941979999713e-01,-9.463768290470000011e+00,2.967168111349999704e-04,8.250743150709999654e-03,1.148459315299999936e-02,1.000000000000000000e+00
2.199823609999999874e-01,-2.504355687050000334e+00,4.891226931250000076e-01,-9.478889871749998974e+00,-3.887599334120000159e-03,-7.217180915179999615e-03,6.120469886810000343e-03,1.000000000000000000e+00
2.249824669999999915e-01,-2.463223758459999857e+00,5.307697316350000749e-01,-9.466785592460000842e+00,-2.195721608590000206e-04,-3.024331759660000164e-03,-7.654776796699999664e-03,1.000000000000000000e+00
2.299969050000000015e-01,-2.517471773730000084e+00,5.094955094709999743e-01,-9.470067098350000379e+00,3.707984462379999846e-03,1.565946731720000210e-04,-1.713162660600000067e-02,1.000000000000000000e+00
2.349766189999999977e-01,-2.550551913300000084e+00,5.382631926630000452e-01,-9.432917809650000152e+00,-9.135901927949999918e-03,-4.097893834109999842e-03,4.577001091089999939e-03,1.000000000000000000e+00
2.399633599999999867e-01,-2.480323361820000017e+00,5.319223722689999656e-01,-9.471531910199999515e+00,-3.385479794820000338e-04,2.648298395800000298e-03,-1.087252167050000058e-03,1.000000000000000000e+00
2.449794989999999895e-01,-2.536658412500000015e+00,5.212519617049999887e-01,-9.474539275330000621e+00,-1.827935874459999874e-02,9.340384043750000337e-03,1.333956606690000005e-02,1.000000000000000000e+00
2.499483550000000109e-01,-2.486797526270000169e+00,5.309004818750000521e-01,-9.463562538759999754e+00,-2.930340822790000223e-03,-3.737249411639999644e-03,-3.052043030039999945e-03,1.000000000000000000e+00
2.549850289999999742e-01,-2.523503162849999981e+00,5.533227780960000564e-01,-9.469519985860001654e+00,1.175834052260000054e-02,-2.431366592649999840e-04,1.714055240149999979e-02,1.000000000000000000e+00
2.599569469999999938e-01,-2.493689039349999970e+00,4.913740522489999929e-01,-9.487676989319998810e+00,4.194642882790000117e-03,-1.690113171940000117e-02,1.366589777170000054e-02,1.000000000000000000e+00
2.649873409999999874e-01,-2.434146863180000064e+00,5.079794058190000294e-01,-9.482573528699999699e+00,-5.411684047430000838e-03,7.218671031300000207e-03,-7.213603705169999505e-03,1.000000000000000000e+00
2.699346429999999741e-01,-2.527840899799999708e+00,5.238667107810000001e-01,-9.439331183820000248e+00,-8.464884944260000696e-03,8.426502346989999878e-03,1.254990883170000078e-02,1.000000000000000000e+00
2.749820119999999979e-01,-2.465583765590000365e+00,5.245779277900000093e-01,-9.488664831310000380e+00,9.143867529929999155e-03,1.204723026600000059e-02,7.828839123250001114e-03,1.000000000000000000e+00
2.799788309999999836e-01,-2.448813832569999960e+00,5.391933496530000314e-01,-9.450499643569999719e+00,-1.540776528420000069e-02,-7.385147735479998844e-03,-7.100425194950000206e-03,1.000000000000000000e+00
2.849816700000000202e-01,-2.530976275210000015e+00,5.082580035649999495e-01,-9.468196628300001194e+00,7.858796976509999088e-03,-7.076861336829999918e-03,-5.499937105919999866e-04,1.000000000000000000e+00
2.899787229999999938e-01,-2.498531218680000165e+00,4.916216703340000049e-01,-9.463505840139999847e+00,8.591821417210000408e-03,-3.807663451880000300e-04,-7.011595182120000311e-03,1.000000000000000000e+00
2.949599359999999781e-01,-2.505722883749999852e+00,5.224091323839999967e-01,-9.474792957829999196e+00,-3.837459255010000191e-03,8.106161840259999349e-03,-4.078545607629999528e-03,1.000000000000000000e+00
2.999611810000000212e-01,-2.541065999809999809e+00,5.081743438689999559e-01,-9.478861230179999708e+00,1.921234466140000000e-02,-9.280078113080000857e-03,6.380354519929999635e-03,1.000000000000000000e+00
3.049480740000000134e-01,-2.492717563970000327e+00,5.179088252900000411e-01,-9.450516010179999427e+00,1.358153019099999845e-02,-5.705073475839999957e-03,-4.031309392300000058e-03,1.000000000000000000e+00
3.099637940000000147e-01,-2.503981008519999829e+00,5.346758722280000597e-01,-9.443068032260001132e+00,6.575905252249999479e-03,1.673487247899999985e-03,-1.587092317640000083e-02,1.000000000000000000e+00
3.149731049999999755e-01,-2.563297120840000165e+00,5.425961803659999916e-01,-9.487441427000000260e+00,-5.073122680189999165e-03,9.218951687219999191e-03,5.584740545600000439e-03,1.000000000000000000e+00
3.199883889999999842e-01,-2.490776659029999784e+00,5.236626395760000108e-01,-9.465399106539999607e+00,3.219008911400000374e-03,1.340362615879999927e-02,3.362469840789999997e-03,1.000000000000000000e+00
3.249935369999999990e-01,-2.473529756150000036e+00,5.141769818179999785e-01,-9.459536351980000646e+00,-8.182113058869998692e-03,1.108801225200000112e-03,-4.674722906199999667e-03,1.000000000000000000e+00
3.299887260000000100e-01,-2.507066115049999766e+00,4.830500952130000192e-01,-9.482032845950000066e+00,-8.209793828429999898e-03,9.106914512810000001e-03,5.319808144120000311e-03,1.000000000000000000e+00
3.349831329999999885e-01,-2.485161449500000064e+00,5.272592027629999789e-01,-9.459636305229999209e+00,-4.699141252789999432e-03,-2.796051558110000407e-03,3.320775460449999512e-03,1.000000000000000000e+00
3.399596069999999970e-01,-2.494407709009999863e+00,5.401098799760000180e-01,-9.494927983360000212e+00,-1.772668329070000012e-03,-3.849171334880000222e-03,-4.278892651199999592e-03,1.000000000000000000e+00
3.449634790000000173e-01,-2.537090081920000184e+00,5.252233860870000326e-01,-9.431379932560000512e+00,-1.953557599339999801e-03,-1.385378278789999897e-02,6.191458087409999755e-03,1.000000000000000000e+00
3.499676400000000243e-01,-2.461041738240000054e+00,5.078807677500000173e-01,-9.485552252250000649e+00,6.333253812039999972e-03,-4.250004421919999741e-03,9.390639141200000581e-03,1.000000000000000000e+00
3.549755940000000054e-01,-2.532201433090000009e+00,5.105040654590000671e-01,-9.498000814939999259e+00,1.112703047689999995e-02,-1.634147716690000172e-03,1.593396812680000080e-02,1.000000000000000000e+00
3.599611289999999908e-01,-2.448102615559999862e+00,5.236137589329999953e-01,-9.484519986589999618e+00,-1.437721773979999847e-02,-7.956506684420000183e-03,-7.464713416990000246e-03,1.000000000000000000e+00
3.649455529999999781e-01,-2.510900870910000027e+00,5.405099121440000154e-01,-9.463140513960000888e+00,-1.242014206949999984e-02,1.520358724520000067e-03,-7.217090111229999827e-03,1.000000000000000000e+00
3.699697590000000091e-01,-2.533974287979999573e+00,5.514531848320000096e-01,-9.442455453320000913e+00,-8.916907943790000970e-03,-1.417511422190000092e-02,-3.625476267190000032e-03,1.000000000000000000e+00
3.749740080000000253e-01,-2.531388070879999841e+00,5.594182454270000271e-01,-9.483145775630001495e+00,2.485369332130000011e-03,-1.798742078240000292e-02,-1.246526371690000147e-04,1.000000000000000000e+00
3.799623819999999874e-01,-2.490877781320000039e+00,5.296239226009999967e-01,-9.472245026910000476e+00,-6.304088048640000240e-03,6.531537510449999563e-03,4.453061614189999552e-03,1.000000000000000000e+00
3.849624830000000220e-01,-2.481459964629999959e+00,4.890841877459999876e-01,-9.481651737680000025e+00,-8.935552090410000051e-03,-4.185572266579999645e-03,6.932608317579999450e-03,1.000000000000000000e+00
3.899670769999999953e-01,-2.498378950729999826e+00,5.247712584049999407e-01,-9.496350709639999721e+00,1.602981588799999926e-03,2.328578149899999949e-03,-6.004138849680000847e-04,1.000000000000000000e+00
3.949562340000000171e-01,-2.508581488049999919e+00,5.499508539780000316e-01,-9.470434762620000058e+00,1.307959482070000096e-02,-1.664992794389999822e-02,3.621412906799999958e-04,1.000000000000000000e+00
3.999736830000000243e-01,-2.468965516979999997e+00,5.212392118219999482e-01,-9.479297868029998853e+00,3.080669324850000054e-03,-7.560120895500000576e-03,-6.311545148490000680e-03,1.000000000000000000e+00
4.049636750000000229e-01,-2.464285250210000111e+00,4.961263613419999996e-01,-9.484610002960000230e+00,3.784302622080000164e-03,4.974544979630000398e-03,-2.774495631460000260e-03,1.000000000000000000e+00
4.099731340000000168e-01,-2.525872522329999814e+00,5.000325384679999985e-01,-9.469806986110000935e+00,-6.366472691300000507e-03,1.139257801700000079e-03,2.324023284019999941e-03,1.000000000000000000e+00
4.149653389999999886e-01,-2.499761637259999780e+00,5.033745423719999668e-01,-9.490496138390000169e+00,3.129875753070000301e-03,1.978518208490000294e-03,8.186041377480000837e-04,1.000000000000000000e+00
4.199885999999999897e-01,-2.542162855140000399e+00,5.275870099459999407e-01,-9.451775654860000486e+00,7.945599965750000174e-03,-1.630779122930000116e-03,8.375147357579999785e-03,1.000000000000000000e+00
4.249632890000000218e-01,-2.467496028950000309e+00,5.750315922859999818e-01,-9.451994850560001993e+00,-7.036013994369999568e-04,2.302568638699999636e-03,-3.446838818489999980e-03,1.000000000000000000e+00
4.299712070000000219e-01,-2.492970077420000319e+00,5.081832943609999598e-01,-9.480111522499999666e+00,1.644860766829999918e-02,5.599463358520000850e-03,-2.869505202400000031e-03,1.000000000000000000e+00
4.349644489999999752e-01,-2.491349782740000407e+00,5.037890779899999449e-01,-9.442769341580000031e+00,9.296691976489999260e-03,9.752405807379998376e-03,-8.834816515450000934e-03,1.000000000000000000e+00
4.399845250000000152e-01,-2.549499773900000044e+00,5.144881301259999207e-01,-9.447343225370000042e+00,-4.381490871310000750e-03,-4.614753648640000303e-03,1.004878617820000042e-02,1.000000000000000000e+00
4.449907759999999768e-01,-2.432425884609999756e+00,5.211722475330000659e-01,-9.484264550529999838e+00,-7.181607652460000532e-03,4.803729243579999558e-03,-1.184579171239999971e-02,1.000000000000000000e+00
4.499600460000000024e-01,-2.552889708590000417e+00,5.453710153740000122e-01,-9.463477198570000581e+00,5.389680154619999365e-06,7.248515263199999635e-03,-5.034742876889999885e-03,1.000000000000000000e+00
4.549878640000000196e-01,-2.495708562479999948e+00,5.189873777740000582e-01,-9.463829080739998290e+00,1.360524632040000133e-02,-7.044054567810000521e-03,2.906228881330000149e-03,1.000000000000000000e+00
4.599640119999999777e-01,-2.456513154900000107e+00,5.225449241249999766e-01,-9.460591998519999990e+00,5.090973339970000441e-03,-6.461689714340000841e-03,-3.612747881559999832e-03,1.000000000000000000e+00
4.649531630000000026e-01,-2.494122170069999811e+00,4.913148328749999960e-01,-9.503930789510000920e+00,3.670908976350000050e-03,-2.222936833280000132e-03,-1.035302295349999980e-03,1.000000000000000000e+00
4.699535690000000154e-01,-2.482541914650000070e+00,5.562373869009999972e-01,-9.428891622869999267e+00,1.478548743759999871e-03,-1.381946075709999944e-02,-1.043171249329999904e-02,1.000000000000000000e+00
4.749899169999999837e-01,-2.538027947289999808e+00,5.154367360880000026e-01,-9.473699317370000372e+00,3.666990436610000504e-03,-2.122459234670000163e-03,4.401980433609999251e-03,1.000000000000000000e+00
4.800274019999999919e-01,-2.496394791170000182e+00,5.248811850529999656e-01,-9.479876544699999741e+00,-9.855101816360000225e-03,-9.795798920090000375e-03,5.182346794750000403e-04,1.000000000000000000e+00
4.850238579999999744e-01,-2.504157241870000217e+00,5.347566823789999813e-01,-9.438200718490000085e+00,-4.594143829310000089e-04,-9.732435457409999852e-03,7.320586591960000352e-04,1.000000000000000000e+00
4.899631070000000088e-01,-2.522664666199999850e+00,5.369346474730000152e-01,-9.465373972100000088e+00,-2.280208049340000116e-03,-1.506526116279999911e-02,5.482245702300000446e-03,1.000000000000000000e+00
4.949902509999999922e-01,-2.479882047790000321e+00,5.429865679230000408e-01,-9.451245493500000094e+00,4.367621615529999717e-03,5.251341499390000354e-03,-9.071249514819999110e-03,1.000000000000000000e+00
4.999658499999999894e-01,-2.500897655550000209e+00,5.236012647779999529e-01,-9.483898639819999588e+00,3.178936429320000385e-03,-3.597786417229999634e-03,-2.745244186369999711e-03,1.000000000000000000e+00
5.049665920000000474e-01,-2.502158177009999651e+00,5.178347736730000150e-01,-9.463540326930001356e+00,-1.872103544880000022e-03,-6.368871778249999942e-03,3.594839945440000007e-03,1.000000000000000000e+00
5.099921499999999774e-01,-2.512241179600000152e+00,5.214302408820000734e-01,-9.472273668479999742e+00,-4.330767318609999618e-03,9.444355964659999431e-05,4.517084453250000127e-04,1.000000000000000000e+00
5.149904640000000366e-01,-2.505937111020000163e+00,5.093847791050000184e-01,-9.483370816560000804e+00,-1.024589594450000044e-02,6.277656182649999674e-03,1.910248305650000126e-03,1.000000000000000000e+00
5.200144970000000200e-01,-2.501578623549999936e+00,5.273148054080000202e-01,-9.479476147210000647e+00,6.356211844829999860e-03,-3.197431098670000266e-03,-6.630949676039999720e-03,1.000000000000000000e+00
5.250134619999999863e-01,-2.529211895890000061e+00,4.938505253650000149e-01,-9.492724920360000596e+00,1.248264499010000132e-02,-9.305479470639999159e-04,5.333654116840000521e-03,1.000000000000000000e+00
5.300017639999999863e-01,-2.544346044390000117e+00,5.333851382980000500e-01,-9.478579490630000493e+00,1.641596667470000132e-02,-7.900209166109999070e-03,2.177657093849999764e-03,1.000000000000000000e+00
5.350043199999999777e-01,-2.476897479020000237e+00,5.201491880949999924e-01,-9.468504086819999443e+00,-3.322353120889999945e-03,9.212497621770000117e-03,-1.299146213569999948e-03,1.000000000000000000e+00
5.400108569999999553e-01,-2.495990886550000010e+00,5.200666243779999975e-01,-9.482503970599999832e+00,-1.388347824099999892e-03,-8.243175223470001339e-03,-5.521441344169999554e-04,1.000000000000000000e+00
5.449852509999999484e-01,-2.496594989920000174e+00,5.179276395880000328e-01,-9.448347433969999543e+00,-7.091778796169999691e-03,6.311358883979998995e-03,8.464718237519999744e-03,1.000000000000000000e+00
5.500273970000000290e-01,-2.506002285210000124e+00,5.224636390500000394e-01,-9.491298102430000938e+00,-1.145641878250000002e-02,1.279981620610000023e-02,9.026620537039999450e-04,1.000000000000000000e+00
5.550364700000000040e-01,-2.481874098390000061e+00,5.393361556569999937e-01,-9.456303361410000718e+00,8.558985777199998660e-03,-1.859573461119999951e-02,-7.182164583359999625e-03,1.000000000000000000e+00
5.600031450000000355e-01,-2.528886609459999768e+00,5.418993937410000461e-01,-9.435974859129999004e+00,1.383029273710000007e-03,1.016439404340000081e-02,7.533517200500000274e-03,1.000000000000000000e+00
5.650221829999999557e-01,-2.449622664740000122e+00,5.107918328909999417e-01,-9.443835509510000392e+00,4.719721619039999455e-03,1.867033727470000098e-02,-1.958634704350000096e-03,1.000000000000000000e+00
5.700122810000000095e-01,-2.525184832329999907e+00,5.133390331560000464e-01,-9.448142851310000978e+00,-1.304347720000000044e-02,-2.045563887799999991e-03,-2.194956410680000067e-03,1.000000000000000000e+00
5.750367779999999707e-01,-2.484305124930000108e+00,5.034176508619999657e-01,-9.481253678270000762e+00,2.046098932619999991e-03,-4.413735587149999421e-04,-6.321307271719999767e-03,1.000000000000000000e+00
5.800112610000000002e-01,-2.491604342029999586e+00,5.214324693709999625e-01,-9.456655243589999316e+00,-1.732023619120000302e-02,1.017870474609999971e-02,-1.052898121999999975e-03,1.000000000000000000e+00
5.850522479999999970e-01,-2.499186467719999971e+00,4.962589382129999893e-01,-9.490288048600000081e+00,1.020358642560000072e-03,-1.465396839189999929e-03,-5.594130605459999954e-03,1.000000000000000000e+00
5.900158359999999602e-01,-2.534595342490000291e+00,5.285511057370000376e-01,-9.469098545580001414e+00,7.648936007169999246e-03,-8.928743191059998821e-03,8.824219927190001325e-03,1.000000000000000000e+00
5.949676050000000105e-01,-2.508751583920000083e+00,5.240369162489999511e-01,-9.444925642830000356e+00,-2.428983105350000001e-03,-9.583818726239999586e-03,5.182779859750000565e-03,1.000000000000000000e+00
5.999872990000000295e-01,-2.511547352120000021e+00,5.166501304659999461e-01,-9.472411615650001337e+00,3.967627882959999866e-03,-6.308580283079999809e-03,4.696922842409999473e-03,1.000000000000000000e+00
6.049855530000000092e-01,-2.495563308789999990e+00,5.190367698740000479e-01,-9.477940023680000436e+00,3.976467996839999890e-04,-1.160239707679999906e-02,-1.185681670900000026e-02,1.000000000000000000e+00
6.099997270000000471e-01,-2.542465929740000075e+00,5.262171828970000353e-01,-9.460939789039999326e+00,-1.642051339150000025e-02,1.654313877220000076e-02,1.022765226660000103e-02,1.000000000000000000e+00
6.149712389999999473e-01,-2.465085460670000117e+00,5.178049995889999479e-01,-9.470452882800000083e+00,1.448888913729999822e-03,4.035943187770000239e-03,-6.614262238140000000e-03,1.000000000000000000e+00
6.200170640000000066e-01,-2.541942490379999864e+00,4.797830197090000026e-01,-9.475462235389999321e+00,4.993136506529999817e-03,-1.536351162940000070e-03,3.819087985900000183e-03,1.000000000000000000e+00
6.250131039999999860e-01,-2.511340723630000049e+00,5.022455383420000308e-01,-9.486684471149999354e+00,-4.525732249020000125e-03,2.550839213650000093e-03,4.309303127229999544e-03,1.000000000000000000e+00
6.300150930000000260e-01,-2.501880821369999897e+00,5.252858933959999588e-01,-9.440024426789998202e+00,-7.601579185579999953e-03,4.782526753839999589e-03,-5.258852615949998963e-03,1.000000000000000000e+00
6.350263449999999921e-01,-2.499327629759999780e+00,5.132266222899999342e-01,-9.446769809389998329e+00,3.858560230580000759e-04,-1.198310498150000070e-02,-9.861933067440000009e-04,1.000000000000000000e+00
6.400114489999999545e-01,-2.458033204079999923e+00,5.214794503180000262e-01,-9.446268289610001645e+00,-1.030165608970000021e-02,2.169010229409999713e-02,-6.716706790029999992e-03,1.000000000000000000e+00
6.450052219999999892e-01,-2.499874449980000080e+00,5.167979779710000221e-01,-9.447885077160000478e+00,-4.305147100239999948e-03,-6.948294118050000155e-03,-3.967769909649999753e-03,1.000000000000000000e+00
6.500394480000000197e-01,-2.525446698140000112e+00,5.261426928890000632e-01,-9.471535417340000151e+00,-1.284887548540000063e-04,6.452619098130000369e-03,6.983367260549999851e-03,1.000000000000000000e+00
6.550054100000000101e-01,-2.498638770709999957e+00,5.108411519259999922e-01,-9.453489473039999424e+00,3.345526754860000170e-03,-4.104807041589999921e-03,3.554882947360000003e-03,1.000000000000000000e+00
6.600145240000000468e-01,-2.515947340639999918e+00,4.990077985299999908e-01,-9.448486550180000165e+00,1.785233034749999972e-03,-1.457549165930000033e-03,6.421469617639999870e-03,1.000000000000000000e+00
6.650074059999999676e-01,-2.509907768220000168e+00,5.058822508770000059e-01,-9.477274837769998683e+00,-5.179992411289999904e-03,-3.907148726280000595e-03,8.054692298169999556e-03,1.000000000000000000e+00
6.700363049999999987e-01,-2.502479664049999997e+00,5.348127964809999968e-01,-9.427743621880001257e+00,1.474962336939999953e-04,-5.967918783430000568e-03,1.230964437129999922e-02,1.000000000000000000e+00
6.750140839999999587e-01,-2.510677583549999703e+00,5.061459067819999991e-01,-9.450753326070000071e+00,-4.848222248260000353e-03,-8.564035408199999200e-03,9.495066478849999506e-03,1.000000000000000000e+00
6.800070190000000458e-01,-2.507656189900000054e+00,5.297840085330000059e-01,-9.479918630280000258e+00,-3.934520646000000182e-04,1.796508207920000100e-02,-9.346270933750001203e-03,1.000000000000000000e+00
6.849830919999999601e-01,-2.540532623590000316e+00,5.177797920830000677e-01,-9.486244910689999088e+00,3.309388644989999691e-03,-5.439545493570000249e-04,-3.604837926100000131e-03,1.000000000000000000e+00
6.900036670000000427e-01,-2.461666007619999874e+00,5.358747996889999810e-01,-9.432063823169999139e+00,4.261531401430000178e-03,2.743392018599999892e-03,-7.346178404989999085e-03,1.000000000000000000e+00
6.950140160000000122e-01,-2.532670219649999943e+00,5.226936849459999923e-01,-9.467720242960000476e+00,-2.049996145070000220e-02,-8.522953838109999583e-03,3.604815807190000099e-03,1.000000000000000000e+00
6.999873709999999694e-01,-2.523057757170000137e+00,5.036832795279999608e-01,-9.467434996279999737e+00,9.707063436510000171e-03,5.797121673820000362e-03,7.058836985379999575e-03,1.000000000000000000e+00
7.050031350000000030e-01,-2.488278704739999903e+00,5.273496575260000485e-01,-9.471526064989999938e+00,-5.986424162979999027e-03,7.137313485149999331e-03,5.169643554840000141e-03,1.000000000000000000e+00
7.099652480000000487e-01,-2.524777128309999785e+00,5.155897346919999791e-01,-9.465965508250000937e+00,-3.640151117000000290e-03,2.792026614770000068e-03,9.599925950170000444e-03,1.000000000000000000e+00
7.149864879999999756e-01,-2.469465283189999916e+00,5.167480378819999665e-01,-9.465095739680000619e+00,-1.364334765820000156e-02,1.530998945240000068e-02,-8.670100010929999990e-03,1.000000000000000000e+00
7.200312169999999456e-01,-2.506732060790000105e+00,5.118189109170000473e-01,-9.481968548550000264e+00,8.789827115830000162e-03,-8.335242979229998822e-03,-4.344095475970000467e-03,1.000000000000000000e+00
7.250037030000000549e-01,-2.528043436629999974e+00,5.311329754570000006e-01,-9.453207733490000209e+00,-2.397179603579999933e-03,-1.559631899000000002e-03,6.167226936670000721e-03,1.000000000000000000e+00
7.299860139999999609e-01,-2.495131054850000307e+00,5.357617677689999747e-01,-9.467592817189999010e+00,4.165064543489999105e-03,3.190175397320000206e-03,5.257842130959999990e-04,1.000000000000000000e+00
7.350277689999999975e-01,-2.534831489340000132e+00,5.309130490960000115e-01,-9.477148581039999797e+00,1.592297921889999999e-03,-1.226190011950000066e-03,1.629413664340000067e-02,1.000000000000000000e+00
7.399911689999999487e-01,-2.467674308119999882e+00,5.109895474210000010e-01,-9.446893728030000048e+00,4.995253402739999182e-03,-6.332958117130000654e-03,-7.181410212070000500e-03,1.000000000000000000e+00
7.450343969999999594e-01,-2.511830260709999596e+00,5.202883773699999992e-01,-9.461977899919999047e+00,9.894674643870001590e-03,-1.813784800470000236e-02,4.112776368860000115e-03,1.000000000000000000e+00
7.500131169999999514e-01,-2.481213004129999788e+00,5.251568236570000048e-01,-9.451139695040000177e+00,-1.722004031759999864e-03,7.087279111149999075e-03,-2.588454168290000006e-03,1.000000000000000000e+00
7.550078319999999898e-01,-2.533754215490000128e+00,5.204420335620000282e-01,-9.458580658700000754e+00,-8.901985362169999999e-03,3.812533104789999922e-03,2.198180183770000184e-03,1.000000000000000000e+00
7.599837329999999946e-01,-2.498776133350000261e+00,5.429527387189999610e-01,-9.467208786309999624e+00,-7.247812114659999555e-03,9.509536437690001287e-03,-8.845361880959998896e-03,1.000000000000000000e+00
7.649953470000000477e-01,-2.529869483010000142e+00,5.321000303909999563e-01,-9.479403081970000144e+00,4.349705763159999322e-03,2.274940954519999968e-03,1.957870554180000076e-03,1.000000000000000000e+00
7.700268190000000290e-01,-2.496422263699999977e+00,5.203376964050000497e-01,-9.462717320110000330e+00,-9.020788595079999236e-03,8.438902907069998835e-03,-2.535520121459999918e-03,1.000000000000000000e+00
7.749915529999999997e-01,-2.513293903529999707e+00,5.201163452709999246e-01,-9.494488422899999946e+00,5.190513562410000413e-03,9.888967499139998674e-03,-6.078767124560000013e-03,1.000000000000000000e+00
7.800386099999999656e-01,-2.526013684370000068e+00,5.321812424009999543e-01,-9.464298451819999514e+00,9.608129039409999544e-03,-9.411208331580000336e-03,9.815532714130000003e-03,1.000000000000000000e+00
7.850128459999999864e-01,-2.498159462759999894e+00,5.179154376940000581e-01,-9.476403315630001600e+00,6.858350243420000339e-03,-1.404654816719999979e-03,-4.488375503570000112e-03,1.000000000000000000e+00
7.899887230000000038e-01,-2.508417529659999978e+00,5.298370538950000208e-01,-9.461790268390000591e+00,-4.473914857949999949e-03,4.263657145200000151e-03,5.877607036379999678e-04,1.000000000000000000e+00
7.950133959999999833e-01,-2.508637894410000069e+00,5.059468040129999622e-01,-9.483574814700000744e+00,8.739530108870002117e-03,-2.224310301240000134e-04,-6.651839241389999671e-03,1.000000000000000000e+00
7.999900049999999485e-01,-2.527468267090000165e+00,4.988407348680000131e-01,-9.472149749839999799e+00,1.156642916609999967e-03,-2.599698491389999984e-03,5.427700933070000316e-03,1.000000000000000000e+00
8.049825609999999854e-01,-2.514013449970000202e+00,5.202470224459999626e-01,-9.482350825860001109e+00,-3.200488630680000009e-03,-7.363015785810000935e-03,-1.392051810399999980e-03,1.000000000000000000e+00
8.099631069999999600e-01,-2.539593881430000089e+00,5.289103309709999312e-01,-9.440840419339998846e+00,-7.070290157570000575e-04,-8.225836791100000274e-05,8.011262863869999737e-03,1.000000000000000000e+00
8.149850859999999697e-01,-2.500261403470000143e+00,5.179715883280000543e-01,-9.461489824139999172e+00,-3.911279607559999850e-03,6.162277422849999665e-04,5.171633791180000120e-03,1.000000000000000000e+00
8.200110330000000003e-01,-2.507177758730000150e+00,5.128532954660000032e-01,-9.507660039159999243e+00,1.919264323079999989e-03,2.323645865539999966e-03,2.605791669340000298e-04,1.000000000000000000e+00
8.250339770000000295e-01,-2.496994802890000198e+00,5.404719547540000057e-01,-9.466853981519999905e+00,3.043480217459999977e-03,2.354020951320000277e-03,3.253544215110000266e-03,1.000000000000000000e+00
8.300088679999999552e-01,-2.527254039819999853e+00,5.405499518930000358e-01,-9.466260691799998739e+00,-1.366881188010000059e-03,2.383051905779999579e-04,1.130580157039999881e-02,1.000000000000000000e+00
8.350156090000000475e-01,-2.460202072550000008e+00,5.322763368060000611e-01,-9.442402846349999379e+00,4.043581429869999924e-03,5.521366372699999109e-03,7.098256144669999775e-03,1.000000000000000000e+00
8.400433170000000116e-01,-2.480743048529999939e+00,5.299356188980000049e-01,-9.449897586020000517e+00,1.426771003749999905e-02,1.710480079050000213e-02,-1.304729492400000246e-03,1.000000000000000000e+00
8.450265500000000429e-01,-2.544755794240000313e+00,5.263792781239999830e-01,-9.465383324450000302e+00,-1.666106469929999959e-02,-3.348297206680000016e-03,2.133700065310000123e-03,1.000000000000000000e+00
8.499890260000000364e-01,-2.595496385920000204e+00,5.235216236699999914e-01,-9.547013559910000779e+00,-1.906286925079999782e-04,1.160035189239999945e-02,-1.027513179000000016e-03,1.000000000000000000e+00
8.550104269999999618e-01,-2.445275429310000082e+00,5.016514083740000185e-01,-9.396448319910000180e+00,-5.789806134999999666e-03,1.300792954860000017e-02,9.983533527699998446e-04,1.000000000000000000e+00
8.600052289999999822e-01,-2.327575517080000100e+00,5.235389035990000162e-01,-9.571538344829999545e+00,-3.807551227510000587e-03,5.749497562649999623e-03,-2.149924170230000341e-03,1.000000000000000000e+00
8.650265249999999906e-01,-2.542661452309999959e+00,5.065314720329999743e-01,-9.423409392070000834e+00,-2.893620170650000167e-03,-9.387623518709999754e-03,-1.103283255359999897e-03,1.000000000000000000e+00
8.700293949999999832e-01,-2.544451550599999834e+00,4.835323257720000045e-01,-9.460841589360001080e+00,-9.156308951789998967e-04,-2.365480177099999696e-03,1.159565523269999975e-02,1.000000000000000000e+00
8.749885619999999697e-01,-2.462424424770000009e+00,5.378273950620000576e-01,-9.495601937100000001e+00,-9.278710931540000428e-03,2.874921308829999668e-03,-6.600068882109998494e-04,1.000000000000000000e+00
8.800296730000000123e-01,-2.548878719390000214e+00,5.597863115550000268e-01,-9.463713929929999935e+00,1.302215084429999767e-02,-1.173158455640000049e-02,-7.653208915140000124e-03,1.000000000000000000e+00
8.850074549999999984e-01,-2.502334118099999838e+00,5.428149742160000013e-01,-9.466028052089999534e+00,8.148648776110000574e-03,1.408167555930000051e-02,4.185003694150000141e-03,1.000000000000000000e+00
8.900258840000000449e-01,-2.501699035059999687e+00,4.987823192109999693e-01,-9.480394431100000574e+00,-1.478012418369999787e-03,3.466496942560000002e-03,1.283488702030000051e-03,1.000000000000000000e+00
8.950071720000000175e-01,-2.484551500909999877e+00,4.688342671280000262e-01,-9.495177574210000415e+00,1.049621845600000108e-03,-5.776619538659999616e-03,1.572812907400000012e-03,1.000000000000000000e+00
8.999861110000000330e-01,-2.486484222530000121e+00,5.383294993649999638e-01,-9.440523023960000870e+00,1.104143797419999962e-03,-9.967395104469999045e-03,-1.993748825039999908e-03,1.000000000000000000e+00
9.051646380000000214e-01,-2.516869423930000238e+00,5.248540778499999337e-01,-9.491331420169998978e+00,1.517678494570000140e-03,-2.050947770479999779e-02,3.039894625539999590e-03,1.000000000000000000e+00
9.099899799999999761e-01,-2.528973995479999903e+00,5.310309763870000310e-01,-9.470679677290000598e+00,2.979472279550000272e-03,-8.280729874969999793e-03,7.003718521450000289e-03,1.000000000000000000e+00
9.149852729999999879e-01,-2.516760410590000330e+00,5.217836939619999725e-01,-9.445174064630000643e+00,1.855654758399999903e-03,-4.357505124060000352e-03,-2.010690281169999916e-03,1.000000000000000000e+00
9.199849199999999838e-01,-2.512414490340000306e+00,5.070856353170000164e-01,-9.483967028889999540e+00,-1.687336713079999953e-02,4.805974662300000616e-03,-6.059231236579999290e-04,1.000000000000000000e+00
9.249854180000000037e-01,-2.470597209829999752e+00,4.737634671579999956e-01,-9.478305349860001172e+00,1.326456200329999974e-02,1.644298806790000025e-02,-1.102396473289999831e-02,1.000000000000000000e+00
9.299607220000000174e-01,-2.537494571059999870e+00,5.046955983759999764e-01,-9.486264784430000319e+00,-1.144156046210000055e-02,5.969879217449999831e-03,1.925329212100000036e-03,1.000000000000000000e+00
9.350025199999999481e-01,-2.492669925429999989e+00,5.512754171120000102e-01,-9.462833639960001264e+00,-1.092799566689999988e-02,-7.273229770359999728e-03,-6.342864595350000342e-03,1.000000000000000000e+00
9.399862079999999898e-01,-2.519616969069999879e+00,5.299769372899999498e-01,-9.454040677180000074e+00,-6.610880605880000219e-03,-1.984261162580000168e-02,-5.913324188439999900e-03,1.000000000000000000e+00
9.449854600000000548e-01,-2.522107032320000108e+00,5.242161452729999782e-01,-9.432524426419998775e+00,-9.071964770559999558e-03,1.419043401259999877e-03,-4.233360756189999755e-03,1.000000000000000000e+00
9.499869090000000460e-01,-2.587204358390000181e+00,4.848226213110000127e-01,-9.464540443880000709e+00,9.814328514040000437e-03,3.892422886570000122e-03,1.135802455250000190e-02,1.000000000000000000e+00
9.550001870000000004e-01,-2.494655546290000192e+00,4.976709604360000094e-01,-9.466419681760001481e+00,1.315720961430000106e-03,7.998903281989998976e-03,1.097790524359999915e-02,1.000000000000000000e+00
9.600050490000000547e-01,-2.456776482009999540e+00,5.403424100899999472e-01,-9.477868127489999850e+00,-6.182032171640000455e-03,-2.726905280719999717e-03,-1.671222504229999970e-03,1.000000000000000000e+00
9.650081169999999986e-01,-2.530219319359999997e+00,5.642923908019999990e-01,-9.473460247919998523e+00,-6.737203802910000407e-03,-4.846120718869999754e-03,5.637537222359999961e-03,1.000000000000000000e+00
9.699840560000000389e-01,-2.525513041369999989e+00,5.620559004540000014e-01,-9.458988654969999743e+00,8.966820314529999614e-03,-1.052507944409999951e-02,8.108437061310000069e-03,1.000000000000000000e+00
9.749669359999999507e-01,-2.476175302229999708e+00,5.190966833679999670e-01,-9.470902380130000964e+00,5.521184764800000401e-03,-1.348387449979999986e-02,-9.455669671299998108e-03,1.000000000000000000e+00
9.799847529999999862e-01,-2.533257956409999512e+00,5.393824059509999547e-01,-9.462742454549999849e+00,-4.560128785670000510e-03,6.458654999729998743e-03,2.872681245210000067e-03,1.000000000000000000e+00
9.849879689999999632e-01,-2.504505324650000198e+00,5.203524921150000093e-01,-9.463719190630000000e+00,-4.661964252590000343e-03,2.991029759869999905e-03,-8.371266303580000585e-04,1.000000000000000000e+00
9.899933950000000538e-01,-2.502019353060000117e+00,5.116363939570000019e-01,-9.498945402310001285e+00,-1.165029313420000087e-02,-1.289144717160000016e-02,6.266153883189999434e-03,1.000000000000000000e+00
9.949880890000000200e-01,-2.487037764759999714e+00,5.415042934759999316e-01,-9.487001282019999593e+00,-1.520177070049999989e-02,-1.802871935070000237e-02,1.724166329949999897e-03,1.000000000000000000e+00
9.999931549999999669e-01,-2.485956691529999762e+00,5.474461046149999843e-01,-9.491538925449999553e+00,6.312464363870000372e-03,-1.733189681539999997e-03,-8.208844810719999677e-03,1.000000000000000000e+00
1.004984507000000082e+00,-2.506093178370000008e+00,5.499049690089999887e-01,-9.470888936130000602e+00,-5.982136353850000393e-03,-8.472353219989998616e-03,6.205953191969999956e-03,1.000000000000000000e+00
1.009967314999999921e+00,-2.532726041490000135e+00,5.358351617979999482e-01,-9.464787112119999790e+00,-7.396327564489998431e-04,-4.997309297319999476e-03,1.274145580829999860e-02,1.000000000000000000e+00
1.015052065999999975e+00,-2.473423665429999918e+00,5.023467336949999362e-01,-9.479333523870000278e+00,-4.111892078069999922e-03,6.649097427729999503e-03,-2.715434180570000435e-03,1.000000000000000000e+00
1.020051856000000035e+00,-2.451906537890000237e+00,5.690402429159999720e-01,-9.446823000880000265e+00,-7.506029214709999779e-03,-2.737404080110000370e-03,-1.096547115589999828e-03,1.000000000000000000e+00
1.025025628000000077e+00,-2.491005791609999687e+00,5.393261822520000193e-01,-9.455369879960001001e+00,-7.006878964600000807e-03,-6.612999830390000298e-03,6.780645344409999727e-03,1.000000000000000000e+00
1.030013921000000110e+00,-2.458488838890000139e+00,5.203226084330000445e-01,-9.452803244339998301e+00,9.601105935869999955e-03,8.409426547590000481e-03,-2.683523111050000083e-03,1.000000000000000000e+00
1.034983721999999995e+00,-2.510063251040000054e+00,5.117778482540000784e-01,-9.479580192100000247e+00,6.473148241640000293e-03,-3.444560337810000181e-03,3.668022342030000191e-03,1.000000000000000000e+00
1.039984629999999965e+00,-2.510324532329999858e+00,5.083268310170000470e-01,-9.471977900409999762e+00,4.370956681669999587e-03,1.064561540260000041e-03,2.814839128400000237e-03,1.000000000000000000e+00
1.044989538999999912e+00,-2.510661509199999752e+00,5.200573085609999646e-01,-9.490363451919998639e+00,4.667303524909999397e-03,6.298245862130000912e-04,2.814038190989999466e-03,1.000000000000000000e+00
1.050016888999999898e+00,-2.496075349959999912e+00,5.272298670709999469e-01,-9.485682600630001460e+00,-6.397305056449999888e-03,-7.681442424650000191e-03,-3.948002122340000045e-03,1.000000000000000000e+00
1.055012459999999930e+00,-2.486101068440000006e+00,5.369745776250000047e-01,-9.438315284779999814e+00,4.011449636889999988e-04,8.327778428789999257e-03,9.974677115679999803e-03,1.000000000000000000e+00
1.060035381000000054e+00,-2.473695175850000094e+00,5.297918265140000305e-01,-9.462018816449999647e+00,1.190727762879999901e-02,-5.915261805060000218e-03,-5.093815270810000094e-03,1.000000000000000000e+00
1.065025155000000057e+00,-2.539728613729999918e+00,5.238811046319999942e-01,-9.466151386210000851e+00,-8.741104044020000727e-03,-7.618786767130000803e-03,3.080611582850000061e-03,1.000000000000000000e+00
1.069998873999999933e+00,-2.444774640179999903e+00,5.201010381039999908e-01,-9.473308856750000118e+00,-4.466764163229999633e-03,-4.836152773350000170e-03,-1.584705151620000030e-02,1.000000000000000000e+00
1.074991685999999946e+00,-2.524690034550000295e+00,5.368725785549999241e-01,-9.465846265780001545e+00,-3.215131815520000033e-03,-1.382594276220000182e-02,-1.811578404160000275e-03,1.000000000000000000e+00
1.080026136000000081e+00,-2.503421036549999812e+00,5.498298579470000114e-01,-9.481384026660000686e+00,6.680031772699999808e-03,-7.500116713350000845e-03,2.435809001330000063e-04,1.000000000000000000e+00
1.085083495999999981e+00,-2.516352414310000007e+00,5.068719195009999678e-01,-9.501089428600000275e+00,6.936205085370000106e-03,-4.331774543970000162e-03,4.240391775969999666e-03,1.000000000000000000e+00
1.089993476000000072e+00,-2.464287003769999984e+00,5.562384098149999456e-01,-9.429998122809999828e+00,-8.038379251959999749e-03,-1.346397213640000050e-03,-1.597122289240000131e-02,1.000000000000000000e+00
1.094989596000000009e+00,-2.550302030190000124e+00,5.238419051329999965e-01,-9.473153373929999788e+00,5.932582076639999515e-03,-9.307627566159999699e-03,-5.466638598589999842e-03,1.000000000000000000e+00
1.099985336999999896e+00,-2.514331722140000114e+00,5.380217485899999597e-01,-9.469503619250000170e+00,-6.627294234929999653e-03,-1.517125964160000000e-02,4.512642510240000293e-03,1.000000000000000000e+00
1.104959741000000051e+00,-2.516718617280000014e+00,5.596572418149999839e-01,-9.451217436449999454e+00,-3.575625363739999736e-03,6.481077522039999789e-03,6.151390727610000532e-03,1.000000000000000000e+00
1.110003303999999913e+00,-2.491468732950000042e+00,5.248684351690000582e-01,-9.481087674059999415e+00,1.084359455849999952e-02,-1.069340854879999997e-02,7.746741175649999884e-05,1.000000000000000000e+00
1.114993010000000062e+00,-2.476963822259999670e+00,5.322132815069999801e-01,-9.452807920510000628e+00,-1.529728900639999896e-02,-1.062972377989999939e-02,-8.166899904609999788e-03,1.000000000000000000e+00
1.119991638999999983e+00,-2.531269705200000164e+00,5.213583446889999973e-01,-9.476163661659999349e+00,6.809175247330000657e-04,5.087650381030000071e-03,3.833661321550000094e-03,1.000000000000000000e+00
1.125005735000000007e+00,-2.506189039959999754e+00,5.070191459520000388e-01,-9.484368595419999437e+00,-6.062978878620000657e-03,6.633368320760000755e-03,2.307311166079999837e-03,1.000000000000000000e+00
1.129980358000000074e+00,-2.497449560920000255e+00,5.307787186590000594e-01,-9.497009465810000606e+00,9.557066485290000371e-03,-5.978896282609998808e-03,-1.508758775889999966e-02,1.000000000000000000e+00
1.135004898999999901e+00,-2.536046418080000198e+00,5.323084489769999150e-01,-9.444283837800000470e+00,-5.585672799499999917e-03,-1.680862740609999958e-03,3.754271660000000396e-03,1.000000000000000000e+00
1.139988226000000049e+00,-2.512574064819999897e+00,4.950986257299999638e-01,-9.493401212189999328e+00,-7.676194887610000156e-03,-2.185054123399999930e-03,-1.948349876329999930e-03,1.000000000000000000e+00
1.145011377999999969e+00,-2.534644442329999858e+00,5.271901561149999749e-01,-9.490452883770000625e+00,-6.394748343150000180e-04,-8.820346556599999990e-05,1.058175042270000088e-02,1.000000000000000000e+00
1.149979990999999924e+00,-2.476446812640000328e+00,5.329760825729999985e-01,-9.500634086050000704e+00,6.613065954299999702e-03,-1.617567241189999880e-02,3.842858131969999376e-03,1.000000000000000000e+00
1.155007961999999999e+00,-2.511130588009999887e+00,5.392413169799999961e-01,-9.464825106039999270e+00,-1.544459350409999911e-02,9.995922446250001328e-03,1.367035694420000100e-02,1.000000000000000000e+00
1.160027641999999970e+00,-2.476976389479999874e+00,5.167180811349999514e-01,-9.464093869160000949e+00,-2.394968271259999976e-02,1.067656930539999903e-02,-3.862768411639999795e-03,1.000000000000000000e+00
1.164983990999999941e+00,-2.489367376760000194e+00,5.345758459199999590e-01,-9.455176403210000302e+00,-9.129869751630000085e-03,-1.443632179869999786e-03,-6.377406418319999694e-03,1.000000000000000000e+00
1.170034106999999990e+00,-2.502815764129999732e+00,5.307729099729999733e-01,-9.480338316989998404e+00,1.427681930360000066e-02,-1.121998578309999980e-02,3.378556575630000053e-04,1.000000000000000000e+00
1.175067284000000045e+00,-2.503931031900000104e+00,5.128681277090000323e-01,-9.481812481200000420e+00,9.008665569129999107e-03,9.815494995560000453e-04,1.479494012889999953e-02,1.000000000000000000e+00
1.179935315000000040e+00,-2.477439038550000028e+00,5.240406425760000264e-01,-9.437097141160000646e+00,-4.374118521810000347e-03,2.032464137299999814e-03,4.307487979530000115e-03,1.000000000000000000e+00
1.184959451000000108e+00,-2.466182900520000221e+00,5.273139651579999976e-01,-9.467224568400000706e+00,7.232350762929999795e-03,-9.034703485670000575e-03,-7.054293062540000631e-03,1.000000000000000000e+00
1.189986739999999932e+00,-2.546587393579999858e+00,5.200234062910000787e-01,-9.493976381730000469e+00,-4.208452999589999861e-03,-1.347719598560000002e-02,1.150193624199999896e-02,1.000000000000000000e+00
1.194967783999999922e+00,-2.497891459469999909e+00,5.103600538779999862e-01,-9.510638178189998015e+00,-1.369948731740000146e-03,-4.807511810210000208e-03,5.735544022170000616e-03,1.000000000000000000e+00
1.199976884000000021e+00,-2.504056996359999676e+00,5.202205728309999833e-01,-9.461275304609999992e+00,-2.218554727729999982e-04,4.652168601749999584e-03,1.485581882299999955e-02,1.000000000000000000e+00
1.204957309000000087e+00,-2.481555826220000149e+00,5.284551345499999275e-01,-9.478743156760002009e+00,-6.644763052460000248e-04,-1.873442204670000034e-03,4.004631657150000031e-03,1.000000000000000000e+00
1.209962876000000076e+00,-2.500366617410000103e+00,5.248608363850000291e-01,-9.482259640449999694e+00,8.066434413190000374e-03,-9.936056099830000571e-03,2.099591772999999991e-03,1.000000000000000000e+00
1.214968961000000069e+00,-2.520320441159999980e+00,4.905730015320000081e-01,-9.462630226349999063e+00,5.335057619959999824e-03,3.218475030739999677e-03,5.234034266319999296e-03,1.000000000000000000e+00
1.219958043999999964e+00,-2.478540862309999593e+00,5.344199247059999713e-01,-9.474192069319999021e+00,-2.043417189269999910e-03,1.727251894770000240e-02,-4.046814981849999882e-03,1.000000000000000000e+00
1.224964023000000068e+00,-2.492528471129999978e+00,5.537491137500000216e-01,-9.443080307220000691e+00,-6.248932797459999522e-03,-3.429409116509999906e-05,-1.026513427500000061e-02,1.000000000000000000e+00
1.229937792000000085e+00,-2.547275083579999766e+00,5.188662356130000486e-01,-9.493723283750000519e+00,9.029769338670000020e-03,-1.386593095960000129e-03,4.360615741460000146e-03,1.000000000000000000e+00
1.234958079999999958e+00,-2.502372112020000205e+00,5.619904340030000833e-01,-9.462724334369999823e+00,1.539030019189999848e-02,1.190043753009999844e-03,-8.999375626440000997e-03,1.000000000000000000e+00
1.239985931000000097e+00,-2.516372288059999907e+00,5.272887941839999870e-01,-9.478559616880000149e+00,2.875151112679999823e-04,-1.704671769400000142e-03,-5.158888176079999902e-03,1.000000000000000000e+00
1.244981177000000105e+00,-2.515099783899999775e+00,5.392699950850000645e-01,-9.472407523999999412e+00,5.476014921440000224e-04,6.521195173260000127e-04,-6.740082055329999801e-03,1.000000000000000000e+00
1.249989516000000078e+00,-2.529470546820000276e+00,5.596542826729999920e-01,-9.452354916050000000e+00,7.560287136579999651e-03,-2.397631295030000151e-02,4.232560750100000028e-04,1.000000000000000000e+00
1.254968056999999915e+00,-2.504224754150000010e+00,5.440030880219999254e-01,-9.460369880200000026e+00,1.130001433189999939e-02,-8.712664246560000020e-03,1.165528409180000002e-02,1.000000000000000000e+00
1.259936455999999927e+00,-2.437951954559999912e+00,5.405658435819999941e-01,-9.439290851810001826e+00,-1.899779308589999785e-03,1.566628692669999948e-03,-3.581066848710000219e-03,1.000000000000000000e+00
1.264975342000000058e+00,-2.487230072470000053e+00,5.059903143609999487e-01,-9.465309090169998996e+00,-5.538805853580000028e-04,-1.001955289390000017e-02,-1.414465531709999981e-02,1.000000000000000000e+00
1.269993745999999923e+00,-2.536236679960000018e+00,5.168659651729999860e-01,-9.452940022459999980e+00,1.545908511619999755e-03,6.472949869929999975e-03,-8.765545673669999580e-03,1.000000000000000000e+00
1.274979263000000085e+00,-2.570124628769999919e+00,4.902933078069999784e-01,-9.495959664500000841e+00,-3.126509487630000153e-03,-9.555801749229998407e-03,1.849438622590000164e-02,1.000000000000000000e+00
1.279935650999999952e+00,-2.440589609579999930e+00,5.250969832280000249e-01,-9.447032844239998894e+00,-1.367789506910000071e-02,6.859404966239999839e-03,-4.076265729960000354e-03,1.000000000000000000e+00
1.284938498999999901e+00,-2.511486269580000208e+00,5.141044280380000497e-01,-9.489263966250000237e+00,9.458266198639998443e-03,-9.817003272469999181e-03,-1.630693208429999938e-03,1.000000000000000000e+00
1.289957658999999923e+00,-2.523632049929999788e+00,5.084560468879999462e-01,-9.455749819179999349e+00,4.021407570689999877e-03,1.299636252220000114e-02,5.790446419270000103e-03,1.000000000000000000e+00
1.294958285999999958e+00,-2.462876260190000277e+00,5.057713378479999911e-01,-9.483689380990000473e+00,1.344829704610000197e-02,-7.732470519840000008e-03,-8.678001351650000209e-03,1.000000000000000000e+00
1.300016690999999946e+00,-2.543778181380000003e+00,5.365463422749999767e-01,-9.507330368819999933e+00,2.048809546980000316e-03,9.683202020820000366e-03,1.039310917259999960e-02,1.000000000000000000e+00
1.304952222000000051e+00,-2.433642420790000038e+00,5.188822368990000378e-01,-9.478000813959999604e+00,6.126943975689999426e-03,6.247377954420000636e-03,-1.581264287229999788e-02,1.000000000000000000e+00
1.309898484999999946e+00,-2.525507488409999723e+00,5.370725581059999643e-01,-9.450953232559999861e+00,4.138440359379999892e-03,-8.709863759579999573e-03,-1.146487891670000016e-02,1.000000000000000000e+00
1.314867513999999904e+00,-2.578308227489999993e+00,5.809859341130000354e-01,-9.464237661539998570e+00,3.423894289880000455e-03,1.275115087629999887e-02,1.709931343790000238e-02,1.000000000000000000e+00
1.319882503999999956e+00,-2.448080549859999788e+00,5.273357385979999812e-01,-9.459258119570000289e+00,5.727279465649999513e-03,1.268132822589999745e-03,3.230118192730000067e-03,1.000000000000000000e+00
1.324925120000000067e+00,-2.527370067410000143e+00,5.631109989979999897e-01,-9.463257418330000448e+00,1.383950281889999995e-02,-6.288454867899999877e-03,1.177514903249999960e-02,1.000000000000000000e+00
1.329921445999999952e+00,-2.481133801420000395e+00,5.539497508880000254e-01,-9.424839132609999837e+00,3.686014562849999725e-03,-3.127715084700000148e-03,-6.326022557910000038e-03,1.000000000000000000e+00
1.335020990999999935e+00,-2.528850076839999961e+00,5.237953260450000093e-01,-9.467935931539999572e+00,-1.118455361570000126e-02,-3.309063613409999986e-03,6.303272675720000308e-03,1.000000000000000000e+00
1.340055876000000090e+00,-2.518684656650000075e+00,5.824401149760000118e-01,-9.436602635639998127e+00,-9.536342695360000218e-03,-3.129038261250000150e-03,8.551524952050000268e-04,1.000000000000000000e+00
1.344943108999999914e+00,-2.493651337680000246e+00,5.656305440709999965e-01,-9.441030388959999797e+00,1.008786633609999941e-02,-1.115841977299999836e-02,-4.199284594509999457e-04,1.000000000000000000e+00
1.349925067999999895e+00,-2.470548986779999900e+00,5.450513914979999708e-01,-9.473709254239999211e+00,-1.231296081100000106e-02,-1.404343987820000014e-03,-2.708467189219999904e-03,1.000000000000000000e+00
1.354915169999999947e+00,-2.494300741500000029e+00,5.307820796600000168e-01,-9.471353631030000386e+00,-7.833136245609998577e-03,-1.006794627759999977e-02,9.440314024690000042e-03,1.000000000000000000e+00
1.360023849999999923e+00,-2.485216102289999895e+00,5.442783247669999991e-01,-9.449361579450000548e+00,-9.037748910489999329e-03,6.186342798170000636e-03,-1.462361775339999885e-02,1.000000000000000000e+00
1.365031365999999968e+00,-2.515461895220000077e+00,5.384028568619999566e-01,-9.433174414759999848e+00,-1.514040399339999961e-02,-1.222654804590000109e-02,-1.353007927540000009e-02,1.000000000000000000e+00
1.369962665000000079e+00,-2.513742524079999985e+00,5.059215599740000124e-01,-9.474747365119998932e+00,-2.113386057319999959e-03,1.785395294429999863e-02,-1.241838000710000084e-02,1.000000000000000000e+00
1.375213760000000063e+00,-2.547373575519999989e+00,5.250278635149999706e-01,-9.471420266519999132e+00,-6.223021540790000042e-03,3.404517192390000332e-04,7.830323651430000365e-03,1.000000000000000000e+00
1.380195207000000091e+00,-2.511626554840000303e+00,4.859072016780000003e-01,-9.463472522389999142e+00,-1.309973187739999975e-02,6.103736348449999988e-03,1.001400873060000109e-03,1.000000000000000000e+00
1.385219350999999932e+00,-2.453756549670000009e+00,5.223795409629999886e-01,-9.484252275569998503e+00,1.705759204920000182e-04,-7.415872532869999213e-04,-3.950092475860000375e-03,1.000000000000000000e+00
1.390267090999999899e+00,-2.502420042809999856e+00,5.394206190699999404e-01,-9.449090361289998796e+00,2.911949530239999959e-03,-8.906268049029999849e-04,3.899347502739999860e-03,1.000000000000000000e+00
1.395259237999999957e+00,-2.473679101500000144e+00,5.191430067269999782e-01,-9.458303595320000312e+00,-1.032963488250000089e-02,-9.646550752219998359e-03,-6.134754978120000000e-03,1.000000000000000000e+00
1.400215339000000059e+00,-2.506462011680000046e+00,5.347116376609999389e-01,-9.442001864339998107e+00,3.267535939810000019e-03,1.243296917530000052e-02,5.578541662540000522e-03,1.000000000000000000e+00
1.405345290000000080e+00,-2.475843878320000080e+00,5.404160598480000077e-01,-9.475098078250001166e+00,-1.473753526810000006e-02,4.864707589149999852e-03,-4.421503283079999784e-03,1.000000000000000000e+00
1.410368371999999981e+00,-2.518380997529999998e+00,5.213815429020000058e-01,-9.480567449580000527e+00,-6.869807839389999692e-03,-1.294537261130000033e-02,1.002557808529999954e-03,1.000000000000000000e+00
1.415405658999999927e+00,-2.515956985259999890e+00,5.392888093840000341e-01,-9.467911966139999080e+00,-1.001598034050000044e-02,-8.248244412239999143e-03,1.145699806509999953e-02,1.000000000000000000e+00
1.420391364999999961e+00,-2.482902272390000054e+00,5.142379182249999792e-01,-9.479438153280000279e+00,-1.252093166110000190e-02,-7.725539617239999581e-03,1.174557488410000062e-03,1.000000000000000000e+00
1.425330189999999941e+00,-2.497469726929999911e+00,5.407372180939999939e-01,-9.436977314169999076e+00,-5.199455190450000784e-04,6.204428151250000051e-03,3.478004131469999635e-03,1.000000000000000000e+00
1.430365493999999904e+00,-2.502584293459999998e+00,5.144763666230000032e-01,-9.455338315769999724e+00,9.480452165009999044e-03,-4.224522504959999682e-03,-1.004136865959999979e-03,1.000000000000000000e+00
1.435385998000000107e+00,-2.494714875260000131e+00,5.357919802439999879e-01,-9.456199901039999745e+00,3.930516541000000225e-03,4.174103960390000354e-03,2.877197228369999735e-03,1.000000000000000000e+00
1.440389751000000107e+00,-2.463401160850000160e+00,5.262593050060000444e-01,-9.460723515939999828e+00,1.172399241479999896e-02,2.340918639670000120e-03,-1.234177500010000088e-02,1.000000000000000000e+00
1.445230723999999967e+00,-2.566037067199999910e+00,5.215984370549999749e-01,-9.468869413000000179e+00,-9.873486123979998905e-03,-3.119510598479999577e-02,9.317642543460000638e-04,1.000000000000000000e+00
1.450366521999999936e+00,-2.514134445999999912e+00,5.224014605340000506e-01,-9.504133034080000542e+00,-9.438815526660000038e-03,-4.517545923590000033e-03,-7.153199985619999738e-04,1.000000000000000000e+00
1.455393627000000079e+00,-2.513062432859999973e+00,5.584104566240000178e-01,-9.461779162480000949e+00,-4.015238955619999765e-04,-5.867294035850000380e-03,2.937666606160000034e-03,1.000000000000000000e+00
1.460365850000000076e+00,-2.495693949429999670e+00,5.168434976129999692e-01,-9.448757768340000140e+00,7.099479902539999887e-03,-3.111539641399999924e-03,4.732104018329999842e-03,1.000000000000000000e+00
1.465360943000000082e+00,-2.484591248390000118e+00,5.225114237139999451e-01,-9.476551784189998884e+00,1.619178685359999852e-03,-9.603271260860000297e-03,6.363973487169999853e-03,1.000000000000000000e+00
1.470202843999999898e+00,-2.478385671749999908e+00,5.525431720260000068e-01,-9.446646475269998788e+00,-1.222072984089999856e-03,2.457960741590000265e-03,-3.696787171069999952e-04,1.000000000000000000e+00
1.475388230000000078e+00,-2.479267715279999784e+00,5.382336743079999541e-01,-9.456852811989998386e+00,-1.877280417830000034e-03,5.389877595010000855e-03,-1.410547085110000140e-02,1.000000000000000000e+00
1.480390295000000078e+00,-2.539532506630000075e+00,5.360660479450000127e-01,-9.437400508019999634e+00,-5.017990246420000675e-03,4.747909493739999216e-03,-3.206336870790000172e-03,1.000000000000000000e+00
1.485393012999999929e+00,-2.516678285270000259e+00,5.584861156759999279e-01,-9.450061252150000257e+00,1.769820414480000048e-02,-1.374471466989999821e-02,5.967496428640000315e-03,1.000000000000000000e+00
1.490232782999999950e+00,-2.485372461899999941e+00,5.429840106399999033e-01,-9.463627420689999070e+00,-7.871994166630000376e-04,-2.033577067779999883e-03,-1.194723136720000044e-02,1.000000000000000000e+00
1.495205592000000028e+00,-2.541127374609999823e+00,4.963571744240000139e-01,-9.484073411869999859e+00,5.682314280420000530e-03,3.142092609779999907e-03,7.303489837800000196e-03,1.000000000000000000e+00
1.500216347999999922e+00,-2.478375150359999779e+00,5.167426310549999569e-01,-9.467354332260001115e+00,-3.993869759139999712e-03,-2.099069394170000047e-02,-8.298033848399999357e-03,1.000000000000000000e+00
1.505367512999999935e+00,-2.520242699749999815e+00,5.404953721620000540e-01,-9.464446920380000350e+00,-1.313364319499999919e-02,-7.895708084109999761e-03,6.185859907420000400e-03,1.000000000000000000e+00
1.510281763999999916e+00,-2.492404844749999793e+00,5.240320574100000295e-01,-9.455096908230000707e+00,8.840878494080000802e-03,7.139008492230000322e-03,-8.896581828590001059e-03,1.000000000000000000e+00
1.515390559000000081e+00,-2.529445996899999827e+00,4.984823864169999896e-01,-9.509420034570000624e+00,-6.785599049180000147e-03,2.163748489689999981e-03,9.260242804879999581e-03,1.000000000000000000e+00
1.520414010000000093e+00,-2.445664428630000220e+00,5.439612216410000256e-01,-9.475279864560000931e+00,-7.223222870380000341e-03,-1.226890832190000082e-03,-1.304724253710000045e-02,1.000000000000000000e+00
1.525214810999999893e+00,-2.542559160979999788e+00,5.430046150360000601e-01,-9.456785007449999725e+00,-7.527812384069999807e-03,-1.231259200720000039e-03,3.695196937770000092e-03,1.000000000000000000e+00
1.530389178000000072e+00,-2.522901982090000050e+00,5.300278272270000368e-01,-9.446967962310001354e+00,-6.394710857420000082e-03,-4.674720112229999863e-03,7.272453513000000022e-03,1.000000000000000000e+00
1.535425626000000099e+00,-2.467472648070000218e+00,5.178413130119999819e-01,-9.471395716600000014e+00,-1.218166202310000043e-03,5.098773166540000561e-03,-5.955573171380000065e-03,1.000000000000000000e+00
1.540414554999999908e+00,-2.518536772620000086e+00,4.917501555520000234e-01,-9.470636422669999277e+00,6.590235047039999343e-03,-6.143103819340000812e-03,-3.122861264269999760e-03,1.000000000000000000e+00
1.545230327999999931e+00,-2.509486620200000129e+00,5.704594255320000196e-01,-9.438398286889999156e+00,-4.507279489189999593e-03,-8.804442360999999856e-03,5.550078582020000727e-03,1.000000000000000000e+00
1.550400895999999973e+00,-2.494098496929999964e+00,5.737533159780000558e-01,-9.475054239109999443e+00,-3.754033241419999813e-03,-8.482000790539999738e-03,2.517735119910000010e-04,1.000000000000000000e+00
1.555421034999999952e+00,-2.515638420830000221e+00,5.322620160189999172e-01,-9.468142852289998856e+00,8.741392521190000618e-04,-2.563752932469999524e-03,-5.376773886380000270e-03,1.000000000000000000e+00
1.560392076000000072e+00,-2.493342710129999862e+00,4.868346917859999734e-01,-9.478489474260001657e+00,-3.821318503469999829e-03,-8.983097504819999172e-04,-2.630090573799999994e-03,1.000000000000000000e+00
1.565406473999999992e+00,-2.488102179120000201e+00,5.009756280039999732e-01,-9.499650920229999684e+00,-6.232999265189999652e-03,8.870018646119999864e-03,-9.788877330719999645e-03,1.000000000000000000e+00
1.570261306999999995e+00,-2.546630063679999889e+00,5.869869646259999740e-01,-9.460631161480000273e+00,3.923651296649999926e-03,6.581807509060000165e-03,8.166627958420000569e-03,1.000000000000000000e+00
1.575245618999999930e+00,-2.491651980559999924e+00,5.036993173470000196e-01,-9.464729244449999968e+00,-1.963572949170000123e-02,-5.787770263850001116e-03,-3.211105708030000203e-03,1.000000000000000000e+00
1.580254947000000021e+00,-2.519510001560000045e+00,5.108958777880000524e-01,-9.454292021589999706e+00,9.481917135420001030e-03,1.200926955790000000e-02,3.960717935120000414e-03,1.000000000000000000e+00
1.585265750999999890e+00,-2.527917472159999956e+00,5.524262311149999993e-01,-9.472050965639999376e+00,-4.580654203890000345e-03,6.086259149009999765e-03,7.804066408430000018e-03,1.000000000000000000e+00
1.590237791000000067e+00,-2.483544077429999941e+00,5.380193009040000751e-01,-9.479655595429999693e+00,-5.715017206970000353e-03,6.413112394509999648e-03,-1.345858443529999960e-03,1.000000000000000000e+00
1.595419584999999918e+00,-2.537218092209999831e+00,4.813089871670000464e-01,-9.449613508389999694e+00,-4.949296358970000156e-03,6.673054769640000480e-03,-6.350786425169999659e-04,1.000000000000000000e+00
1.600253601999999997e+00,-2.490449619030000061e+00,5.408621961799999767e-01,-9.430455218929999717e+00,-1.843530335459999639e-04,-4.206643439830000039e-03,-1.166143082079999782e-02,1.000000000000000000e+00
1.605211342999999902e+00,-2.545422733720000164e+00,5.907039027899999573e-01,-9.443924356830001088e+00,-6.744871847329999941e-03,-1.862145727499999858e-03,5.121603142469999953e-03,1.000000000000000000e+00
1.610246585999999924e+00,-2.495264618100000220e+00,5.154352747829999970e-01,-9.480501398599999519e+00,1.006533019239999951e-02,-5.803419277069999521e-03,-1.290346030150000059e-03,1.000000000000000000e+00
1.615253464000000028e+00,-2.540871061759999883e+00,5.037107885889999803e-01,-9.466870348130001389e+00,6.303939502689998725e-03,4.692469723520000316e-03,8.154297247529999557e-03,1.000000000000000000e+00
1.620411591999999956e+00,-2.488492639750000013e+00,4.987117016600000063e-01,-9.494303129460000434e+00,3.040434326979999779e-03,1.120226457720000131e-02,-8.576232008639999779e-03,1.000000000000000000e+00
1.625264261000000099e+00,-2.508070908179999670e+00,5.427157150920000062e-01,-9.481269460369999180e+00,-6.684834603219999734e-03,4.880430176850000627e-03,1.525825355200000023e-03,1.000000000000000000e+00
1.630411790999999999e+00,-2.490488197479999943e+00,5.191051589349999773e-01,-9.465267004590000255e+00,3.633008804170000192e-03,9.131482802329999107e-03,-2.998032141479999892e-03,1.000000000000000000e+00
1.635423016000000063e+00,-2.505011812869999854e+00,5.238050437219999855e-01,-9.472425059649999923e+00,6.063499022279999866e-03,-1.618642942049999854e-03,-6.992982234809999803e-04,1.000000000000000000e+00
1.640252982000000026e+00,-2.465022916830000188e+00,5.153423723349999097e-01,-9.482322184289998290e+00,-3.436528611930000053e-03,1.725660450759999853e-02,-1.155018806460000186e-02,1.000000000000000000e+00
1.645253566000000056e+00,-2.525797119009999925e+00,5.334099804779999232e-01,-9.455093985619999586e+00,-6.325776223089999567e-03,-5.923899821939999401e-03,9.991103783250000758e-03,1.000000000000000000e+00
1.650265397999999939e+00,-2.501559334329999995e+00,5.564973530119999845e-01,-9.415875489430000300e+00,1.795523054900000082e-02,-1.954158768059999825e-03,-1.932388870049999872e-03,1.000000000000000000e+00
1.655239635000000042e+00,-2.523732587690000084e+00,5.204411933120000056e-01,-9.450786643819999000e+00,7.308604661380000041e-03,-1.256326492879999979e-02,7.474344689399999714e-03,1.000000000000000000e+00
1.660223811000000049e+00,-2.487779815300000141e+00,5.073967470929999779e-01,-9.449284422559999896e+00,1.415104232729999870e-02,5.816492252050000158e-03,-5.214545875789999667e-03,1.000000000000000000e+00
1.665424408000000023e+00,-2.523484165890000241e+00,5.287926594080000209e-01,-9.442850005599998653e+00,-5.560831632470000438e-03,3.992971964179999403e-03,1.024625077839999912e-02,1.000000000000000000e+00
1.670420535000000095e+00,-2.490102705289999996e+00,5.356326614959999732e-01,-9.474127187400000594e+00,-4.156237002460000211e-03,1.211027055979999913e-02,1.236074417829999966e-02,1.000000000000000000e+00
1.675427256000000087e+00,-2.518492933470000139e+00,5.475096713710000396e-01,-9.494398406529999335e+00,-1.647283555940000019e-03,-1.661719288680000130e-03,6.446207407859999051e-03,1.000000000000000000e+00
1.680389828999999891e+00,-2.496787005359999867e+00,5.190421036360000073e-01,-9.473546172639998986e+00,-3.658583387729999990e-03,-8.322631940249999860e-03,3.900747280570000374e-03,1.000000000000000000e+00
1.685233984999999990e+00,-2.466905661840000263e+00,5.154455404490000392e-01,-9.470393846089999457e+00,-6.736083887520000549e-03,1.688571879640000202e-03,-5.974792875350000421e-03,1.000000000000000000e+00
1.690415736000000058e+00,-2.496510234250000071e+00,5.370340527269999997e-01,-9.449122510000000474e+00,6.542551796880000103e-03,6.842372938989998814e-03,6.255530752240000085e-05,1.000000000000000000e+00
1.695405441999999985e+00,-2.487880353069999995e+00,4.811966128340000037e-01,-9.452697445880000160e+00,-6.328758317980000270e-04,7.184286601840000376e-03,-1.218564808370000037e-02,1.000000000000000000e+00
1.700211605000000015e+00,-2.492812256509999713e+00,5.003629394659999674e-01,-9.425052483099999989e+00,7.985650561750001070e-03,-9.789487812669999799e-04,-7.082270458339999519e-03,1.000000000000000000e+00
1.705426378999999937e+00,-2.538418700170000264e+00,5.263751134049999836e-01,-9.454270978800000336e+00,-4.182899720039999860e-04,5.778741091490000037e-03,7.416604552420000621e-03,1.000000000000000000e+00
1.710428912000000023e+00,-2.472467095359999867e+00,5.177415789639999710e-01,-9.479954286110000794e+00,4.456359893080000484e-04,1.162804849450000018e-02,3.832906950269999806e-04,1.000000000000000000e+00
1.715426144000000042e+00,-2.487656481180000156e+00,5.405801643680000490e-01,-9.457115846839998952e+00,1.056604739279999941e-02,-1.000282634049999911e-02,-4.787444602700000225e-03,1.000000000000000000e+00
1.720379491999999955e+00,-2.496275840970000104e+00,5.475932945339999636e-01,-9.474818092270000491e+00,-8.337567560369999256e-03,-7.375143468380000386e-03,-9.800308384000000830e-03,1.000000000000000000e+00
1.725256958999999979e+00,-2.542790339379999764e+00,5.346761644890000165e-01,-9.464548042669999717e+00,-1.707294490189999962e-03,1.044216565789999988e-02,-2.169584389780000386e-03,1.000000000000000000e+00
1.730272110999999891e+00,-2.498316406889999897e+00,5.273843635129999985e-01,-9.470136071930001620e+00,5.571688525379999909e-03,-9.628097526730000286e-03,-2.031985670329999882e-03,1.000000000000000000e+00
1.735256447999999896e+00,-2.533297703899999753e+00,5.310199800689999750e-01,-9.470763263920000341e+00,-2.862344495949999557e-03,-3.349670907480000338e-03,5.599902477120000110e-03,1.000000000000000000e+00
1.740251994999999940e+00,-2.500239776159999927e+00,5.000018876009999502e-01,-9.480173481819999637e+00,-3.542363992890000448e-04,1.891769282520000192e-02,-2.059420803559999964e-03,1.000000000000000000e+00
1.745233628000000037e+00,-2.500235099990000265e+00,5.262696072039999562e-01,-9.463988070700001032e+00,2.235000021760000059e-03,-1.572135649620000006e-02,-3.993533551689999739e-03,1.000000000000000000e+00
1.750243326999999960e+00,-2.528643156090000232e+00,5.657170898430000650e-01,-9.446049093899999249e+00,3.931661602110000236e-03,5.618103779850000708e-03,2.806192263960000013e-03,1.000000000000000000e+00
1.755289689000000042e+00,-2.539489544270000287e+00,5.240171521019999501e-01,-9.460781968130000052e+00,5.358771886680000276e-03,-9.214053861799999245e-03,6.841162685300000365e-03,1.000000000000000000e+00
1.760383365000000033e+00,-2.506590606500000096e+00,5.274979434229999375e-01,-9.461472288480001325e+00,5.661811446769998918e-04,-5.108492448930000880e-03,5.720572080459999931e-03,1.000000000000000000e+00
1.765324845000000087e+00,-2.515877490279999851e+00,5.072144858609999307e-01,-9.471843460369999690e+00,1.218033023180000070e-02,-6.200097501279999181e-03,5.493049044160000158e-03,1.000000000000000000e+00
1.770417225000000094e+00,-2.452552142320000073e+00,4.938203494219999823e-01,-9.487487604229999150e+00,1.066542323679999828e-02,1.609516143800000104e-02,-2.139253774660000024e-03,1.000000000000000000e+00
1.775268296999999995e+00,-2.503544955190000199e+00,5.106551278350000000e-01,-9.485096325180000676e+00,-8.251007646320000430e-03,3.994209691880000655e-06,-6.814972497520000762e-03,1.000000000000000000e+00
1.780267067999999897e+00,-2.497618195490000303e+00,5.168445935919999679e-01,-9.447634901789999873e+00,-1.304080616679999943e-02,1.616579853000000080e-02,-2.817190252239999953e-03,1.000000000000000000e+00
1.785244676000000030e+00,-2.519898416359999782e+00,5.252419446570000261e-01,-9.439348719479999872e+00,-6.544016301629999345e-03,1.902781659740000134e-03,1.262159086760000076e-02,1.000000000000000000e+00
1.790247428000000030e+00,-2.444457537059999908e+00,5.226432699330000320e-01,-9.463291320599999779e+00,5.110233556479999717e-03,-2.198427449909999640e-03,-8.629918098450000200e-03,1.000000000000000000e+00
1.795404753999999992e+00,-2.484379651470000283e+00,5.118293227130000789e-01,-9.475191601760000637e+00,-7.250437978659999595e-03,5.241635255520000689e-03,-8.698415011169999961e-03,1.000000000000000000e+00
1.800249428999999957e+00,-2.493896544620000100e+00,5.322102127669999794e-01,-9.458507008939999849e+00,4.080601502209999388e-04,-1.527209766210000036e-03,-6.163721904159999952e-03,1.000000000000000000e+00
1.805425673000000009e+00,-2.483116499669999921e+00,5.572772513429999908e-01,-9.440171726299999122e+00,1.609067060049999831e-02,-1.034015091139999952e-03,8.675977587699999641e-04,1.000000000000000000e+00
1.810267478999999957e+00,-2.514741764250000067e+00,5.331335746900000006e-01,-9.487284190610001389e+00,-4.050333518529999899e-03,1.196646876629999835e-02,1.644010096789999889e-02,1.000000000000000000e+00
1.815246571000000086e+00,-2.492545422270000088e+00,5.144326736119999577e-01,-9.464585452070000571e+00,3.604159690440000320e-03,7.359243929390000410e-03,1.660418231040000159e-03,1.000000000000000000e+00
1.820403116999999904e+00,-2.464355100570000179e+00,5.153582640239999790e-01,-9.477743624330001282e+00,-3.161840140820000155e-03,4.372213035819999538e-03,-6.152261048560000653e-03,1.000000000000000000e+00
1.825258931999999890e+00,-2.487751173729999987e+00,5.035363088049999991e-01,-9.465969015380000684e+00,-2.502938732500000017e-03,-8.165859617289999203e-04,2.153172157699999832e-03,1.000000000000000000e+00
1.830408421000000008e+00,-2.526867378590000435e+00,5.357609640510000437e-01,-9.466465274469999969e+00,-1.051299087700000023e-02,1.336493901910000039e-02,1.419743895529999855e-02,1.000000000000000000e+00
1.835266319999999896e+00,-2.492480832600000085e+00,5.086707490840000068e-01,-9.435276939999999612e+00,1.999749336390000375e-03,-3.971577156340000414e-03,9.139273315670000397e-03,1.000000000000000000e+00
1.840361705999999931e+00,-2.493074122319999919e+00,5.513662737340000453e-01,-9.449884726539998780e+00,-2.425015904010000087e-03,1.912272162740000225e-02,4.106133710590000561e-03,1.000000000000000000e+00
1.845230794999999979e+00,-2.481801617679999961e+00,5.156093527080000127e-01,-9.454661439419998814e+00,-5.749929230659999758e-03,-6.829293444750000885e-03,-2.097139134999999929e-03,1.000000000000000000e+00
1.850396737000000069e+00,-2.517716396140000423e+00,5.226099156530000789e-01,-9.475802427130000538e+00,9.459581226110000407e-03,8.404524065549999479e-03,3.329259809110000131e-03,1.000000000000000000e+00
1.855387738999999980e+00,-2.478270520940000221e+00,5.325587339439999957e-01,-9.429111987629999803e+00,1.956671942030000118e-03,6.312173791230000271e-04,-1.547903753819999950e-02,1.000000000000000000e+00
1.860238682000000088e+00,-2.520690735779999692e+00,5.082064195080000513e-01,-9.484497190239999043e+00,2.563139423729999850e-04,3.149051452060000044e-03,-7.373597472909999536e-04,1.000000000000000000e+00
1.865372609000000015e+00,-2.490173432440000223e+00,5.203722197290000517e-01,-9.453540326439998864e+00,-3.191945608709999792e-03,1.142597943539999834e-02,-2.020825399089999728e-03,1.000000000000000000e+00
1.870407960000000092e+00,-2.482483170200000089e+00,5.176910178210000213e-01,-9.487025831930001374e+00,-1.277733827010000045e-05,6.338384933770001284e-03,-5.464931018650000076e-03,1.000000000000000000e+00
1.875388518999999921e+00,-2.517352239010000048e+00,5.452742039360000126e-01,-9.467661790770000252e+00,-6.136228330430000067e-04,-6.531377788629999515e-03,5.826775450260000041e-04,1.000000000000000000e+00
1.880249470999999950e+00,-2.477913670329999984e+00,5.321918733930000034e-01,-9.458646709670000874e+00,-1.129621989089999931e-03,4.664488136770000327e-03,-2.591767581179999554e-03,1.000000000000000000e+00
1.885422989000000049e+00,-2.496589144700000151e+00,5.214319944470000578e-01,-9.469021388689998986e+00,-1.181986555460000018e-02,7.004686631259999553e-03,-1.228194334540000029e-03,1.000000000000000000e+00
1.890385720999999908e+00,-2.499087099000000034e+00,5.178927874700000045e-01,-9.472118770179999814e+00,-1.550491433589999820e-03,-9.872902184719999086e-03,-6.554594729100000385e-03,1.000000000000000000e+00
1.895393670999999891e+00,-2.521568687659999863e+00,5.167918039590000401e-01,-9.465865555009999710e+00,-1.669267658140000107e-05,-1.580510986970000116e-03,-5.299465730790000294e-03,1.000000000000000000e+00
1.900231814999999935e+00,-2.524704063070000171e+00,5.405238676039999524e-01,-9.465344745999999532e+00,-3.427043557170000084e-03,6.964207626880000203e-03,6.291449535640000409e-03,1.000000000000000000e+00
1.905158359000000079e+00,-2.500780458909999560e+00,5.166725249610000237e-01,-9.475687276320000407e+00,1.523500657640000080e-03,9.096189402040001301e-03,1.814075279979999967e-03,1.000000000000000000e+00
1.910266293999999920e+00,-2.522334119069999936e+00,5.467214436020000345e-01,-9.437850589880000030e+00,-1.988064963369999983e-03,-3.553887363519999624e-03,1.045639999210000101e-02,1.000000000000000000e+00
1.915402835999999942e+00,-2.475699209150000080e+00,5.144590136300000172e-01,-9.452126952510001345e+00,9.834845550359999806e-04,-1.009126310240000086e-03,-1.304529141630000064e-03,1.000000000000000000e+00
1.920397721999999918e+00,-2.484756083569999774e+00,5.014087952569999951e-01,-9.447325689710000418e+00,2.169315237550000289e-03,1.062690978870000063e-03,-7.328025531020000705e-03,1.000000000000000000e+00
1.925255678999999942e+00,-2.515878659320000210e+00,5.597337776499999862e-01,-9.435140161869998821e+00,3.554721362890000003e-03,-2.918144920840000291e-03,1.155516132710000116e-02,1.000000000000000000e+00
1.930238957000000033e+00,-2.505088092979999903e+00,5.762773910959999579e-01,-9.455022089430000776e+00,1.900556869799999854e-02,-1.038778014479999935e-02,1.589429751040000172e-02,1.000000000000000000e+00
1.935238605999999972e+00,-2.450532180800000237e+00,4.903508466809999855e-01,-9.477796231299999263e+00,2.500614617020000159e-03,7.244084961709999423e-03,5.099045578389999923e-03,1.000000000000000000e+00
1.940259165000000063e+00,-2.477573770850000301e+00,4.787204319789999940e-01,-9.456764549179998980e+00,-3.097845707089999946e-03,3.969368990510000112e-04,-3.566605038940000132e-03,1.000000000000000000e+00
1.945399485999999900e+00,-2.552690971150000099e+00,5.060709418490000333e-01,-9.473715099460001454e+00,-1.036544563250000041e-05,2.338560065250000226e-03,6.137042772020000550e-03,1.000000000000000000e+00
1.950401443000000068e+00,-2.486520462890000172e+00,5.142618105569999321e-01,-9.471456506880000958e+00,2.310453914110000007e-03,-6.104096770290000015e-03,4.134935326869999990e-03,1.000000000000000000e+00
1.955248340000000029e+00,-2.485999946150000195e+00,5.490701986860000439e-01,-9.426951594720000216e+00,-1.238567382100000044e-02,-9.715114720170000412e-03,1.197889819739999910e-02,1.000000000000000000e+00
1.960236081999999991e+00,-2.429733722920000005e+00,5.308340655759999915e-01,-9.472177806889998664e+00,1.245251507500000094e-03,2.258843509480000251e-03,-8.470147848129999310e-03,1.000000000000000000e+00
1.965395554000000100e+00,-2.492005031780000213e+00,4.832953386789999861e-01,-9.479359242830000198e+00,4.140093224119999432e-04,-5.023379344490000020e-04,-1.160191185770000077e-02,1.000000000000000000e+00
1.970291894000000044e+00,-2.470978025840000036e+00,5.203756537950000594e-01,-9.445712993819999070e+00,-1.318977680059999977e-02,2.118682721630000317e-03,-1.351099461319999959e-02,1.000000000000000000e+00
1.975272759999999961e+00,-2.543366677970000378e+00,5.262316863470000161e-01,-9.472077853649999213e+00,-1.502942852680000038e-02,-5.458008032289999104e-03,1.977450679990000026e-03,1.000000000000000000e+00
1.980244297000000042e+00,-2.471936349479999961e+00,5.262820648270000179e-01,-9.453864736089998999e+00,5.710404831919999556e-03,1.587410084899999740e-02,-3.674314357340000177e-03,1.000000000000000000e+00
1.985366791999999991e+00,-2.499922965300000133e+00,4.869377868339999638e-01,-9.473248066469999173e+00,-1.417783834039999802e-02,4.592068493369999733e-03,-5.781420506539999837e-03,1.000000000000000000e+00
1.990242461000000018e+00,-2.533967565979999836e+00,5.225227853589999860e-01,-9.485380402819998835e+00,3.485388588159999725e-03,7.838326506319999443e-03,8.526571094990000391e-03,1.000000000000000000e+00
1.995395625000000006e+00,-2.459441901829999999e+00,5.079679711100000272e-01,-9.504140048340000035e+00,-3.725534770639999695e-03,-1.533101033420000009e-02,1.771739684049999843e-03,1.000000000000000000e+00
2.000288545000000084e+00,-2.482614979890000129e+00,5.202667865929999635e-01,-9.463256833810000046e+00,-1.329994108529999886e-02,-4.097267519679999477e-03,-3.305249847469999896e-04,1.000000000000000000e+00
2.005420362999999817e+00,-2.501447398390000298e+00,5.237142966979999592e-01,-9.478686458130001213e+00,-7.636865600939999645e-03,-2.469590632239999743e-03,5.345656070859999137e-03,1.000000000000000000e+00
2.010384168999999943e+00,-2.488051325719999873e+00,5.390742898499999436e-01,-9.492944700589999840e+00,5.216128658499999751e-03,-4.155609756710000428e-03,1.247470732779999963e-03,1.000000000000000000e+00
2.015413691000000007e+00,-2.504116033079999859e+00,5.157354633060000637e-01,-9.442558913699999223e+00,-1.513096224520000220e-02,1.545873703439999951e-03,3.389082383360000287e-03,1.000000000000000000e+00
2.020382641999999951e+00,-2.466488020949999971e+00,5.224803344560000617e-01,-9.477902614279999582e+00,-1.171164121479999903e-02,-2.047937922180000092e-02,-1.445229281669999956e-03,1.000000000000000000e+00
2.025269395000000028e+00,-2.507868955870000249e+00,5.216968559290000584e-01,-9.445834574369998293e+00,2.707945648579999833e-03,-7.423517294229999876e-03,-3.446121234449999685e-03,1.000000000000000000e+00
2.030393761000000019e+00,-2.498895960340000055e+00,4.928647657310000207e-01,-9.474556810980001131e+00,-8.496851660310000831e-03,-6.683301180600000014e-04,-4.809558391569999751e-03,1.000000000000000000e+00
2.035409812999999790e+00,-2.550340900890000206e+00,5.490187242270000434e-01,-9.459659686100000187e+00,9.432096267119999787e-04,-1.295458991079999952e-03,2.848572097719999797e-03,1.000000000000000000e+00
2.040418235000000191e+00,-2.482926530049999858e+00,5.238278035429999591e-01,-9.465565695280000469e+00,3.825174644590000495e-03,-3.271633759140000130e-04,-8.989886846389999854e-04,1.000000000000000000e+00
2.045236066999999824e+00,-2.510379769650000092e+00,5.216555740699999610e-01,-9.450605442030001413e+00,-9.319633245469999272e-03,-1.199734862889999948e-02,-1.626176992430000169e-03,1.000000000000000000e+00
2.050397009000000104e+00,-2.513260585779999889e+00,5.058817394200000317e-01,-9.485183418940000166e+00,-6.567858625199999613e-03,-4.476188682020000240e-03,7.661143317819999084e-04,1.000000000000000000e+00
2.055254890000000056e+00,-2.462094462170000053e+00,5.177796459519999894e-01,-9.470290385710001146e+00,7.661199662829999701e-03,-1.207688357680000149e-03,-1.365871727469999963e-02,1.000000000000000000e+00
2.060410293999999976e+00,-2.537777771920000092e+00,5.153896455430000412e-01,-9.477045120669998823e+00,-4.556265193970000099e-03,-8.194884285329998713e-03,3.764360211789999616e-03,1.000000000000000000e+00
2.065260303000000075e+00,-2.504598848159999669e+00,5.048168866679999534e-01,-9.470738713999999447e+00,-1.316084247079999867e-02,4.476760514079999691e-03,-6.788663100449999349e-03,1.000000000000000000e+00
2.070394781000000073e+00,-2.487593937340000227e+00,5.309769081120000456e-01,-9.466517881439999726e+00,-8.438929915430000428e-03,-5.800398066640001038e-04,-1.968848146500000104e-02,1.000000000000000000e+00
2.075407536000000164e+00,-2.521781745890000259e+00,5.057631180089999789e-01,-9.490426580289998526e+00,-4.193234723060000439e-03,-3.360585775230000120e-03,-1.112955808639999947e-02,1.000000000000000000e+00
2.080245333999999779e+00,-2.523153326500000126e+00,5.454055386980000142e-01,-9.437574111019999989e+00,4.798831418159999612e-03,-1.784971216690000142e-03,7.680576760320000258e-03,1.000000000000000000e+00
2.085278964000000013e+00,-2.480369246790000037e+00,5.226416259649999674e-01,-9.462066747250000631e+00,-4.406881518660000011e-03,-4.387545399369999384e-03,-2.256072126329999872e-03,1.000000000000000000e+00
2.090217931999999834e+00,-2.514471130610000049e+00,5.242413162469999888e-01,-9.421066043819999791e+00,-5.463707726449999920e-03,-9.111987426880000310e-03,-2.664720872419999720e-03,1.000000000000000000e+00
2.095389953000000194e+00,-2.528211778930000264e+00,4.928023680190000144e-01,-9.477155010780000666e+00,2.109768334779999876e-03,-8.966432884340000409e-03,7.865043357010000069e-03,1.000000000000000000e+00
2.100208717000000114e+00,-2.492842943909999942e+00,5.085085442600000283e-01,-9.441977898939999392e+00,-9.620074182750000188e-03,-3.158770501610000045e-03,9.081412106749999977e-03,1.000000000000000000e+00
2.105407115999999856e+00,-2.454676294859999608e+00,5.236908427570000635e-01,-9.474302543960000378e+00,6.894400808959999863e-03,1.948786666619999747e-03,-9.082812815899999476e-03,1.000000000000000000e+00
2.110253441999999868e+00,-2.499803138309999895e+00,5.032825532399999302e-01,-9.495653959550001133e+00,1.090824976560000013e-02,4.755009897050000399e-03,-3.826641710479999903e-03,1.000000000000000000e+00
2.115241300000000102e+00,-2.487629593179999876e+00,5.144711424589999416e-01,-9.444130108539999569e+00,-1.026286091660000115e-02,4.280935972930000055e-03,-1.010323129589999966e-02,1.000000000000000000e+00
2.120421689000000054e+00,-2.509030693120000155e+00,5.203843485579999761e-01,-9.441085334009999386e+00,2.441348508000000007e-03,-3.766539972280000172e-03,3.125193528829999824e-03,1.000000000000000000e+00
2.125264795000000095e+00,-2.485105919920000073e+00,4.961559162300000492e-01,-9.491071892460000825e+00,-1.719660358500000111e-04,1.244643330569999984e-02,5.106890108439999382e-03,1.000000000000000000e+00
2.130198092000000099e+00,-2.516848381140000424e+00,5.360584856930000752e-01,-9.428438618410000416e+00,1.239081495439999956e-03,7.595013827090000072e-03,7.828116416930000487e-03,1.000000000000000000e+00
2.135256950000000042e+00,-2.498828155800000062e+00,5.106808467979999655e-01,-9.470309674930000199e+00,-6.537261884660000577e-03,1.359879598020000135e-02,6.583990063520000525e-03,1.000000000000000000e+00
2.140402701999999824e+00,-2.478142218390000373e+00,5.283288778219999982e-01,-9.493075633489999277e+00,-4.045634064820000271e-03,9.103543125090000606e-04,-5.705270916220000176e-03,1.000000000000000000e+00
2.145250043999999967e+00,-2.494584819139999965e+00,5.105352277820000007e-01,-9.479217788530000632e+00,-9.097277186809998861e-03,-1.718409243039999753e-03,6.328986492010000436e-04,1.000000000000000000e+00
2.150384261000000130e+00,-2.516691437009999532e+00,5.369291310479999968e-01,-9.468759522879999224e+00,2.937634475530000091e-03,5.012046545740000102e-03,-1.046724035399999950e-03,1.000000000000000000e+00
2.155408275000000096e+00,-2.539747318429999901e+00,5.095787307750000439e-01,-9.469638059279999354e+00,5.667374934999999496e-03,-5.651871673759999333e-03,6.972245406359999648e-03,1.000000000000000000e+00
2.160232689999999955e+00,-2.463139879559999912e+00,5.357018908080000141e-01,-9.452323351869999613e+00,8.723833598200001968e-03,5.807892419399999367e-03,3.624281845989999872e-03,1.000000000000000000e+00
2.165414966000000163e+00,-2.484870357599999746e+00,5.311213215519999808e-01,-9.448714513720000596e+00,-3.994291648269999821e-03,-1.692929537969999846e-03,-9.419001638889999695e-03,1.000000000000000000e+00
2.170418399999999970e+00,-2.515348790230000020e+00,5.092909633419999693e-01,-9.488542081719998578e+00,-6.522090407089999216e-04,1.249570772049999993e-02,3.823406063019999922e-03,1.000000000000000000e+00
2.175426551999999791e+00,-2.468492346509999713e+00,5.248377477699999183e-01,-9.480206799570000342e+00,7.208345923569999675e-03,3.077840665359999825e-03,-8.515525609250000627e-03,1.000000000000000000e+00
2.180377050000000150e+00,-2.538560154469999830e+00,5.046759072940000257e-01,-9.482966327410000673e+00,3.689171280709999503e-04,9.491982869799998890e-03,3.110033925619999813e-03,1.000000000000000000e+00
2.185283134000000071e+00,-2.500227793470000126e+00,5.239201214690000219e-01,-9.441357136689999763e+00,2.629697322849999623e-03,-7.101706229149999487e-03,1.615089923139999967e-02,1.000000000000000000e+00
2.190287231000000112e+00,-2.448214697629999659e+00,5.390898527449999866e-01,-9.486035651849999084e+00,-9.234767407179999416e-03,6.594723090529999547e-03,-1.068824902179999967e-02,1.000000000000000000e+00
2.195255044000000044e+00,-2.536349492679999873e+00,5.142739759190000370e-01,-9.472374206250000483e+00,-7.296608528119999772e-04,6.116105243560000446e-03,1.123739173640000066e-03,1.000000000000000000e+00
2.200229638000000154e+00,-2.506929629190000508e+00,5.344518907469999469e-01,-9.471720710780001440e+00,-7.962986826899999884e-03,-1.712774671610000146e-02,4.814394749699999615e-03,1.000000000000000000e+00
2.205402617999999926e+00,-2.512878600720000133e+00,5.120226533280000103e-01,-9.459130109269999309e+00,-2.906354609880000550e-03,1.629300415520000198e-02,2.830703277140000137e-03,1.000000000000000000e+00
2.210395205000000196e+00,-2.500659462879999850e+00,5.405038477289999532e-01,-9.462048627070000606e+00,-1.058211829510000146e-02,7.373102009300000308e-03,3.360083792360000240e-04,1.000000000000000000e+00
2.215238177999999891e+00,-2.498182843629999983e+00,5.082678673720000262e-01,-9.472782202530000362e+00,1.015134993939999924e-02,2.087209746240000288e-02,5.726374220100000512e-04,1.000000000000000000e+00
2.220422579000000063e+00,-2.478460782820000041e+00,5.189795597940000116e-01,-9.469459780110000224e+00,-2.551556192340000140e-02,-2.503330819309999844e-03,-6.107297725980000321e-03,1.000000000000000000e+00
2.225275461999999926e+00,-2.452738604799999944e+00,4.973428975249999939e-01,-9.484411850039998981e+00,3.094161860640000025e-03,5.391292273999999558e-03,-1.206918805839999990e-02,1.000000000000000000e+00
2.230421715999999943e+00,-2.499629827570000185e+00,4.998074610079999980e-01,-9.471518466200000930e+00,1.469426974650000009e-02,9.724920615549999606e-03,9.577082470059998520e-03,1.000000000000000000e+00
2.235442944999999959e+00,-2.496996264199999871e+00,5.440820715420000564e-01,-9.456426111009999858e+00,-3.612016327679999899e-03,7.653550710529999704e-04,1.074323244389999849e-02,1.000000000000000000e+00
2.240232812999999990e+00,-2.486984573269999999e+00,5.130995983770000324e-01,-9.466679793999999148e+00,8.654504083100001202e-03,-2.048046886919999837e-02,2.265087794510000155e-03,1.000000000000000000e+00
2.245257806000000134e+00,-2.491301559690000111e+00,5.309665693810000642e-01,-9.462150333880000375e+00,2.308351453389999742e-03,-1.138467690909999996e-03,-2.029250841589999750e-03,1.000000000000000000e+00
2.250286569000000014e+00,-2.480522976040000049e+00,5.179197485430000469e-01,-9.453979302380000505e+00,3.364073578269999570e-03,-5.434133112430000051e-03,-7.034445181490000393e-03,1.000000000000000000e+00
2.255252619000000180e+00,-2.511673316590000038e+00,5.000826246870000436e-01,-9.451596206639999664e+00,5.929023493079999853e-03,-1.786025613549999808e-02,6.140050012619999859e-03,1.000000000000000000e+00
2.260236638999999936e+00,-2.490984456559999671e+00,5.117761312210000746e-01,-9.473263264039999854e+00,-1.388940680770000061e-02,6.749050691720000217e-03,1.066191866989999945e-02,1.000000000000000000e+00
2.265422044000000135e+00,-2.497688630379999886e+00,4.951591968110000130e-01,-9.471767472530000731e+00,4.696215037259999885e-03,-5.653543397780000368e-03,1.541782729330000087e-02,1.000000000000000000e+00
2.270404992000000011e+00,-2.472540745119999883e+00,5.311304912389999133e-01,-9.444187976210001167e+00,6.844074465329999697e-03,1.819762401279999839e-04,3.648842684919999528e-04,1.000000000000000000e+00
2.275259709999999824e+00,-2.543778765899999961e+00,5.358338466240000209e-01,-9.470264082230000824e+00,-1.098021026700000090e-02,-7.480914704499999970e-03,-2.766376128420000406e-03,1.000000000000000000e+00
2.280262479000000120e+00,-2.486012805630000155e+00,5.261050277600000102e-01,-9.470707149819999060e+00,1.739544235169999953e-02,-1.596054248509999954e-02,-5.539372563359999148e-03,1.000000000000000000e+00
2.285280455000000099e+00,-2.536442139400000073e+00,5.140985828190000051e-01,-9.492651855120000093e+00,-7.517494959760000857e-04,3.222683444620000055e-04,6.289781536909999464e-03,1.000000000000000000e+00
2.290246642000000055e+00,-2.465962535770000130e+00,5.213776339119999825e-01,-9.463758353590000283e+00,5.172290839249999968e-04,5.798073485489999707e-03,-2.464108401910000083e-03,1.000000000000000000e+00
2.295378697999999940e+00,-2.487540161329999666e+00,5.181341584780000398e-01,-9.431175349900000171e+00,-2.118468284610000151e-03,2.356567652900000073e-03,-6.297829560939998891e-03,1.000000000000000000e+00
2.300241258999999872e+00,-2.504932025630000059e+00,5.224981623740000414e-01,-9.473205980899999545e+00,8.026858558880000435e-04,1.143976347520000081e-03,2.982832025739999907e-03,1.000000000000000000e+00
2.305408349999999995e+00,-2.493402331359999557e+00,4.912886755199999955e-01,-9.505244794710000278e+00,-1.743015274409999774e-02,-1.196059864010000189e-02,7.304440718140000309e-03,1.000000000000000000e+00
2.310266141000000051e+00,-2.490258188119999883e+00,5.049648072380000796e-01,-9.454024310560001254e+00,1.741239055990000117e-02,-4.968037828799999785e-03,-1.114525645970000124e-02,1.000000000000000000e+00
2.315240777000000083e+00,-2.528325176180000078e+00,4.964253442890000367e-01,-9.467849422300000484e+00,1.392198610119999751e-03,-7.644738070669999247e-03,3.145068883900000497e-03,1.000000000000000000e+00
2.320409673999999978e+00,-2.450744654499999786e+00,5.403524930919999525e-01,-9.467657699120000103e+00,1.135786063970000044e-02,1.893347129229999704e-02,-1.016324944789999928e-02,1.000000000000000000e+00
2.325273790999999868e+00,-2.516940735599999979e+00,5.153142787520000878e-01,-9.484660271850000157e+00,-3.345843404530000464e-03,9.128605946899999088e-03,-2.155442489309999671e-03,1.000000000000000000e+00
2.330235146000000146e+00,-2.516168874439999925e+00,5.500089773730000298e-01,-9.453277291590000075e+00,3.963530063630000405e-03,1.049700658770000013e-04,1.555070653559999933e-02,1.000000000000000000e+00
2.335219764000000087e+00,-2.489406539720000033e+00,5.380128711639999839e-01,-9.469571423789998832e+00,3.317924216389999976e-03,-6.168271414940000238e-03,1.399928703900000029e-02,1.000000000000000000e+00
2.340402913000000140e+00,-2.441620706200000157e+00,4.881987832129999760e-01,-9.451434878589999755e+00,-8.835532935339999788e-04,-6.453321315350000163e-03,-9.861221536990000952e-03,1.000000000000000000e+00
2.345244657999999927e+00,-2.512592769520000324e+00,4.735523816910000017e-01,-9.493179093869999363e+00,6.775148678569999604e-03,-1.132127642629999868e-02,4.114568699149999918e-03,1.000000000000000000e+00
2.350379788000000136e+00,-2.488565120459999669e+00,5.308370247179999835e-01,-9.482079607699999357e+00,2.581524197010000299e-03,-2.022819407280000009e-02,-7.703248411420000712e-03,1.000000000000000000e+00
2.355259204000000217e+00,-2.544654087430000100e+00,5.357673207270000626e-01,-9.464083347760000819e+00,-5.217754747720000294e-03,-6.707658059899999047e-03,6.701406557109999655e-03,1.000000000000000000e+00
2.360400202000000114e+00,-2.549308635240000065e+00,5.120444633009999524e-01,-9.464535767710000158e+00,-8.601592271589998239e-04,-1.366199227050000128e-03,1.352328062060000058e-02,1.000000000000000000e+00
2.365271499999999971e+00,-2.447369040589999933e+00,5.118862039989999779e-01,-9.463511100830000800e+00,4.242639057340000242e-03,-3.761304542419999903e-04,-7.838714867829998934e-03,1.000000000000000000e+00
2.370231634000000032e+00,-2.505121995250000122e+00,5.307349525829999637e-01,-9.479512972089999323e+00,-5.188969895240000060e-03,2.208139188590000496e-02,6.480848882350001214e-03,1.000000000000000000e+00
2.375381340000000119e+00,-2.489560268980000046e+00,5.477084088129999806e-01,-9.457123445619998847e+00,3.867722582070000359e-03,2.561310073360000168e-03,-5.266501568260000508e-03,1.000000000000000000e+00
2.380393440000000194e+00,-2.491064243799999911e+00,5.313724102360000145e-01,-9.421175349410001232e+00,-1.659398432819999972e-03,-3.894458292050000017e-03,-1.694013550880000066e-02,1.000000000000000000e+00
2.385415903999999809e+00,-2.538514854020000211e+00,5.214992144650000272e-01,-9.465062421929999914e+00,-6.774840876459999918e-03,1.720350468530000001e-03,-7.615064270790000180e-03,1.000000000000000000e+00
2.390277114999999952e+00,-2.536816817929999690e+00,5.049349966219999208e-01,-9.447565343680000893e+00,-1.094143558290000019e-02,-4.039269872010000512e-03,9.883856400850000654e-03,1.000000000000000000e+00
2.395403910999999830e+00,-2.456991878330000212e+00,5.203270288800000420e-01,-9.448207733239998518e+00,-7.126447279010001030e-03,2.460173564030000183e-03,-4.040808416900000533e-03,1.000000000000000000e+00
2.400248078999999812e+00,-2.521106038579999709e+00,5.335824509679999439e-01,-9.448104857389999722e+00,8.512266911570001010e-03,-6.534950342030000116e-03,-9.568909183139998401e-03,1.000000000000000000e+00
2.405192931000000200e+00,-2.511203653249999945e+00,4.774687514170000147e-01,-9.450438853290000552e+00,-2.245550043880000131e-03,-1.594942994420000051e-02,6.842506583779999971e-03,1.000000000000000000e+00
2.410391386000000136e+00,-2.493465167460000131e+00,5.144286550240000366e-01,-9.436652904529999830e+00,1.805875799619999960e-03,-6.756216287609999836e-03,1.880472339690000133e-02,1.000000000000000000e+00
2.415417845999999980e+00,-2.453465165509999935e+00,5.382777326450000066e-01,-9.446384024940000401e+00,-1.144468598069999996e-02,1.408074051139999831e-02,-1.018801238390000009e-02,1.000000000000000000e+00
2.420256279999999816e+00,-2.502641576609999863e+00,5.358004923439999567e-01,-9.449344043789999148e+00,1.240166742349999886e-02,3.447322873399999953e-03,-3.761713625859999972e-03,1.000000000000000000e+00
2.425237528999999892e+00,-2.491004914829999972e+00,5.276130211699999739e-01,-9.434862513980000642e+00,4.920743405819999992e-03,7.153724320229999829e-03,-5.145306233320000137e-03,1.000000000000000000e+00
2.430252574999999915e+00,-2.508065939749999806e+00,4.847375733759999861e-01,-9.449481990960000743e+00,-8.150329231279999703e-04,8.305685594680001574e-03,-7.964360527689999525e-03,1.000000000000000000e+00
2.435281987999999842e+00,-2.500796825530000156e+00,5.382868657999999584e-01,-9.441857487430000972e+00,6.895806640390000561e-03,-1.001359429210000110e-02,-8.548654615880000793e-03,1.000000000000000000e+00
2.440253407999999791e+00,-2.522672849509999704e+00,5.703899039599999998e-01,-9.441050262699999251e+00,6.366380956019999753e-03,2.911896677689999793e-03,4.726813640450000173e-03,1.000000000000000000e+00
2.445185060000000021e+00,-2.493858258429999974e+00,5.095889964399998862e-01,-9.459530506769999292e+00,1.861619390549999753e-02,2.247585216539999767e-03,3.443728201090000404e-04,1.000000000000000000e+00
2.450254714000000167e+00,-2.514636550309999663e+00,5.225841236239999743e-01,-9.469208435689999703e+00,-4.454970359800000494e-03,-3.711995901539999823e-03,7.259014528239998883e-03,1.000000000000000000e+00
2.455240868000000187e+00,-2.525571785819999970e+00,5.026974102960000135e-01,-9.438674181219999682e+00,-8.557633496820000324e-03,-4.487955942749999663e-03,9.868152439589999644e-03,1.000000000000000000e+00
2.460219876000000028e+00,-2.475272508170000219e+00,5.155756331019999417e-01,-9.460385662289999331e+00,-2.235835418110000000e-03,1.214529620480000061e-03,-1.065306924279999998e-02,1.000000000000000000e+00
2.465414653999999928e+00,-2.526345400540000341e+00,5.046345889029999476e-01,-9.469908108400000302e+00,8.615539409220000083e-03,3.048130078239999572e-03,1.672569103539999977e-02,1.000000000000000000e+00
2.470409794000000048e+00,-2.510435883750000041e+00,5.202686497559999568e-01,-9.474282085700000522e+00,-2.236739732329999768e-03,4.655914381149999295e-03,6.221519317479999762e-03,1.000000000000000000e+00
2.475324422999999996e+00,-2.528613637729999919e+00,5.538246997360000146e-01,-9.446963286139999028e+00,-9.482995606959998894e-03,-1.788388937710000057e-03,2.859315369280000536e-03,1.000000000000000000e+00
2.480247445999999911e+00,-2.515982704220000254e+00,5.050209944050000344e-01,-9.443568382999998789e+00,7.353141438219999888e-03,6.727464497090000946e-03,2.421885728840000428e-03,1.000000000000000000e+00
2.485269650999999858e+00,-2.450065147809999733e+00,4.898437008759999878e-01,-9.528352698580000890e+00,-4.255426116289999852e-03,-8.384932763869999695e-03,-7.467601448300000347e-03,1.000000000000000000e+00
2.490255418999999915e+00,-2.564680976409999591e+00,5.360481834950000524e-01,-9.438545586400000076e+00,-2.316001802679999982e-03,7.595703005790000080e-03,8.646069094540000111e-03,1.000000000000000000e+00
2.495362456000000062e+00,-2.493560152270000163e+00,5.255703363610000345e-01,-9.399972986899999938e+00,-1.124086789790000075e-02,2.368812216449999938e-03,3.716703969989999801e-03,1.000000000000000000e+00
2.500250100000000142e+00,-2.477375325670000183e+00,4.651286540760000143e-01,-9.500551083939999586e+00,-5.270093679430000108e-03,-4.471314605330000531e-04,4.537053406240000065e-03,1.000000000000000000e+00
2.505161501999999984e+00,-2.504653793209999701e+00,5.108768808260000238e-01,-9.447646007699999515e+00,-9.396673180159999250e-03,-4.214186221360000616e-03,6.295825820419999851e-03,1.000000000000000000e+00
2.510228935999999855e+00,-2.459173606279999813e+00,5.676914586560000142e-01,-9.469094453920000376e+00,-3.215854521839999793e-03,-1.275911275300000043e-02,-1.885218778630000022e-03,1.000000000000000000e+00
2.515223649999999811e+00,-2.504690033569999752e+00,5.475524875989999929e-01,-9.471681547810000268e+00,-1.764407008890000322e-02,2.893250202760000184e-03,-1.670978264880000142e-03,1.000000000000000000e+00
2.520384367000000125e+00,-2.536940444309999876e+00,5.490205143249999864e-01,-9.461770394650001137e+00,-9.887520223860000318e-03,-3.840871853749999992e-03,-1.243842393159999907e-02,1.000000000000000000e+00
2.525271256999999991e+00,-2.489361239279999971e+00,4.702847947300000664e-01,-9.457436749360001116e+00,-4.727440886199999956e-03,1.464468659829999903e-03,-9.063801728190001156e-03,1.000000000000000000e+00
2.530424147000000179e+00,-2.530966046079999643e+00,5.475845997699999579e-01,-9.466979653730000166e+00,-2.835136372599999718e-03,1.172693353150000041e-02,5.776165518909999810e-03,1.000000000000000000e+00
2.535387599999999964e+00,-2.487592476040000111e+00,5.438722647160000312e-01,-9.474737428250000093e+00,-8.127746172250000650e-03,-7.358527742329999677e-03,9.440856054429999644e-03,1.000000000000000000e+00
2.540266910000000156e+00,-2.516826461570000006e+00,5.262529483300000255e-01,-9.464010282529999429e+00,7.685529533770000393e-03,4.171585664149999977e-03,9.579816833139999377e-03,1.000000000000000000e+00
2.545246871999999883e+00,-2.517693599789999848e+00,4.952635705010000056e-01,-9.472088375040000230e+00,1.258108764889999918e-02,-6.219673901799999474e-03,9.283708408469999035e-03,1.000000000000000000e+00
2.550232605000000152e+00,-2.428797026590000296e+00,5.247631846970000069e-01,-9.472973341179999451e+00,-3.851456567650000419e-03,-4.342603962869999445e-03,-3.763690125199999764e-03,1.000000000000000000e+00
2.555267543999999891e+00,-2.511721539640000334e+00,5.820845430039999213e-01,-9.466050848450000998e+00,1.031253952529999959e-03,-2.528829127549999875e-02,1.550628338010000056e-03,1.000000000000000000e+00
2.560262080999999856e+00,-2.471897771040000080e+00,5.545690518299999372e-01,-9.481557045129999750e+00,-3.582403063770000194e-03,-1.534964330489999897e-02,-1.002881862220000170e-02,1.000000000000000000e+00
2.565421124000000219e+00,-2.513974287009999919e+00,5.131752208969999618e-01,-9.459418278560001170e+00,-1.211523264649999945e-02,-1.440900843590000105e-03,-6.566082127389999586e-03,1.000000000000000000e+00
2.570243359000000005e+00,-2.514049982590000010e+00,5.377182721309999858e-01,-9.508585921839998178e+00,9.015768766399999412e-03,-3.650655504320000303e-03,-1.712296972980000042e-03,1.000000000000000000e+00
2.575268685000000168e+00,-2.495320439939999968e+00,5.762469594250000382e-01,-9.452919564189999235e+00,1.312943641099999920e-02,-1.724311849099999802e-03,-4.182098433379999834e-03,1.000000000000000000e+00
2.580250367000000100e+00,-2.535191554819999915e+00,5.201138245209999678e-01,-9.483259172880000420e+00,-1.216609589760000130e-02,-7.881933823230000483e-03,8.902974426750000919e-03,1.000000000000000000e+00
2.585263541999999859e+00,-2.476041154449999837e+00,4.786225610950000098e-01,-9.467433242709999419e+00,-2.485270844769999973e-03,-4.616648424420000119e-03,-8.490413427350001346e-03,1.000000000000000000e+00
2.590423680999999867e+00,-2.529656132519999989e+00,5.169300068529999459e-01,-9.445766185310001006e+00,1.454123295840000114e-02,-1.071162056179999870e-02,-6.742991972710000483e-03,1.000000000000000000e+00
2.595222069000000076e+00,-2.537353701290000263e+00,5.299824171820000096e-01,-9.439407171670000096e+00,-9.261683444489998132e-04,-7.620117627079999942e-03,1.124770380559999942e-02,1.000000000000000000e+00
2.600290414999999911e+00,-2.458286009790000115e+00,5.343280817040000352e-01,-9.481576918880000093e+00,2.542878501119999815e-03,-1.347127603369999843e-03,-4.389279987660000062e-03,1.000000000000000000e+00
2.605214069000000077e+00,-2.513833124970000110e+00,4.914778048839999469e-01,-9.493776475239998902e+00,1.078733336179999933e-02,-1.911376835779999899e-03,-2.445552498099999757e-03,1.000000000000000000e+00
2.610218340999999942e+00,-2.508638186679999826e+00,4.498157149360000329e-01,-9.484821015369998776e+00,-3.419573418800000292e-03,3.438853425909999505e-03,1.238159649069999965e-02,1.000000000000000000e+00
2.615229177999999877e+00,-2.497782446140000445e+00,5.321122688180000004e-01,-9.469176871510001092e+00,-4.844226874409999356e-03,6.882590241729998927e-03,8.951641619209999012e-03,1.000000000000000000e+00
2.620271180000000033e+00,-2.479417060629999892e+00,5.630615338329999497e-01,-9.464747364629999993e+00,-4.987855441870000031e-03,-3.105113515630000126e-03,-1.751833362500000019e-03,1.000000000000000000e+00
2.625324566000000193e+00,-2.542612936989999906e+00,5.299687174499999598e-01,-9.448426344430000512e+00,-1.525648962710000195e-02,3.196775214750000125e-03,9.756220504639999402e-03,1.000000000000000000e+00
2.630416632000000199e+00,-2.540536130720000063e+00,5.597802471399999646e-01,-9.442481756810000348e+00,1.905500306749999826e-03,-4.668478388340000125e-03,1.680027879770000163e-02,1.000000000000000000e+00
2.635411679000000174e+00,-2.502183895970000016e+00,5.690573767140000294e-01,-9.469989941459999727e+00,3.669730853290000244e-03,9.332906920460000725e-04,4.326155874879999974e-03,1.000000000000000000e+00
2.640255010000000180e+00,-2.498475396839999974e+00,5.869300468070000054e-01,-9.455387415610001511e+00,-6.782382261010000066e-03,-9.727673605080000042e-04,3.549560904500000287e-03,1.000000000000000000e+00
2.645223650000000148e+00,-2.511344230759999796e+00,5.831936367580000669e-01,-9.482271330879999738e+00,-1.206862833349999983e-02,1.545259170229999757e-02,1.155061181629999891e-04,1.000000000000000000e+00
2.650263244000000018e+00,-2.515266957170000151e+00,5.169758918210000109e-01,-9.440960830850000818e+00,-1.223310478959999939e-03,-1.110689714549999889e-03,-6.076058372860000320e-03,1.000000000000000000e+00
2.655250738999999971e+00,-2.527200848330000138e+00,4.880968206759999650e-01,-9.475612457520000476e+00,-1.431236974900000148e-03,-2.112898789350000153e-02,-1.587588922119999735e-03,1.000000000000000000e+00
2.660252172999999942e+00,-2.464173606530000171e+00,4.975149296239999575e-01,-9.476418513200000504e+00,1.474149618300000034e-02,-4.624257795510000428e-03,-1.634774915870000275e-02,1.000000000000000000e+00
2.665402203000000192e+00,-2.538645202400000134e+00,4.835608577470000280e-01,-9.446033896330000346e+00,8.292003534730000777e-03,-1.503844396209999979e-03,-1.141232671219999991e-03,1.000000000000000000e+00
2.670294007999999941e+00,-2.498063601170000148e+00,4.737220391690000199e-01,-9.478516362260000605e+00,-1.658834517000000106e-02,-7.370261475439999349e-03,-6.515064742419999924e-04,1.000000000000000000e+00
2.675329114999999813e+00,-2.502543669190000486e+00,4.905946653739999830e-01,-9.461351292450000727e+00,-1.126066315920000015e-03,9.721477981660000102e-04,-8.085543289779999199e-03,1.000000000000000000e+00
2.680273938000000022e+00,-2.527464175440000460e+00,4.916474988949999791e-01,-9.479113743639999257e+00,-1.550034340470000244e-02,6.024928763510000590e-03,-5.270588677379999844e-03,1.000000000000000000e+00
2.685237558999999941e+00,-2.521328449159999874e+00,5.416278833230000478e-01,-9.472584634129999515e+00,-4.075007513169999832e-03,-5.588596221060000528e-03,-8.928283350539998687e-04,1.000000000000000000e+00
2.690264918000000005e+00,-2.519093237459999912e+00,5.561504758030000328e-01,-9.436239647549999887e+00,-1.504505518819999931e-03,-2.593147568400000318e-03,1.166766881940000007e-02,1.000000000000000000e+00
2.695417251999999930e+00,-2.490436175029999699e+00,5.263778898840000275e-01,-9.453031207869999619e+00,-7.765877991909999473e-03,6.706506945190000152e-03,-5.903532728550000240e-03,1.000000000000000000e+00
2.700389792000000178e+00,-2.523269061840000216e+00,5.191217082110000103e-01,-9.459463871269999657e+00,-1.293702516699999933e-03,5.358308553699999907e-03,2.347531728449999897e-03,1.000000000000000000e+00
2.705379433000000056e+00,-2.485731942859999766e+00,5.640421789010000575e-01,-9.486401562560001111e+00,-1.334741339089999881e-02,-6.769482046370000131e-03,-2.108162501830000094e-03,1.000000000000000000e+00
2.710336568999999862e+00,-2.515029933540000151e+00,5.393156973910000485e-01,-9.460916408169998348e+00,-1.721375249330000037e-02,-9.395202621820000072e-03,3.936855122450000181e-03,1.000000000000000000e+00
2.715419940999999948e+00,-2.492814010080000031e+00,5.523819901149999989e-01,-9.476739415720000892e+00,-9.580530226230000307e-03,8.882168680429999852e-03,-1.834079995750000081e-02,1.000000000000000000e+00
2.720388755000000103e+00,-2.570067930150000013e+00,5.215725354290000615e-01,-9.455589660189998469e+00,-9.347523562610000197e-03,-6.874545477330000313e-03,8.306775242089999706e-03,1.000000000000000000e+00
2.725321002999999909e+00,-2.534074533490000114e+00,5.035967337560000034e-01,-9.482119939710001333e+00,-8.439073339099999876e-03,-1.802238170059999997e-03,2.995898947119999926e-03,1.000000000000000000e+00
2.730406405000000092e+00,-2.514348381020000023e+00,5.298334371659999542e-01,-9.465055992189999046e+00,7.851429283620000796e-03,4.401295445859999475e-03,-1.151598407890000193e-03,1.000000000000000000e+00
2.735372578999999860e+00,-2.540609195950000121e+00,4.913288248669999692e-01,-9.514967731830001441e+00,-5.578115116800000037e-03,6.147741340100000215e-03,9.533481672409999108e-03,1.000000000000000000e+00
2.740431888999999899e+00,-2.501491237529999800e+00,4.820276568299999842e-01,-9.484300206360000374e+00,-6.385593675079999886e-03,-3.851543180639999727e-03,7.560733240099999815e-03,1.000000000000000000e+00
2.745243240999999834e+00,-2.511527478380000122e+00,5.394406754770000312e-01,-9.454393728399999475e+00,-2.342626685280000277e-03,5.953280255200000051e-03,2.068929839880000350e-03,1.000000000000000000e+00
2.750239971000000061e+00,-2.508992406940000031e+00,5.636622396720000205e-01,-9.402232164009999948e+00,-9.015760384500000682e-03,-5.076171364640000468e-03,-2.002395223830000237e-03,1.000000000000000000e+00
2.755433271999999878e+00,-2.551049341430000172e+00,5.287610586940000301e-01,-9.448557277329999948e+00,1.884602359500000060e-03,-8.967470377680000077e-03,1.623846776780000015e-02,1.000000000000000000e+00
2.760259668000000222e+00,-2.496255090440000490e+00,5.191664606679999849e-01,-9.460238362769999299e+00,-5.889936815949999536e-03,1.617105444890000248e-03,3.394673578439999853e-03,1.000000000000000000e+00
2.765263506999999787e+00,-2.497718733249999712e+00,5.084592982910000059e-01,-9.454610001499998972e+00,-2.509225532410000112e-02,-5.084949079899999877e-04,-1.462853979319999947e-03,1.000000000000000000e+00
2.770231890999999891e+00,-2.523352063940000445e+00,5.082243204909999701e-01,-9.488713931150000391e+00,1.123439613729999842e-02,-1.503187138589999819e-02,-1.841691788289999800e-03,1.000000000000000000e+00
2.775255501000000180e+00,-2.509502986809999836e+00,5.574612661399999114e-01,-9.424180960970000243e+00,8.719268254940001905e-03,4.666724242270000635e-03,3.416633699089999948e-03,1.000000000000000000e+00
2.780281228999999854e+00,-2.475555416759999794e+00,5.001308112110000037e-01,-9.453458493380001215e+00,-1.187595305960000014e-03,1.201115176079999881e-02,-1.097619533540000053e-02,1.000000000000000000e+00
2.785279061999999861e+00,-2.539593004649999930e+00,5.389603080820000169e-01,-9.510422489610000696e+00,6.608997005970000671e-03,2.022383967410000191e-03,-2.851731376719999957e-03,1.000000000000000000e+00
2.790244379000000219e+00,-2.490058573890000293e+00,5.157315543159999294e-01,-9.445826975580001061e+00,-1.125400885939999916e-04,-1.041781716049999980e-02,-2.008118852970000243e-02,1.000000000000000000e+00
2.795425316999999854e+00,-2.548456694580000015e+00,5.452415803079999623e-01,-9.463347434710000172e+00,-2.161035779860000314e-03,1.196078490470000102e-02,3.052180632949999962e-03,1.000000000000000000e+00
2.800392781000000220e+00,-2.478460198290000083e+00,5.462600731679999599e-01,-9.488057513069998450e+00,1.476001646369999934e-02,-4.792155697939999397e-03,-1.563004776840000096e-02,1.000000000000000000e+00
2.805425800000000081e+00,-2.571476043380000132e+00,5.491959074250000183e-01,-9.437035181839998899e+00,3.589387051760000022e-04,1.302846521139999769e-02,-3.261768491939999980e-03,1.000000000000000000e+00
2.810416458999999811e+00,-2.512102063389999973e+00,5.653839488990000106e-01,-9.475221996889999332e+00,-8.564250543709999580e-03,6.005510687829999916e-03,-2.176517155020000083e-03,1.000000000000000000e+00
2.815432723999999887e+00,-2.531527771609999977e+00,5.286167913849999511e-01,-9.471942244570000113e+00,-2.178403083239999725e-03,-1.102664414789999991e-02,-2.179310657079999627e-03,1.000000000000000000e+00
2.820366629000000014e+00,-2.530765555069999895e+00,4.940721322259999937e-01,-9.472095973830001014e+00,5.752361845229998945e-03,-3.982436843219999689e-03,4.465354140850000438e-03,1.000000000000000000e+00
2.825246110000000144e+00,-2.505487905949999927e+00,5.559190051349999218e-01,-9.455829314160000720e+00,6.438740994779999782e-03,3.134820377449999609e-03,1.888813078399999984e-02,1.000000000000000000e+00
2.830405632999999810e+00,-2.519132692679999952e+00,5.573319406719999813e-01,-9.464166349870000161e+00,7.371899206189999436e-03,-7.946136407550000169e-03,-1.828391570599999932e-03,1.000000000000000000e+00
2.835379666000000132e+00,-2.507210491960000009e+00,4.985288924390000043e-01,-9.494474978899999584e+00,-8.472274057569999239e-04,6.332237273450000599e-03,8.063537999989999622e-03,1.000000000000000000e+00
2.840264508999999826e+00,-2.412276099900000137e+00,5.173970763749999868e-01,-9.491385196190000428e+00,9.273346513510000166e-03,1.739824656399999625e-04,-3.446827409790000074e-03,1.000000000000000000e+00
2.845334015000000161e+00,-2.539613462909999786e+00,5.454079863840000097e-01,-9.454281500200000465e+00,-3.971797879790000402e-03,1.224424457180000019e-03,2.666215877980000325e-03,1.000000000000000000e+00
2.850303106999999780e+00,-2.461398588859999848e+00,5.209834104300000712e-01,-9.509102054660001357e+00,-6.344608962539999807e-03,3.056816523889999918e-03,-8.196031674739999440e-03,1.000000000000000000e+00
2.855278009000000061e+00,-2.502572018499999995e+00,5.285536995530000226e-01,-9.466849889869999757e+00,7.814013399179999680e-03,-7.000806741420000090e-03,-7.704507559540000466e-03,1.000000000000000000e+00
2.860239539000000164e+00,-2.555907887370000076e+00,4.735628665519999725e-01,-9.507585220359999312e+00,1.274143625049999930e-02,8.636770769950001536e-03,9.102072566750000343e-03,1.000000000000000000e+00
2.865420048999999914e+00,-2.506548520920000023e+00,5.213537781120000103e-01,-9.480655127860000420e+00,3.648945596070000442e-03,2.657587174329999972e-04,3.612111788240000062e-03,1.000000000000000000e+00
2.870233031000000157e+00,-2.496501466420000259e+00,5.131960444890000250e-01,-9.463717437060001458e+00,-5.332885775719999402e-03,1.520882174370000173e-02,-1.009285263720000048e-02,1.000000000000000000e+00
2.875387212000000137e+00,-2.505114980990000184e+00,5.202629872010000600e-01,-9.459837965280000205e+00,1.115980092440000022e-02,-1.605573482810000036e-02,-4.702745471149999586e-03,1.000000000000000000e+00
2.880265919999999813e+00,-2.494372637700000173e+00,5.168211396509999611e-01,-9.434336444279999512e+00,2.583134453739999951e-03,-6.235589273270000961e-03,8.639512583610000837e-03,1.000000000000000000e+00
2.885279528999999954e+00,-2.488357322929999782e+00,4.892185912479999899e-01,-9.477248534289998361e+00,-2.380156889559999905e-03,1.413580263029999909e-03,9.353482164439998929e-04,1.000000000000000000e+00
2.890238188000000097e+00,-2.451926996160000094e+00,5.475892394129999730e-01,-9.446885544729999751e+00,6.226775702090000218e-03,-4.856241866950000198e-05,-4.181033000350000100e-04,1.000000000000000000e+00
2.895243616000000131e+00,-2.507545715260000030e+00,5.295927968100000438e-01,-9.480259406540000100e+00,4.785878118130000060e-03,-5.636836402119999728e-03,7.479618769140000331e-03,1.000000000000000000e+00
2.900194159000000216e+00,-2.552835055800000141e+00,4.764596474399999670e-01,-9.454631628810000521e+00,1.405635382980000014e-02,-4.504687152800000358e-03,1.427668519320000017e-02,1.000000000000000000e+00
2.905457731999999904e+00,-2.496065997609999698e+00,4.797925181899999614e-01,-9.479847318610000073e+00,8.627408184110001155e-03,9.749685414139998892e-04,-5.439456086609999186e-03,1.000000000000000000e+00
2.910428226000000063e+00,-2.501768593169999999e+00,5.356859991189999448e-01,-9.465815870650001074e+00,-9.636119939390000097e-03,9.828761219979999589e-03,-3.467101603749999858e-03,1.000000000000000000e+00
2.915417317999999813e+00,-2.509233522220000179e+00,5.394441826079999780e-01,-9.439880634399999693e+00,-6.680989637969999770e-03,1.947056734930000064e-03,7.259631063790000088e-03,1.000000000000000000e+00
2.920240563000000122e+00,-2.528642863830000032e+00,5.083001256739999585e-01,-9.479222464710000295e+00,-1.005273964260000076e-02,-1.958313956859999636e-02,1.049186475570000089e-02,1.000000000000000000e+00
2.925271106999999926e+00,-2.461436290520000014e+00,4.867253131270000144e-01,-9.478103105289999775e+00,7.393188308920000014e-03,1.792654162270000033e-03,4.291562363510000380e-03,1.000000000000000000e+00
2.930155848000000063e+00,-2.480427406709999616e+00,5.785958606379999480e-01,-9.453163894339999374e+00,-1.735376566649999772e-02,-1.537838717920000280e-03,-1.806051703170000015e-03,1.000000000000000000e+00
