t,ax,ay,az,wx,wy,wz,zv
4.995720000000000369e-03,-2.673770296690000325e+00,4.830864086359999976e-01,-9.403542077560000934e+00,-1.113300397990000037e-02,7.786189671610000687e-04,1.317881606520000110e-02,1.000000000000000000e+00
1.002095000000000069e-02,-2.625921334799999673e+00,4.755791748109999828e-01,-9.437515658829999765e+00,-9.900137782100000908e-03,6.817555055020001024e-03,8.860882371660000131e-03,1.000000000000000000e+00
1.505477499999999941e-02,-2.651829098509999927e+00,4.766011382700000021e-01,-9.463312363389999149e+00,8.301500231030000537e-03,7.072470150890000119e-03,9.794777259229999616e-03,1.000000000000000000e+00
1.994711799999999979e-02,-2.586154264819999771e+00,4.492026610710000423e-01,-9.453414654230000380e+00,-8.916219696399999700e-03,6.128743290900000133e-03,-4.668131470680000894e-03,1.000000000000000000e+00
2.486516500000000157e-02,-2.657288532959999561e+00,4.685007973899999456e-01,-9.434795293960000606e+00,-9.487254545090001434e-03,2.590568969030000029e-03,2.071459777650000271e-03,1.000000000000000000e+00
3.002043199999999967e-02,-2.604427295870000325e+00,4.697415912309999553e-01,-9.411011682789999000e+00,1.576871494759999985e-03,-5.621021613479999790e-03,3.864805214109999932e-03,1.000000000000000000e+00
3.499798500000000229e-02,-2.634896668409999698e+00,4.647746895390000299e-01,-9.451572825760001351e+00,-1.577008143069999827e-02,6.995749659840000238e-03,9.632420260459999967e-04,1.000000000000000000e+00
3.998330600000000318e-02,-2.669955999099999921e+00,4.506545038470000097e-01,-9.436940489299999513e+00,-2.817015862090000485e-03,1.177417347209999948e-03,1.218263432379999844e-02,1.000000000000000000e+00
4.498568299999999853e-02,-2.605370714199999771e+00,4.658264270809999719e-01,-9.466001164079999697e+00,-4.442513920370000195e-03,-5.587729625399999629e-03,-3.954324871300000412e-03,1.000000000000000000e+00
4.987339300000000197e-02,-2.648615689429999698e+00,4.826175124819999662e-01,-9.448339835189999647e+00,-8.409556932749999089e-03,-8.422276005149999592e-03,3.951130434869999999e-03,1.000000000000000000e+00
5.488248099999999685e-02,-2.615641348320000059e+00,4.923033689879999786e-01,-9.407187156070000000e+00,-9.266148321330000895e-03,1.143179647620000232e-02,4.333139397200000062e-03,1.000000000000000000e+00
6.002222499999999850e-02,-2.636405027149999913e+00,4.721725447049999747e-01,-9.406368240900000899e+00,4.852441605180000603e-03,-1.459773397070000074e-03,3.545869607480000001e-03,1.000000000000000000e+00
6.501154300000000497e-02,-2.630066764039999949e+00,4.752582722929999948e-01,-9.458673013150001196e+00,-5.863354541360000539e-03,6.962957791979999464e-03,3.748883027579999645e-03,1.000000000000000000e+00
7.002986299999999775e-02,-2.598578862100000109e+00,5.062497324820000033e-01,-9.439434644200000335e+00,-6.514368578789999850e-03,-5.787692032749999424e-03,2.210522070530000164e-03,1.000000000000000000e+00
7.483466699999999361e-02,-2.611946293199999936e+00,4.920012442360000571e-01,-9.448065109899999925e+00,-7.623237092049999289e-03,3.455382073300000082e-03,-6.672829855230000447e-03,1.000000000000000000e+00
8.001912999999999387e-02,-2.649220669580000020e+00,5.054571573330000067e-01,-9.407434993349999885e+00,-5.748549010600000194e-04,4.731644876300000573e-03,5.664422642439999539e-04,1.000000000000000000e+00
8.501179400000000164e-02,-2.622990542040000150e+00,4.958263554819999364e-01,-9.417148578110001722e+00,-8.517480455340000964e-03,1.004301849750000031e-02,-1.390474964859999890e-03,1.000000000000000000e+00
8.983447699999999592e-02,-2.643229320210000122e+00,4.684051184629999809e-01,-9.429711122560000547e+00,-8.026882074770000028e-03,3.348838305100000200e-03,6.272653117780000159e-04,1.000000000000000000e+00
9.501999399999999651e-02,-2.646101076259999907e+00,4.660582630760000122e-01,-9.425030855790000217e+00,9.102549403910000642e-03,1.916769705709999924e-02,5.320449825380000122e-03,1.000000000000000000e+00
9.982390100000000654e-02,-2.667614696669999841e+00,5.031325503100000374e-01,-9.401457087979999017e+00,-1.224235282279999889e-03,3.149147378280000350e-03,2.132016792890000303e-02,1.000000000000000000e+00
1.048819520000000005e-01,-2.559382577750000110e+00,4.563146119679999946e-01,-9.435617131739999053e+00,6.593178026379999633e-03,5.799738690260000662e-03,1.222350634630000113e-03,1.000000000000000000e+00
1.099527950000000059e-01,-2.623147193909999508e+00,4.886662180620000018e-01,-9.422888583069999768e+00,9.281661361459999163e-03,8.135576732459999169e-03,-4.381150007249999534e-03,1.000000000000000000e+00
1.149659320000000068e-01,-2.651196061309999852e+00,4.764901521760000480e-01,-9.450581476629999145e+00,-2.543497364969999567e-03,1.663867756720000327e-02,1.027902588250000082e-02,1.000000000000000000e+00
1.199029070000000030e-01,-2.627343768819999870e+00,4.862383698610000526e-01,-9.426588606630000200e+00,-1.137399114670000107e-02,5.809062160549999763e-03,9.229503571989998781e-03,1.000000000000000000e+00
1.248611280000000018e-01,-2.638149824990000170e+00,4.824870910360000154e-01,-9.450243622980000424e+00,-3.132824786009999907e-04,6.393495015800000104e-03,1.057579182090000007e-02,1.000000000000000000e+00
1.300244319999999953e-01,-2.596496210609999800e+00,4.443552941049999649e-01,-9.456089426400000164e+00,-1.716379821300000053e-02,-1.077605411410000177e-03,-6.588621996339999454e-03,1.000000000000000000e+00
1.350202319999999900e-01,-2.633971662520000034e+00,4.646512823550000282e-01,-9.448964689089999425e+00,-1.402977295220000052e-02,3.072861814869999684e-03,-6.622937042269999748e-03,1.000000000000000000e+00
1.399718140000000000e-01,-2.594199331840000067e+00,5.122881723959999967e-01,-9.429888817220000163e+00,-1.628240570429999876e-04,6.985843647270000446e-04,-1.187498681249999841e-02,1.000000000000000000e+00
1.450228440000000119e-01,-2.672245863600000160e+00,4.658658457760000426e-01,-9.451011100219998795e+00,-7.720529567449999596e-03,-7.478454150260000453e-03,1.512353308499999986e-03,1.000000000000000000e+00
1.500140050000000058e-01,-2.615686941029999879e+00,4.684037302240000034e-01,-9.419729242249999857e+00,3.027356695380000254e-03,-3.119886852800000422e-03,1.988731790329999888e-03,1.000000000000000000e+00
1.550215520000000069e-01,-2.626863876339999848e+00,4.680082646329999929e-01,-9.472883324810000616e+00,1.928921905349999938e-03,1.918693631890000181e-02,-1.062506926250000048e-03,1.000000000000000000e+00
1.600191230000000131e-01,-2.666287539719999877e+00,4.765522576269999866e-01,-9.454566746880001205e+00,3.036999143659999990e-03,8.805461227889999076e-03,7.540908176449999389e-03,1.000000000000000000e+00
1.648465919999999862e-01,-2.599061677179999919e+00,4.860275401220000013e-01,-9.448250987859999839e+00,-1.263933349399999975e-02,5.742029752580000111e-04,-4.624912980939999488e-03,1.000000000000000000e+00
1.699762049999999913e-01,-2.599586285580000045e+00,4.764742604869999787e-01,-9.446245493260001069e+00,-9.758439846340000515e-03,6.160396151239999965e-03,-8.668366819620000607e-03,1.000000000000000000e+00
1.749110650000000045e-01,-2.636444190119999753e+00,5.025858396800000349e-01,-9.457990291589998932e+00,-6.060160230850000773e-04,3.498147940260000130e-03,-4.316559061409999351e-04,1.000000000000000000e+00
1.800074620000000070e-01,-2.622539875669999798e+00,4.872546342310000167e-01,-9.442399923740000034e+00,7.781844120469999862e-03,3.086451673880000017e-03,1.222173683349999859e-03,1.000000000000000000e+00
1.850104079999999873e-01,-2.630443780659999842e+00,4.920141037179999732e-01,-9.449105558860001253e+00,3.535370342429999639e-03,3.075783373789999723e-03,-1.605485682379999973e-03,1.000000000000000000e+00
1.898120189999999985e-01,-2.657431156299999930e+00,4.516230566189999851e-01,-9.445111520790000270e+00,1.959756482389999905e-03,-1.103388797490000017e-02,7.170241791750000572e-03,1.000000000000000000e+00
1.949742550000000130e-01,-2.637391700099999792e+00,5.027108177669999955e-01,-9.438096089069999195e+00,1.252121943980000034e-02,7.481924258170000175e-03,2.263392508030000194e-02,1.000000000000000000e+00
1.998467710000000064e-01,-2.606978733920000124e+00,4.816326296310000088e-01,-9.414256363799999860e+00,-3.157469909640000030e-03,-3.136199433360000333e-03,4.755986854430000951e-03,1.000000000000000000e+00
2.050036919999999874e-01,-2.599469965719999998e+00,4.848714654219999920e-01,-9.442416290360000630e+00,3.011324908579999984e-03,7.506695576010000842e-03,-4.762017633770000355e-03,1.000000000000000000e+00
2.100217869999999876e-01,-2.634081260379999900e+00,4.779100289109999844e-01,-9.432121106310001224e+00,2.255492657419999949e-02,-6.606705021110000076e-03,-8.877910673620001067e-03,1.000000000000000000e+00
2.149916329999999876e-01,-2.645353180499999901e+00,4.574295509399999848e-01,-9.452907289229999677e+00,-1.823108643289999978e-03,6.658020429309999613e-03,4.147308412939999626e-03,1.000000000000000000e+00
2.198641060000000036e-01,-2.600858497469999975e+00,4.874381010389999824e-01,-9.427631978200000873e+00,1.140425330959999890e-03,-2.689675660800000100e-03,-1.316143013540000024e-02,1.000000000000000000e+00
2.249163409999999919e-01,-2.631961491740000270e+00,4.871995795759999637e-01,-9.438360877490000078e+00,-6.574100349100000032e-03,-2.172573655840000229e-02,6.114395800980000108e-03,1.000000000000000000e+00
2.297778669999999968e-01,-2.633168237190000038e+00,4.706000346909999799e-01,-9.442306984760000077e+00,1.018885616209999970e-02,-9.648958221079999590e-04,1.366114988920000099e-02,1.000000000000000000e+00
2.348606679999999947e-01,-2.581438634469999993e+00,4.743891247759999819e-01,-9.417249700399999313e+00,-5.499633494760000629e-03,1.192573364819999975e-02,-5.710866302249999540e-03,1.000000000000000000e+00
2.399648560000000042e-01,-2.579842012929999928e+00,4.881378102739999947e-01,-9.461452999260000496e+00,3.257264848800000070e-03,-1.290135830640000078e-02,-5.715112667529999649e-03,1.000000000000000000e+00
2.450045479999999887e-01,-2.663659529300000273e+00,4.981153797349999746e-01,-9.435715915939999476e+00,8.356592152269999487e-04,1.128577534110000204e-02,2.972440328449999641e-03,1.000000000000000000e+00
2.498697880000000093e-01,-2.634065478290000151e+00,5.160968074319999266e-01,-9.412484093430000698e+00,1.609335094689999870e-02,8.924746885899999954e-03,5.293203052130000634e-03,1.000000000000000000e+00
2.548293569999999786e-01,-2.604121298659999972e+00,4.633427935719999780e-01,-9.458777642570000310e+00,8.223803713919999522e-03,1.352153718470000023e-02,-5.102425348010000000e-03,1.000000000000000000e+00
2.598367939999999821e-01,-2.641978735629999964e+00,5.052350024820000396e-01,-9.433663075060000125e+00,1.482634898279999898e-02,-5.040289834140000008e-03,-2.528727753090000228e-03,1.000000000000000000e+00
2.648255709999999818e-01,-2.641903624570000275e+00,4.862018737749999597e-01,-9.442467728280000472e+00,5.110845901070000009e-03,1.978296227749999983e-02,-1.052930764849999840e-02,1.000000000000000000e+00
2.698262690000000075e-01,-2.650838918429999858e+00,4.813930487210000275e-01,-9.435022672980000635e+00,-4.702683538199999361e-03,1.991383032869999906e-03,2.464502118529999976e-03,1.000000000000000000e+00
2.747594110000000089e-01,-2.625848269559999615e+00,4.836363341359999901e-01,-9.447212876980000118e+00,6.574882660059999488e-03,-1.034599635749999975e-02,6.988694425670000272e-03,1.000000000000000000e+00
2.798011169999999881e-01,-2.545899703579999951e+00,4.822349063729999830e-01,-9.454389636749999326e+00,5.306428298349999406e-03,3.565852297469999585e-03,-7.919810712340000572e-03,1.000000000000000000e+00
2.848004399999999880e-01,-2.655109143100000235e+00,4.621856228939999478e-01,-9.458523960069999958e+00,6.190048996359998924e-03,-3.884745296090000386e-03,3.399660810830000025e-03,1.000000000000000000e+00
2.898035409999999978e-01,-2.670539936459999986e+00,4.730325225349999996e-01,-9.451943997160000777e+00,1.175349857659999976e-02,6.331537850199999741e-03,1.048613712189999832e-02,1.000000000000000000e+00
2.950008920000000145e-01,-2.633407014379999911e+00,4.813976518309999730e-01,-9.439445165589999576e+00,1.377814915029999983e-02,-1.387034775690000176e-03,8.486054837699999465e-03,1.000000000000000000e+00
2.998582819999999760e-01,-2.626675075770000145e+00,4.790064458459999952e-01,-9.451780331030001037e+00,1.299078017470000138e-02,3.885216778139999848e-03,-1.040417328479999876e-02,1.000000000000000000e+00
3.049995010000000062e-01,-2.634887023800000172e+00,5.029527002310000272e-01,-9.415083462269999259e+00,1.782342791559999792e-02,2.698515774680000125e-03,-2.287160372359999926e-03,1.000000000000000000e+00
3.100140869999999937e-01,-2.668719735299999840e+00,4.993310026030000071e-01,-9.436637706960000926e+00,8.441632613539999316e-03,-7.091113366189999781e-03,4.107641056179999438e-03,1.000000000000000000e+00
3.148851550000000277e-01,-2.629668120109999840e+00,4.861433850540000101e-01,-9.450712994059999872e+00,-1.817214768379999974e-03,-8.607281371949999926e-03,-1.197658479210000036e-02,1.000000000000000000e+00
3.199851089999999898e-01,-2.688865574489999855e+00,4.865045099840000220e-01,-9.413420497500000650e+00,6.310958415270000871e-03,-7.533011957999999689e-03,-3.313862718640000257e-03,1.000000000000000000e+00
3.248844229999999778e-01,-2.670823137319999763e+00,5.187023868199999166e-01,-9.399631626119999694e+00,1.553293038160000021e-02,7.233505602930000297e-04,1.315041445199999996e-03,1.000000000000000000e+00
3.298324870000000075e-01,-2.620887724540000185e+00,4.765854657769999503e-01,-9.439828027429999935e+00,8.501954376700000121e-03,4.267609678210000645e-03,2.124030143020000198e-04,1.000000000000000000e+00
3.350384330000000244e-01,-2.656244576870000262e+00,4.814675752619999582e-01,-9.437798567430000674e+00,-1.304666325449999921e-02,1.330351270740000140e-02,1.928435172890000104e-03,1.000000000000000000e+00
3.399205530000000142e-01,-2.637232710149999715e+00,5.065331890659999781e-01,-9.420586735869999728e+00,1.109348726460000030e-03,-3.675223328169999887e-03,2.721779514099999676e-03,1.000000000000000000e+00
3.450455740000000215e-01,-2.589868901420000036e+00,4.753513939370000441e-01,-9.439044183580000080e+00,-7.672514766449998807e-04,9.193316102030000755e-03,-6.884575355800000122e-03,1.000000000000000000e+00
3.498533750000000220e-01,-2.629781225099999897e+00,4.933902509089999611e-01,-9.413147525780001246e+00,2.141020260750000140e-03,1.897366484630000133e-03,7.704001385720000462e-03,1.000000000000000000e+00
3.548529599999999951e-01,-2.584357736790000359e+00,4.764764889769999567e-01,-9.435084632300000607e+00,1.350799482320000182e-02,3.331299172709999753e-03,9.334264323120001344e-03,1.000000000000000000e+00
3.598918449999999880e-01,-2.623559281839999979e+00,4.814859146369999676e-01,-9.428744323360000124e+00,7.087823469189999392e-03,7.063219323749999820e-03,2.939428202810000137e-03,1.000000000000000000e+00
3.650369399999999764e-01,-2.638316413730000143e+00,4.719269359139999787e-01,-9.432354330549999943e+00,2.701378427449999814e-03,1.390525698659999913e-02,5.816094111649999093e-03,1.000000000000000000e+00
3.700359959999999782e-01,-2.652056185270000199e+00,4.662189335299999904e-01,-9.408207731290000098e+00,5.958215799180000168e-03,-2.577315550300000174e-03,1.141378842290000084e-02,1.000000000000000000e+00
3.748664729999999778e-01,-2.619000595620000205e+00,4.563950933259999787e-01,-9.443919680660000537e+00,1.282523479310000020e-02,1.014134753499999937e-02,2.730102278289999861e-05,1.000000000000000000e+00
3.798544269999999945e-01,-2.627505973640000381e+00,4.491218143869999957e-01,-9.449369762759999958e+00,4.604530986399999783e-03,-9.998491033909999784e-03,5.719508510079999823e-03,1.000000000000000000e+00
3.848630900000000188e-01,-2.622542213750000073e+00,4.956175350370000121e-01,-9.441061368619999783e+00,7.411546539520000483e-03,1.048413664100000114e-02,3.786041401329999587e-03,1.000000000000000000e+00
3.898649989999999899e-01,-2.641386614950000045e+00,4.717813534299999945e-01,-9.454635135940000268e+00,9.732768870890000021e-03,9.251509793100000378e-03,1.484341453759999976e-03,1.000000000000000000e+00
3.948651619999999918e-01,-2.621417885900000133e+00,5.161231474490000082e-01,-9.408940137210000998e+00,4.268430639060000371e-03,2.073922660200000370e-04,-2.029783092439999947e-03,1.000000000000000000e+00
3.998589350000000264e-01,-2.624088274150000011e+00,4.969741738110000084e-01,-9.419738594600000070e+00,1.191864255820000024e-02,1.377131603659999953e-02,-6.925563793629999857e-04,1.000000000000000000e+00
4.049276980000000026e-01,-2.625740717529999824e+00,4.732961419080000121e-01,-9.407593983299999962e+00,-1.900927047249999875e-03,1.426453702150000044e-02,6.983547937119999761e-04,1.000000000000000000e+00
4.100136959999999831e-01,-2.643778770790000454e+00,4.924635645180000521e-01,-9.405569199480000364e+00,1.012802962210000018e-02,-4.748514853420000154e-03,-5.635994952170000037e-03,1.000000000000000000e+00
4.150166350000000226e-01,-2.698096344170000105e+00,4.552837710829999995e-01,-9.443318207629999961e+00,-1.910799881440000117e-03,-1.005129702390000074e-02,1.292581856250000008e-02,1.000000000000000000e+00
4.198780730000000183e-01,-2.639967980329999797e+00,4.519360315579999954e-01,-9.410414885939999863e+00,2.071090508250000069e-03,-4.547527991239999796e-03,1.101938262579999807e-02,1.000000000000000000e+00
4.248717790000000050e-01,-2.582348735050000066e+00,4.383471397320000129e-01,-9.460971353219999713e+00,1.327823195610000097e-02,2.450668485840000205e-03,-1.068720221520000173e-02,1.000000000000000000e+00
4.298293160000000168e-01,-2.635413385759999727e+00,4.732044450360000098e-01,-9.417205861260001143e+00,5.864057224239999609e-03,-9.984888136389999044e-03,-3.160543041299999911e-03,1.000000000000000000e+00
4.350386789999999837e-01,-2.626062496829999926e+00,4.946219481290000108e-01,-9.429549209999999348e+00,-1.493009622210000051e-04,-6.440148688850000185e-03,-1.671267487110000144e-02,1.000000000000000000e+00
4.398841780000000146e-01,-2.642816063240000179e+00,4.957848909610000354e-01,-9.424187390710001111e+00,2.542662434280000203e-03,7.741413079199998930e-03,-1.133494824170000123e-02,1.000000000000000000e+00
4.450487069999999878e-01,-2.641214765520000007e+00,4.753239214080000052e-01,-9.452624965160000059e+00,2.479703165590000247e-03,-3.051001112910000051e-04,-7.593198679389999775e-03,1.000000000000000000e+00
4.500118909999999972e-01,-2.564320034150000094e+00,5.016728164879999952e-01,-9.414649162510000835e+00,-4.281867295500000302e-03,1.737778820099999955e-02,-2.204146981240000247e-02,1.000000000000000000e+00
4.549270559999999963e-01,-2.675910523590000256e+00,4.829365883690000527e-01,-9.391105789839999218e+00,1.004954148079999915e-02,1.465313322840000078e-02,7.473224308339999900e-03,1.000000000000000000e+00
4.600005240000000217e-01,-2.574795835449999792e+00,5.026305190719999594e-01,-9.440935696409999522e+00,2.818483393640000036e-03,1.385352760549999999e-02,-1.054845168259999902e-03,1.000000000000000000e+00
4.648473359999999999e-01,-2.612554780479999561e+00,4.981347785549999907e-01,-9.416623092929999217e+00,-7.089587859810000600e-03,1.294378889720000040e-03,2.343902830030000165e-03,1.000000000000000000e+00
4.700256930000000222e-01,-2.604071906559999761e+00,4.625363725600000198e-01,-9.409052949939999522e+00,1.757503836419999988e-03,3.222937928510000161e-03,-1.304656267170000057e-03,1.000000000000000000e+00
4.748720759999999763e-01,-2.641784089840000238e+00,5.208485320040000532e-01,-9.413675933560000431e+00,-4.803086631000000328e-03,2.011354081329999892e-04,4.334258381279999447e-03,1.000000000000000000e+00
4.798281739999999962e-01,-2.604737969250000340e+00,4.835151554420000219e-01,-9.459279162350000547e+00,1.059912983329999898e-02,8.701928891239999603e-03,4.752217791970000092e-04,1.000000000000000000e+00
4.847970890000000144e-01,-2.595513921570000271e+00,4.824657194540000194e-01,-9.447062070339999451e+00,-8.383853361010001545e-03,3.709658281880000037e-03,-1.295881718399999848e-02,1.000000000000000000e+00
4.898262680000000091e-01,-2.629648830890000344e+00,4.682458727809999943e-01,-9.449903431239999207e+00,8.561242371800000667e-03,1.234882278369999874e-03,-2.008943445979999992e-02,1.000000000000000000e+00
4.950461190000000067e-01,-2.678757729710000035e+00,4.659028533179999654e-01,-9.446271212219999214e+00,-9.450813755389999432e-03,9.899958968160000455e-03,-2.807242795830000148e-03,1.000000000000000000e+00
5.000301090000000004e-01,-2.610122292640000286e+00,4.648831914150000633e-01,-9.422685169450000231e+00,-1.287777908150000228e-03,1.330462098119999936e-02,-1.561217755080000075e-02,1.000000000000000000e+00
5.048516269999999695e-01,-2.671353590929999910e+00,4.578391911869999498e-01,-9.417474741319999509e+00,-5.763342138379999591e-03,2.572510158639999649e-03,-3.961131907999999521e-03,1.000000000000000000e+00
5.100271730000000003e-01,-2.626760123710000006e+00,4.564939871230000445e-01,-9.427566511749999378e+00,1.504229963759999913e-03,4.719221033159999926e-03,-5.310668610039999578e-03,1.000000000000000000e+00
5.148681389999999469e-01,-2.612897602569999922e+00,4.672434177399999444e-01,-9.418385426429999541e+00,-2.445065416400000156e-03,1.609600521619999891e-02,-8.744720369580001249e-03,1.000000000000000000e+00
5.198798690000000500e-01,-2.635550163890000075e+00,4.347463022280000366e-01,-9.466766303239998237e+00,1.861231774090000082e-02,-3.602646058430000135e-03,-5.847193300720000646e-03,1.000000000000000000e+00
5.249033990000000482e-01,-2.662989667209999745e+00,4.911358230460000085e-01,-9.416642382150000046e+00,6.072095129639999700e-03,1.329492218790000006e-02,3.646724857389999769e-03,1.000000000000000000e+00
5.298277359999999936e-01,-2.601415546830000203e+00,4.625114938470000214e-01,-9.415928096400000058e+00,2.358603756869999749e-03,-7.055081427100000704e-03,-6.289050914350000250e-03,1.000000000000000000e+00
5.350402130000000422e-01,-2.617279470920000239e+00,4.589230043689999650e-01,-9.413829078300000930e+00,-7.067853584889999957e-03,4.838287830350000707e-03,-2.672579139469999799e-03,1.000000000000000000e+00
5.400284549999999628e-01,-2.631355050279999830e+00,4.959720840959999655e-01,-9.406047338380000511e+00,-5.245276261119999860e-03,1.204420346770000184e-02,-7.423966657369999306e-03,1.000000000000000000e+00
5.450268849999999610e-01,-2.639463830199999972e+00,4.864635203859999923e-01,-9.404817504330001299e+00,5.629797931759999638e-03,1.210469007490000068e-02,-7.506703492250000297e-03,1.000000000000000000e+00
5.500347909999999674e-01,-2.643727917380000125e+00,4.634909698709999692e-01,-9.443163893850000434e+00,-5.189405288550000099e-03,1.320624724029999947e-02,4.410501569509999538e-04,1.000000000000000000e+00
5.548497570000000545e-01,-2.636873813709999848e+00,4.530556832379999954e-01,-9.416524893250000972e+00,5.661556497220000296e-03,1.359134912490000090e-02,-6.434363313019999912e-04,1.000000000000000000e+00
5.598687129999999623e-01,-2.574791743800000088e+00,4.922104665400000023e-01,-9.413066861749999958e+00,-1.024018321189999921e-02,-2.177714603020000118e-03,-1.536379382010000065e-02,1.000000000000000000e+00
5.648907109999999898e-01,-2.636625391900000004e+00,4.754342864469999763e-01,-9.438413484460001612e+00,-5.813581403340000245e-03,1.609776355330000061e-02,-1.215150393549999965e-02,1.000000000000000000e+00
5.700344470000000552e-01,-2.623655143430000170e+00,4.957599757150000230e-01,-9.417690429900000382e+00,1.017241925000000012e-02,1.802295073869999986e-02,-4.983304999770000326e-03,1.000000000000000000e+00
5.748777430000000521e-01,-2.596026547270000151e+00,4.634153108190000037e-01,-9.441510281430000262e+00,9.920762851830000270e-03,1.210313662890000024e-02,-8.542811498049999661e-03,1.000000000000000000e+00
5.800407570000000179e-01,-2.611045252700000319e+00,5.004093358910000067e-01,-9.443062771570000180e+00,5.200713872909999529e-03,9.648522362109999626e-03,-2.366272173820000227e-02,1.000000000000000000e+00
5.849834459999999625e-01,-2.630206172509999885e+00,4.537244493450000027e-01,-9.467296464589999516e+00,1.686603575939999919e-02,1.736715808510000056e-02,-1.661925390360000088e-02,1.000000000000000000e+00
5.898284409999999811e-01,-2.628053670649999951e+00,4.455725609410000065e-01,-9.444742687479999788e+00,2.805572003130000266e-03,2.335487864909999850e-02,-7.658964022989999537e-03,1.000000000000000000e+00
5.950241779999999592e-01,-2.606529236580000131e+00,4.656815021850000402e-01,-9.449069903029998940e+00,2.844404429200000223e-03,-4.720742814240000071e-03,8.528705220670000208e-04,1.000000000000000000e+00
5.998737600000000336e-01,-2.544237907839999924e+00,4.524732437070000390e-01,-9.461071306470000053e+00,1.127691590229999968e-03,2.621771069239999755e-03,-1.946884207430000027e-02,1.000000000000000000e+00
6.048771600000000248e-01,-2.639242588660000166e+00,4.100830952130000151e-01,-9.433000811760001270e+00,2.350933104749999836e-02,-6.961517035960000134e-03,-1.789355091750000071e-02,1.000000000000000000e+00
6.098435960000000433e-01,-2.655463071100000239e+00,4.898330333519999580e-01,-9.429754377180000091e+00,9.233746677639998943e-03,1.627147756520000085e-02,-1.226509548720000099e-02,1.000000000000000000e+00
6.150479660000000015e-01,-2.611621883549999801e+00,5.052077491490000183e-01,-9.424956036989998509e+00,9.131796658040000278e-03,1.793754659590000161e-02,-1.055473461750000043e-02,1.000000000000000000e+00
6.198780149999999489e-01,-2.589924723259999784e+00,4.299695893460000473e-01,-9.445705979550000464e+00,9.641113691030000349e-03,1.476212777199999854e-02,-2.254898892719999891e-03,1.000000000000000000e+00
6.249099409999999688e-01,-2.565218736549999878e+00,4.516279154569999843e-01,-9.427245024710000365e+00,1.544730085879999874e-02,6.529190577569999460e-03,-1.915794610979999757e-02,1.000000000000000000e+00
6.298346550000000210e-01,-2.629356862199999867e+00,4.396639579510000506e-01,-9.447752390689998947e+00,1.650211960079999915e-02,8.090495131909999915e-03,-1.873799599709999666e-02,1.000000000000000000e+00
6.349915879999999957e-01,-2.601687934030000093e+00,4.312013230979999667e-01,-9.448735556509999967e+00,5.136643070729999747e-03,-6.155082955960000050e-04,-1.419701054689999874e-02,1.000000000000000000e+00
6.398352470000000514e-01,-2.581470490909999693e+00,4.702701451499999852e-01,-9.467103572370000109e+00,4.770230967550000492e-03,-3.839159384369999779e-03,-1.661806553599999917e-02,1.000000000000000000e+00
6.450271890000000008e-01,-2.620630242649999886e+00,4.668215390659999908e-01,-9.457253794010000547e+00,1.033731643110000036e-02,1.179522089660000120e-02,-3.967242315409999498e-03,1.000000000000000000e+00
6.499997469999999611e-01,-2.582766668200000115e+00,4.326061118619999868e-01,-9.424818089820000466e+00,7.346377242359999546e-03,1.419784873719999972e-02,-1.024656463410000135e-02,1.000000000000000000e+00
6.550371980000000427e-01,-2.600822549380000126e+00,4.158655510719999615e-01,-9.437636654869999475e+00,7.780979853120000359e-03,1.089389063419999963e-02,-1.052670367060000098e-02,1.000000000000000000e+00
6.598764710000000200e-01,-2.596564307409999994e+00,4.108802369399999765e-01,-9.456051432480000685e+00,-2.466161968190000095e-03,6.546827033159999774e-03,-3.285509301349999901e-03,1.000000000000000000e+00
6.648882409999999910e-01,-2.606828804050000059e+00,4.135729831549999624e-01,-9.433620989480001384e+00,1.514092367140000041e-02,1.243912382049999939e-03,-7.838224992159999530e-03,1.000000000000000000e+00
6.698584469999999680e-01,-2.611554955790000410e+00,4.524423005799999564e-01,-9.473564877339999413e+00,1.195030636150000002e-03,-1.156103238460000175e-02,-4.837851971390000339e-03,1.000000000000000000e+00
6.748601850000000013e-01,-2.618658650320000003e+00,4.696815681399999498e-01,-9.413492978210001638e+00,4.413653165100000532e-03,-1.407130039300000029e-03,-7.749685551970000169e-03,1.000000000000000000e+00
6.800407849999999810e-01,-2.591919111949999799e+00,4.636858348560000120e-01,-9.408250985910001418e+00,4.487016703930000149e-03,4.458098672329999582e-03,-1.091507449749999983e-02,1.000000000000000000e+00
6.849983429999999540e-01,-2.660402573329999854e+00,4.171878857169999955e-01,-9.436634199820000291e+00,7.200510706749999913e-03,9.041647426780001842e-03,1.502811443060000094e-03,1.000000000000000000e+00
6.898539129999999853e-01,-2.582643918609999645e+00,4.481413885149999610e-01,-9.414340534950000006e+00,-4.972402472050000549e-03,3.942330367860000240e-03,-2.258535474540000060e-03,1.000000000000000000e+00
6.950150029999999646e-01,-2.643525965069999817e+00,3.918471082329999522e-01,-9.473769459999999754e+00,-7.126198615880001115e-04,-5.927194375539999484e-03,7.393384817989999760e-03,1.000000000000000000e+00
6.998695980000000372e-01,-2.598613933420000244e+00,4.600114206600000588e-01,-9.432434994570000342e+00,-1.974059734490000301e-03,7.779342122380000519e-04,-7.064746692780000253e-03,1.000000000000000000e+00
7.048562760000000038e-01,-2.608284263559999872e+00,4.956085845459999861e-01,-9.427757065890000732e+00,-5.476136691870000031e-03,1.371869118879999981e-03,1.398430671539999809e-03,1.000000000000000000e+00
7.100228400000000439e-01,-2.634503577440000299e+00,4.587923271940000380e-01,-9.439339367130001435e+00,-1.765544759109999870e-03,-2.227439545089999887e-04,9.488235227760000124e-04,1.000000000000000000e+00
7.149019709999999694e-01,-2.652396961530000041e+00,4.490739931899999648e-01,-9.465333640089999889e+00,-9.673470631239999493e-03,-3.806871594860000100e-03,6.455638911579999507e-03,1.000000000000000000e+00
7.198817250000000278e-01,-2.606977857139999966e+00,4.360318850590000350e-01,-9.457128121800000287e+00,7.722666021440000375e-03,1.048556715249999993e-02,-7.019331213090000687e-03,1.000000000000000000e+00
7.248969299999999949e-01,-2.605165547020000361e+00,4.362485234849999838e-01,-9.418706328949999929e+00,-6.235996726899999121e-03,2.173820277679999573e-03,-4.892424680289999932e-03,1.000000000000000000e+00
7.298281660000000004e-01,-2.634479612040000251e+00,4.823579847630000139e-01,-9.454568500439998857e+00,-1.322056353089999872e-02,-5.836145952340000310e-03,7.629672531039999837e-03,1.000000000000000000e+00
7.348345229999999617e-01,-2.586199273000000076e+00,4.572892656870000128e-01,-9.481638293679999663e+00,1.112735737120000221e-02,9.331154637040001837e-03,-7.758248597379999341e-03,1.000000000000000000e+00
7.398315650000000243e-01,-2.644268600129999758e+00,4.540665042479999913e-01,-9.442212292220000691e+00,9.830812923610000517e-03,-4.805708769710000279e-03,5.878766532989999904e-03,1.000000000000000000e+00
7.448286379999999873e-01,-2.586022455129999731e+00,4.421651271170000119e-01,-9.438151034129999672e+00,1.003072503950000124e-02,8.351881988350001035e-03,-4.172533284869999956e-03,1.000000000000000000e+00
7.498210870000000527e-01,-2.597063781359999712e+00,4.433612780990000002e-01,-9.435878997539999702e+00,1.441914215679999944e-02,-2.962819766250000299e-03,-6.752062123270000625e-03,1.000000000000000000e+00
7.548302340000000443e-01,-2.608684953309999610e+00,4.588025197939999966e-01,-9.437260222769999984e+00,5.254591815169999290e-04,-5.751003511250000859e-03,-2.061504404989999897e-03,1.000000000000000000e+00
7.598283460000000433e-01,-2.610972771990000219e+00,4.385903739029999859e-01,-9.440404366010000103e+00,1.907447236589999810e-03,1.032949518410000017e-02,-1.254391856490000116e-03,1.000000000000000000e+00
7.648250359999999581e-01,-2.638691969040000362e+00,4.765416266350000485e-01,-9.466032143739999682e+00,-6.159237120300000562e-03,8.258458226919999923e-03,-1.900180708619999929e-03,1.000000000000000000e+00
7.698870519999999606e-01,-2.586841954820000122e+00,4.483252937150000172e-01,-9.413182012569999202e+00,2.696520183239999990e-03,6.772506982090000655e-03,-1.083763688799999937e-02,1.000000000000000000e+00
7.748897759999999746e-01,-2.609515266659999888e+00,4.350278956490000182e-01,-9.436968546350000153e+00,4.731224849819999981e-03,8.641129359599999948e-03,-7.137824781239999854e-03,1.000000000000000000e+00
7.798252289999999531e-01,-2.624883808439999910e+00,4.494059650909999482e-01,-9.430694872900000192e+00,-6.710732122879998996e-04,5.655178800229999740e-03,-2.796127926559999980e-03,1.000000000000000000e+00
7.849442370000000446e-01,-2.617022865809999654e+00,4.589306762179999888e-01,-9.425117949549999707e+00,-5.437185056510000433e-03,2.176027512179999884e-03,3.113804385070000590e-03,1.000000000000000000e+00
7.898343719999999513e-01,-2.599068106919999899e+00,4.579695395689999948e-01,-9.402200015300000047e+00,-1.681006327270000156e-02,-6.158952601250000560e-05,-4.376585595310000625e-03,1.000000000000000000e+00
7.950191819999999909e-01,-2.654725696740000362e+00,4.447853560860000055e-01,-9.430735204910000391e+00,-1.428464520720000228e-02,-4.829307086769999736e-03,-4.379590507600000272e-03,1.000000000000000000e+00
7.998853369999999741e-01,-2.643562497690000068e+00,4.909739835479999814e-01,-9.447051548939999321e+00,-9.449096396569999640e-04,4.183943383399999980e-03,-1.786604174409999910e-03,1.000000000000000000e+00
8.048942310000000155e-01,-2.604814541620000146e+00,4.591289752689999837e-01,-9.391292836839998159e+00,-1.417783834039999802e-02,-1.301125530149999966e-02,1.137139648199999957e-02,1.000000000000000000e+00
8.100020380000000353e-01,-2.608048993499999746e+00,4.472578836789999901e-01,-9.405522437720000184e+00,8.915320038800000554e-03,-6.504539400340000020e-03,5.317209754140000272e-03,1.000000000000000000e+00
8.149735909999999972e-01,-2.662467396909999895e+00,4.221025092319999894e-01,-9.439018464610001047e+00,3.103871829810000028e-03,-3.775393124669999736e-03,1.093697175379999831e-02,1.000000000000000000e+00
8.198671520000000434e-01,-2.610870772919999805e+00,4.516662381730000009e-01,-9.452786293200000856e+00,-4.227311816069999860e-03,1.012492831799999965e-02,-2.206390490760000260e-03,1.000000000000000000e+00
8.248897979999999519e-01,-2.606337805669999952e+00,4.256771528490000400e-01,-9.414477897599999423e+00,-9.282466024160000023e-03,3.465480403969999762e-03,4.139889962969999643e-03,1.000000000000000000e+00
8.298268589999999723e-01,-2.571145496250000217e+00,4.848711731610000353e-01,-9.443736725309999969e+00,4.502615425739999420e-03,-2.406963612880000034e-03,-3.960966598239999865e-03,1.000000000000000000e+00
8.350401990000000385e-01,-2.633132873609999702e+00,4.777503813699999213e-01,-9.451368243099999233e+00,-1.275963522489999800e-02,5.462760105729999073e-03,7.882989943029999544e-03,1.000000000000000000e+00
8.398536020000000324e-01,-2.610658006950000054e+00,4.661154731559999931e-01,-9.430371632299999973e+00,-7.210751995440000013e-03,1.817014999690000354e-02,-2.777718706060000164e-03,1.000000000000000000e+00
8.450184290000000153e-01,-2.620854991319999883e+00,4.329000898399999464e-01,-9.422783953650000655e+00,2.381623256949999719e-03,8.613944984969999774e-03,-1.155253499749999899e-02,1.000000000000000000e+00
8.500382640000000434e-01,-2.612753225670000123e+00,4.310825555560000022e-01,-9.476586270989999505e+00,-2.417945768679999764e-03,1.131404377520000074e-02,-1.367738470439999960e-03,1.000000000000000000e+00
8.550114210000000492e-01,-2.615876326119999984e+00,4.419684355010000121e-01,-9.463023025060000037e+00,2.280069747939999939e-05,-1.607774640430000230e-03,1.366586890069999838e-03,1.000000000000000000e+00
8.598717630000000112e-01,-2.608606042859999974e+00,4.621681237699999389e-01,-9.467775772539999579e+00,-2.007857663559999960e-03,4.587992094459999656e-03,-2.496276516469999977e-03,1.000000000000000000e+00
8.648356510000000386e-01,-2.634612006249999805e+00,4.683231758010000245e-01,-9.441718371220000350e+00,-8.399751037360000949e-03,3.647372359409999879e-03,9.428244084119999716e-03,1.000000000000000000e+00
8.698638520000000485e-01,-2.590537886729999961e+00,4.504368059759999987e-01,-9.443053419219999967e+00,6.965461652729999656e-04,1.241253688930000001e-02,3.613178618250000116e-03,1.000000000000000000e+00
8.748821279999999811e-01,-2.612714647220000241e+00,4.602056645900000076e-01,-9.425589658719999875e+00,-7.607510313390000202e-03,-5.337002687160000321e-03,-5.432353354989999210e-03,1.000000000000000000e+00
8.799243709999999830e-01,-2.644926479520000040e+00,4.455626971339999853e-01,-9.463964105300000540e+00,-5.329914391039999692e-03,2.978774951770000057e-03,7.261823397129999608e-03,1.000000000000000000e+00
8.848759069999999616e-01,-2.606661338529999927e+00,4.671178185989999787e-01,-9.444059965910000187e+00,-1.448815129699999871e-02,8.479617536069999212e-03,4.311628639700000078e-03,1.000000000000000000e+00
8.898888929999999586e-01,-2.604552675809999496e+00,4.829856516749999606e-01,-9.406537752250001105e+00,-1.237344089900000062e-02,-4.667874891310000440e-03,-1.112066581849999874e-02,1.000000000000000000e+00
8.948777660000000189e-01,-2.609763980719999932e+00,4.752170269680000003e-01,-9.464785358549999472e+00,-6.420352030550000727e-03,-5.896191578359999061e-04,-5.741334520280000353e-03,1.000000000000000000e+00
8.999617850000000141e-01,-2.615596924659999711e+00,4.699469410780000023e-01,-9.394963049790000298e+00,6.794985849409999716e-03,9.725731797519999739e-05,-7.703131064770000341e-03,1.000000000000000000e+00
9.050366010000000516e-01,-2.607875682760000036e+00,4.209326252030000104e-01,-9.415459309850000125e+00,-1.580796204509999844e-03,1.081431843339999976e-02,-3.662659320980000358e-03,1.000000000000000000e+00
9.099593769999999582e-01,-2.575992059499999876e+00,4.288541389169999718e-01,-9.458709838029999872e+00,-5.239240359509999938e-03,-5.431929603219999396e-03,-1.160433515910000088e-02,1.000000000000000000e+00
9.150527579999999661e-01,-2.689829158820000288e+00,4.063631248410000119e-01,-9.462191250409999199e+00,-5.442760884759999685e-04,1.376464590429999843e-02,1.878673955800000059e-02,1.000000000000000000e+00
9.199146110000000487e-01,-2.598397368060000101e+00,4.254914940839999993e-01,-9.453778226849999911e+00,-1.821077242490000067e-02,1.929222373290000007e-03,-9.346203878520000213e-04,1.000000000000000000e+00
9.248955739999999981e-01,-2.600581141840000221e+00,4.756285669110000280e-01,-9.418195456810000366e+00,4.156058421359999752e-04,1.028753723950000080e-02,-1.387070864440000063e-03,1.000000000000000000e+00
9.298624949999999556e-01,-2.603279002619999893e+00,4.532166094200000273e-01,-9.402131626239999207e+00,-2.388588152829999867e-02,3.925183787940000196e-03,-7.337585091590000108e-03,1.000000000000000000e+00
9.350594370000000488e-01,-2.665622061540000143e+00,4.578557769960000523e-01,-9.424238828630000953e+00,-6.350461859259999911e-03,3.682430833580000590e-04,8.135071024300000175e-03,1.000000000000000000e+00
9.400630020000000364e-01,-2.636457049600000158e+00,4.455374896270000162e-01,-9.470842174380001310e+00,-1.445278618479999867e-02,4.050693474709999783e-03,1.162112876770000046e-02,1.000000000000000000e+00
9.450262900000000466e-01,-2.599129189459999711e+00,4.589681952169999968e-01,-9.428175583559999851e+00,-1.357450522479999866e-02,9.368246421219998329e-03,-7.044600788499999489e-04,1.000000000000000000e+00
9.498779360000000338e-01,-2.604202547199999884e+00,4.708908708639999996e-01,-9.416896064650000397e+00,-1.208297815170000095e-02,7.192105054860000075e-03,-5.688078235830000334e-04,1.000000000000000000e+00
9.550289889999999948e-01,-2.614507668119999906e+00,4.804775047789999753e-01,-9.413077383150000088e+00,-1.623246818779999767e-02,2.521605975929999688e-02,-5.832279566679999909e-04,1.000000000000000000e+00
9.598890310000000037e-01,-2.608816178479999692e+00,4.909403370070000161e-01,-9.430591412530000994e+00,-6.742011755699999984e-03,1.917828433220000045e-02,9.373566135760000306e-03,1.000000000000000000e+00
9.649040380000000194e-01,-2.543559277930000029e+00,4.765644595210000167e-01,-9.443533311689998655e+00,4.817361943420000146e-03,1.044891774650000098e-02,-1.529856771229999753e-02,1.000000000000000000e+00
9.698909869999999822e-01,-2.598608380459999534e+00,4.802309826719999841e-01,-9.427209953400000231e+00,-7.899150252340000206e-03,6.762303411959999858e-03,-5.751472432169999968e-03,1.000000000000000000e+00
9.748941610000000368e-01,-2.601929341569999998e+00,4.867946885689999892e-01,-9.497362517030000006e+00,-1.145841088150000020e-02,1.045417133720000051e-02,5.632131360469999626e-04,1.000000000000000000e+00
9.800023909999999727e-01,-2.580874570850000271e+00,5.027094295269999291e-01,-9.449453933910000103e+00,-1.008379273120000100e-02,-9.187264367940000027e-06,-9.148897603150000016e-03,1.000000000000000000e+00
9.848940309999999476e-01,-2.626134977550000027e+00,5.161665481999999638e-01,-9.412158514739999760e+00,-8.207046193999999401e-04,6.754835136230000203e-03,-2.941366983579999511e-03,1.000000000000000000e+00
9.900538610000000350e-01,-2.610044258970000364e+00,4.221746976860000222e-01,-9.417295877629999978e+00,1.743872300720000160e-03,1.034906785939999907e-02,-7.547935470939999211e-03,1.000000000000000000e+00
9.951019399999999626e-01,-2.591285197959999564e+00,4.384956813570000111e-01,-9.445556341950000601e+00,-1.811371929940000167e-02,1.906076259909999723e-02,-9.424104355280000719e-03,1.000000000000000000e+00
9.999126689999999762e-01,-2.603981305670000079e+00,4.333785210059999948e-01,-9.486146711010000843e+00,9.272971190509999781e-03,-3.376921173190000278e-03,-3.707217518239999589e-03,1.000000000000000000e+00
1.004898092999999992e+00,-2.551057524730000026e+00,4.904519689679999739e-01,-9.481108716849998785e+00,9.096185676749999477e-04,-7.250003982339999799e-04,-1.595582999289999956e-02,1.000000000000000000e+00
1.009834799000000061e+00,-2.614837338459999661e+00,5.003904850600000564e-01,-9.435610117470000446e+00,-1.179584069180000068e-03,1.312181912359999987e-02,1.904235687110000081e-04,1.000000000000000000e+00
1.014840415999999967e+00,-2.526471365009999914e+00,4.765896670279999858e-01,-9.432197678679999697e+00,1.549126300960000126e-02,4.868698306379999792e-03,-2.280638925729999711e-02,1.000000000000000000e+00
1.019924784000000084e+00,-2.617748841999999687e+00,4.989971310059999610e-01,-9.452753559979999665e+00,2.703475579619999888e-02,3.309625899419999916e-03,2.719337586310000172e-03,1.000000000000000000e+00
1.024923712999999958e+00,-2.556432788029999958e+00,4.178535465510000435e-01,-9.486516128849999063e+00,5.300098098810000595e-03,-4.800932947550000211e-03,-7.394471205770000548e-03,1.000000000000000000e+00
1.029853734000000021e+00,-2.588324010070000014e+00,4.622242013380000181e-01,-9.443947153189999000e+00,1.682817563409999898e-02,5.076556466520000012e-03,-2.120127901430000222e-04,1.000000000000000000e+00
1.035071244000000057e+00,-2.562780988010000094e+00,4.539048474130000232e-01,-9.433810374580000158e+00,4.301727749410000183e-03,-3.659079317000000012e-03,5.483175162229999254e-03,1.000000000000000000e+00
1.039886714999999962e+00,-2.600704183690000004e+00,4.564601213860000062e-01,-9.439171609349999770e+00,1.263808645309999999e-02,1.075950637460000060e-02,-1.193440752099999939e-03,1.000000000000000000e+00
1.044884947999999980e+00,-2.599439278320000213e+00,4.241611587949999929e-01,-9.449269809510001394e+00,3.089853562410000126e-03,-1.356949564070000086e-02,5.234913434830000024e-03,1.000000000000000000e+00
1.049885090999999937e+00,-2.603818808579999811e+00,4.338015321909999833e-01,-9.432783369620000968e+00,1.218925230209999891e-02,-2.950866939499999838e-03,1.644001156090000096e-02,1.000000000000000000e+00
1.055003487000000018e+00,-2.575928931140000433e+00,4.318040382309999980e-01,-9.520269345370000025e+00,1.465961243960000118e-02,-1.664800196890000097e-02,2.060647681359999844e-02,1.000000000000000000e+00
1.060027781000000058e+00,-2.524122463789999937e+00,4.452611203710000187e-01,-9.474058798330000641e+00,2.744278684260000045e-02,-1.524197682740000004e-02,2.191763371230000083e-03,1.000000000000000000e+00
1.064898523999999957e+00,-2.567541334279999976e+00,4.551812970899999922e-01,-9.428699315170000261e+00,6.627385504540000451e-03,-2.450097165999999896e-02,4.232702776790000024e-03,1.000000000000000000e+00
1.069891850000000089e+00,-2.595149764439999895e+00,4.764211785930000387e-01,-9.454652671599999891e+00,1.937124505640000147e-02,-1.596952788530000070e-02,1.255676522850000115e-02,1.000000000000000000e+00
1.074911871999999935e+00,-2.585966048770000025e+00,4.939919065969999856e-01,-9.496259524230000082e+00,2.023440971969999932e-02,-1.449767034500000149e-02,1.140355318779999808e-02,1.000000000000000000e+00
1.080050758000000055e+00,-2.587560624480000016e+00,4.534241146909999687e-01,-9.500295647869998916e+00,2.308383397760000247e-02,-2.806357480590000383e-02,2.414802089329999915e-02,1.000000000000000000e+00
1.084904550999999939e+00,-2.509933194920000332e+00,4.215101328299999950e-01,-9.470349422419999996e+00,3.391332551840000459e-02,-3.657006844880000135e-02,5.630289670080000294e-03,1.000000000000000000e+00
1.090037790000000006e+00,-2.562611184400000131e+00,4.678237383780000092e-01,-9.480143671210001344e+00,3.379038348790000534e-02,-4.069494456050000430e-02,1.250964775679999988e-02,1.000000000000000000e+00
1.095048170000000098e+00,-2.565392924079999748e+00,5.441046486999999710e-01,-9.460518348760000862e+00,2.795946225519999745e-02,-3.035320714119999971e-02,2.268428169190000315e-02,1.000000000000000000e+00
1.100065223999999953e+00,-2.576794315799999957e+00,6.874009571420000020e-01,-9.418190196119999413e+00,1.705929636960000148e-02,-3.789978101850000058e-02,1.062942482529999864e-02,1.000000000000000000e+00
1.104980059000000070e+00,-2.622478208609999584e+00,7.443588889650000207e-01,-9.451929384110000498e+00,2.837310731410000106e-02,-5.473295226689999654e-02,-2.816375344990000194e-04,1.000000000000000000e+00
1.110015927999999930e+00,-2.638808288899999965e+00,6.001515300930000407e-01,-9.475414889119999629e+00,2.460102550689999973e-02,-4.034056887030000593e-02,8.721387013790000975e-03,1.000000000000000000e+00
1.115026523999999908e+00,-2.571892807490000266e+00,4.703787566239999718e-01,-9.477692186400000551e+00,2.998109161849999912e-02,-4.808473959569999762e-02,-1.602669712159999951e-03,1.000000000000000000e+00
1.120069211999999981e+00,-2.639965057720000008e+00,3.467862426919999796e-01,-9.469341706679999859e+00,3.704298287629999992e-02,-4.391407966609999630e-02,1.750436797740000106e-02,1.000000000000000000e+00
1.124893044000000009e+00,-2.526096686479999853e+00,3.668310691920000366e-01,-9.460784890739999398e+00,5.229213461280000225e-02,-5.140442401169999231e-02,1.411198638379999870e-02,1.000000000000000000e+00
1.129858073999999935e+00,-2.478557813450000147e+00,4.907215796890000425e-01,-9.422294124310001351e+00,3.928266465659999845e-02,-6.271397322419999809e-02,7.082782220099999998e-03,1.000000000000000000e+00
1.135064317000000100e+00,-2.621165664699999898e+00,4.758066268909999508e-01,-9.404651500110000839e+00,2.534603886309999901e-02,-8.825619518760001447e-02,1.656212471429999861e-02,1.000000000000000000e+00
1.139928159000000107e+00,-2.638479787600000126e+00,5.072878068259999429e-01,-9.364974154239998683e+00,4.886902868750000323e-02,-9.565021097660000859e-02,4.675246309489999690e-03,1.000000000000000000e+00
1.144860556999999890e+00,-2.719425547919999797e+00,4.739979335010000572e-01,-9.381354795669999191e+00,3.029391542080000013e-02,-8.495573699470000684e-02,1.180239766839999947e-02,1.000000000000000000e+00
1.149882692999999900e+00,-2.612401928010000152e+00,4.238377355269999924e-01,-9.372539036530000089e+00,3.023662045599999695e-02,-9.059645235539999508e-02,4.228461999450000390e-03,1.000000000000000000e+00
1.154872861000000084e+00,-2.676126212159999795e+00,5.129559155899999778e-01,-9.400567445669999245e+00,2.007636241609999858e-02,-5.939347669480000286e-02,7.376347202809999809e-03,1.000000000000000000e+00
1.159844144000000021e+00,-2.717262232409999978e+00,5.679535436579999930e-01,-9.384294940780000260e+00,1.899759098890000178e-02,-5.116884410380000137e-02,1.122891344129999837e-02,1.000000000000000000e+00
1.164854502999999930e+00,-2.682870425730000008e+00,6.251438959969999321e-01,-9.362765830539999001e+00,1.658724807199999859e-02,-5.298704653979999929e-02,1.024812087420000177e-02,1.000000000000000000e+00
1.169846820999999926e+00,-2.673614229340000037e+00,5.105005217949999397e-01,-9.413391271400000093e+00,1.979605294759999995e-02,-4.067521542310000016e-02,7.187991868699999433e-03,1.000000000000000000e+00
1.174911218000000090e+00,-2.661477801349999783e+00,3.631965851470000395e-01,-9.385347664700001147e+00,1.960404776040000283e-02,-4.871987551450000092e-02,5.920532625170000021e-03,1.000000000000000000e+00
1.180043799999999976e+00,-2.625890355140000132e+00,3.544702578560000039e-01,-9.417308737110001715e+00,3.490412235260000051e-02,-4.590190574530000206e-02,4.078416153790000338e-03,1.000000000000000000e+00
1.184903926000000052e+00,-2.560771694020000044e+00,4.121070022559999435e-01,-9.459387883419999810e+00,3.190355002879999985e-02,-4.620026797059999940e-02,9.104166179899999753e-03,1.000000000000000000e+00
1.189902172000000036e+00,-2.521488900420000068e+00,3.850999720600000176e-01,-9.549172783770000450e+00,2.396743744609999838e-02,-6.161111220719999587e-02,2.909824252130000562e-03,1.000000000000000000e+00
1.194878515999999946e+00,-2.584775085420000007e+00,2.862390724720000335e-01,-9.443547924739998933e+00,4.214479401710000128e-02,-8.471385389569999202e-02,9.413385763760001232e-03,1.000000000000000000e+00
1.200060117000000037e+00,-2.615123461929999671e+00,3.416516928149999632e-01,-9.381773313350000976e+00,4.255298152570000103e-02,-9.315810352560000007e-02,8.146872743959998955e-03,1.000000000000000000e+00
1.204949631000000076e+00,-2.678015679170000052e+00,3.608799057020000145e-01,-9.378172658510001369e+00,4.436201602219999596e-02,-1.085301339629999862e-01,1.532988063989999990e-02,1.000000000000000000e+00
1.209901509000000042e+00,-2.682209039209999535e+00,3.037874607800000182e-01,-9.519446338550000775e+00,3.447197377680000230e-02,-1.185390502210000030e-01,1.972650550309999751e-02,1.000000000000000000e+00
1.214911791000000019e+00,-2.622691266829999979e+00,3.841916615759999876e-01,-9.559283843419999371e+00,3.757025673989999870e-02,-1.127085611219999922e-01,1.267576962710000033e-02,1.000000000000000000e+00
1.219912488000000073e+00,-2.666210382830000114e+00,5.137967137960000041e-01,-9.443343926599998994e+00,3.372706472870000416e-02,-1.099067926410000062e-01,7.691124919800000626e-03,1.000000000000000000e+00
1.224935488000000072e+00,-2.717634865120000409e+00,4.455158988499999806e-01,-9.378443292140000054e+00,2.555137686429999680e-02,-1.108670756220000025e-01,8.329475298520001500e-03,1.000000000000000000e+00
1.229894427000000068e+00,-2.745073199400000163e+00,3.436539725480000085e-01,-9.334367419050000336e+00,3.888408467169999355e-02,-9.843327105049999581e-02,1.606478914620000295e-02,1.000000000000000000e+00
1.234894920999999979e+00,-2.783067122229999857e+00,3.084807696949999900e-01,-9.302388810989999257e+00,2.681964449579999840e-02,-8.804672211410001503e-02,9.981822222470000325e-03,1.000000000000000000e+00
1.240026945999999963e+00,-2.721023630770000423e+00,2.839565144919999895e-01,-9.365768519480001331e+00,1.732852496209999829e-02,-5.189795047040000886e-02,-1.201745821159999963e-03,1.000000000000000000e+00
1.245040496999999968e+00,-2.762988503059999879e+00,2.428861250930000049e-01,-9.303281960430000552e+00,2.676154486840000291e-02,-5.683808028699999931e-02,6.321045104409999706e-03,1.000000000000000000e+00
1.250045883999999941e+00,-2.697843830709999668e+00,1.927069118910000045e-01,-9.439617015030000502e+00,9.520806372169999393e-03,-4.703406244519998947e-02,1.357755623760000148e-02,1.000000000000000000e+00
1.254883288000000041e+00,-2.622161689999999989e+00,2.840898402820000168e-01,-9.437327442790000021e+00,1.148121990260000079e-02,-3.987650573249999775e-02,1.411167904729999749e-02,1.000000000000000000e+00
1.259882584000000083e+00,-2.675724937890000099e+00,2.529063463860000138e-01,-9.344220704539999645e+00,-9.854710660870000249e-03,-3.962053358550000209e-02,2.414504066110000069e-02,1.000000000000000000e+00
1.265051361999999902e+00,-2.728705125179999857e+00,2.922735668629999894e-01,-9.360321944520000770e+00,-2.966440841559999514e-02,-4.927112162109999888e-02,2.489848248659999944e-02,1.000000000000000000e+00
1.269913622000000020e+00,-2.714443375600000152e+00,2.658247368059999949e-01,-9.389027229999999946e+00,-2.316733635959999579e-02,-5.501443147660000504e-02,2.300408110020000022e-02,1.000000000000000000e+00
1.274766966000000057e+00,-2.692247910400000332e+00,2.630621219579999948e-01,-9.422018229969999936e+00,-2.969937399029999939e-02,-4.952322319150000152e-02,2.375329844649999925e-02,1.000000000000000000e+00
1.279989043999999909e+00,-2.691654912950000256e+00,2.736522338269999910e-01,-9.430765015529999573e+00,-3.414463251830000129e-02,-3.602752462030000408e-02,2.976024337109999668e-02,1.000000000000000000e+00
1.285005928999999991e+00,-2.662411867329999904e+00,3.055155266810000159e-01,-9.450724099980000403e+00,-5.539910867809999528e-02,-4.141029715540000405e-02,3.208010271190000345e-02,1.000000000000000000e+00
1.289876623000000055e+00,-2.767230670670000503e+00,3.676123192299999842e-01,-9.457071423180000380e+00,-6.667440384629999550e-02,-3.644312545660000069e-02,4.503558576109999850e-02,1.000000000000000000e+00
1.294853875000000043e+00,-2.783370489090000177e+00,3.994213063470000158e-01,-9.372554234099998993e+00,-4.718045890329999881e-02,-5.355941131709999331e-02,4.464748501780000517e-02,1.000000000000000000e+00
1.300007955999999965e+00,-2.767242361110000104e+00,4.190522913490000168e-01,-9.439577852060001106e+00,-6.583552062509999414e-02,-3.934282064440000615e-02,3.731394931669999859e-02,1.000000000000000000e+00
1.304897646999999994e+00,-2.763921399990000083e+00,4.848749725529999943e-01,-9.380118531880000887e+00,-4.316119104619999675e-02,-4.652518406509999899e-02,4.416730254890000734e-02,1.000000000000000000e+00
1.309960703000000004e+00,-2.757149129379999675e+00,5.083674552889999587e-01,-9.422649513610000582e+00,-5.032824724909999714e-02,-3.212657570840000282e-02,3.731971234080000421e-02,1.000000000000000000e+00
1.314923041999999986e+00,-2.815875751380000125e+00,5.276793644039999842e-01,-9.417298215710001585e+00,-5.163481831550000012e-02,-2.786686085159999909e-02,2.702282927929999801e-02,1.000000000000000000e+00
1.320024566000000066e+00,-2.842212554160000071e+00,5.821701754610000279e-01,-9.429396065260000626e+00,-5.304932221769999984e-02,-2.985271997750000086e-02,4.706583172079999849e-02,1.000000000000000000e+00
1.324839222999999899e+00,-2.746055196169999935e+00,6.427518872720000553e-01,-9.433753675950001139e+00,-6.226900592450000660e-02,-9.117735549809999687e-03,2.404759638009999756e-02,1.000000000000000000e+00
1.329847368999999890e+00,-2.812344654639999941e+00,5.331443152790000806e-01,-9.456665764980000333e+00,-6.518111377949999119e-02,-1.748291542750000016e-03,3.206305950880000005e-02,1.000000000000000000e+00
1.335057981000000060e+00,-2.759785615360000222e+00,5.333965364749999605e-01,-9.428003149600000299e+00,-4.080435633659999783e-02,-2.560180146249999966e-03,1.270883157849999993e-02,1.000000000000000000e+00
1.339881603999999893e+00,-2.835179586779999816e+00,5.599128970760000046e-01,-9.399896999060000979e+00,-5.261296406390000152e-02,-1.023480668659999988e-03,1.680200174450000028e-02,1.000000000000000000e+00
1.344886661999999955e+00,-2.838006919160000141e+00,6.409821011199999807e-01,-9.381187622409999705e+00,-4.808406531809999301e-02,3.334775334220000092e-03,1.875962316990000336e-02,1.000000000000000000e+00
1.350045189000000034e+00,-2.812913394440000214e+00,6.237519301820000361e-01,-9.441190547959999790e+00,-5.530513823030000498e-02,4.484333097930000116e-03,1.623619161550000217e-02,1.000000000000000000e+00
1.354927251000000110e+00,-2.782027550050000020e+00,6.575749240029999942e-01,-9.379522904069999001e+00,-3.870321810249999911e-02,3.081883303819999906e-02,1.601045951250000044e-04,1.000000000000000000e+00
1.360054791999999901e+00,-2.785933617580000021e+00,6.216220054819999730e-01,-9.406963284179999718e+00,-3.719538077709999557e-02,8.544958196580000609e-03,-9.379351511599999525e-03,1.000000000000000000e+00
1.365043406999999931e+00,-2.786655209850000148e+00,5.610563680229999628e-01,-9.391339598589999227e+00,-3.099956735970000113e-02,3.279532119629999937e-02,-1.292402483520000041e-02,1.000000000000000000e+00
1.369905967000000002e+00,-2.675031402659999724e+00,5.849422339909999824e-01,-9.464449258469999293e+00,-3.253540769220000101e-02,1.693981699650000047e-02,-8.015452884140000095e-03,1.000000000000000000e+00
1.374946097999999894e+00,-2.632213420679999860e+00,5.862855383580000135e-01,-9.560375730309999653e+00,-1.838430576030000013e-02,7.078081835060000921e-04,4.220658913249999457e-03,1.000000000000000000e+00
1.379810395000000023e+00,-2.630658884709999867e+00,5.011986596380000325e-01,-9.496533664990000290e+00,7.966091856360000070e-03,-2.220438048240000461e-02,1.566704548900000118e-02,1.000000000000000000e+00
1.384868160999999986e+00,-2.624741769619999943e+00,4.080745318689999457e-01,-9.422637238649999247e+00,1.744818501170000008e-02,-8.429246954619999416e-04,-4.629978910089999761e-03,1.000000000000000000e+00
1.389787372000000021e+00,-2.720817294539999764e+00,3.132990566969999779e-01,-9.391248997699999990e+00,4.958108533170000470e-03,-2.192843332890000163e-02,8.682949468489999101e-03,1.000000000000000000e+00
1.394825079000000079e+00,-2.718466932030000116e+00,3.101576899310000135e-01,-9.365690193549999876e+00,2.579096704719999709e-03,-1.727674156430000080e-02,-8.475176990029999885e-03,1.000000000000000000e+00
1.399837108999999913e+00,-2.848678243040000169e+00,3.255842089809999895e-01,-9.395043129289998518e+00,-2.108063735069999958e-02,-1.527519617230000022e-02,9.730914607639999311e-03,1.000000000000000000e+00
1.404825317000000018e+00,-2.805461909389999953e+00,4.139232578970000187e-01,-9.351967957670000331e+00,-1.531685609369999937e-02,-1.372126676139999793e-02,1.340102404359999957e-02,1.000000000000000000e+00
1.409819098999999909e+00,-2.821762763590000223e+00,5.364147883169999576e-01,-9.354065222210000030e+00,-1.005983166399999906e-02,-2.250411780550000407e-03,2.577853575350000023e-02,1.000000000000000000e+00
1.414770869999999903e+00,-2.675390006840000279e+00,6.427976261100000199e-01,-9.393288979099999381e+00,-2.564724534749999920e-03,7.009036839010000970e-03,1.009735837579999948e-02,1.000000000000000000e+00
1.419941871000000022e+00,-2.779724241540000307e+00,5.953062089530000156e-01,-9.412371280710001287e+00,-1.936129294340000265e-02,4.495806992050000069e-03,1.181076653299999862e-02,1.000000000000000000e+00
1.424886764000000028e+00,-2.780050404760000315e+00,4.967048918829999882e-01,-9.406318556539998710e+00,7.843092083930001263e-03,4.418978467579999514e-03,3.737219609320000229e-03,1.000000000000000000e+00
1.429824232000000084e+00,-2.713539704760000060e+00,4.420970668499999978e-01,-9.370595501249999515e+00,1.383658149280000103e-03,-1.982605084779999992e-03,-9.364737197760000798e-03,1.000000000000000000e+00
1.435046607999999946e+00,-2.829785911050000102e+00,3.935264030889999987e-01,-9.375459892420000330e+00,-1.271904632449999926e-02,2.245881035920000227e-02,2.844860311599999979e-03,1.000000000000000000e+00
1.440038587999999953e+00,-2.747392582260000271e+00,3.823905304389999538e-01,-9.406524308239998078e+00,-1.199551951140000010e-02,2.973613329229999810e-02,-3.906495869160000328e-03,1.000000000000000000e+00
1.445049285999999933e+00,-2.762938234179999952e+00,4.169408156200000160e-01,-9.396297513260000400e+00,-1.081495918330000090e-02,1.858940720559999760e-02,1.835230272260000113e-03,1.000000000000000000e+00
1.450043232999999931e+00,-2.749195540030000107e+00,4.363902700429999615e-01,-9.354240578780000703e+00,-1.611152291299999817e-02,2.009847201409999812e-02,-7.141442969439999212e-03,1.000000000000000000e+00
1.454858739000000067e+00,-2.761659300279999840e+00,4.089791890910000616e-01,-9.356695570710000354e+00,-1.785323023799999936e-02,1.500398293139999957e-02,-5.112827755510000391e-03,1.000000000000000000e+00
1.459903047999999925e+00,-2.753462257559999848e+00,3.959393094499999988e-01,-9.346243734799999814e+00,-9.074412286280000156e-03,3.017569147049999762e-02,-6.417727563530000682e-04,1.000000000000000000e+00
1.464906167000000092e+00,-2.748848041760000083e+00,4.340139328329999935e-01,-9.351976140979999741e+00,-1.474315579979999964e-02,4.657384753229999730e-02,-7.363829761739999757e-03,1.000000000000000000e+00
1.469901600000000030e+00,-2.766130600479999924e+00,4.199498977760000029e-01,-9.326887292429999476e+00,-9.685085387900000059e-04,3.081077523530000029e-02,-4.137676209209999872e-03,1.000000000000000000e+00
1.474918946999999925e+00,-2.779771295550000243e+00,4.543350920560000339e-01,-9.340203285599999461e+00,-1.516260672359999971e-02,4.499167948959999913e-02,5.090040620419999766e-03,1.000000000000000000e+00
1.480021540000000080e+00,-2.760483826759999815e+00,5.076688054999999311e-01,-9.378791082670000279e+00,-4.282855987549999410e-02,4.824702069159999412e-02,-1.587849482889999719e-02,1.000000000000000000e+00
1.484915530000000095e+00,-2.776699340759999579e+00,5.468764880340000190e-01,-9.372703287180000231e+00,-5.485141649840000189e-02,6.283877789969999350e-02,-1.482579857110000003e-02,1.000000000000000000e+00
1.489890592000000069e+00,-2.783804496590000177e+00,6.044165671260000039e-01,-9.329571416939998585e+00,-4.903811961409999809e-02,6.357263773680001118e-02,-2.059368602929999986e-02,1.000000000000000000e+00
1.494902839999999955e+00,-2.794278836600000204e+00,5.648653683840000328e-01,-9.358330478439999212e+00,-4.496247693900000397e-02,8.445573598149999639e-02,-1.381196081639999955e-02,1.000000000000000000e+00
1.499932065000000092e+00,-2.728018311959999664e+00,5.240922996979999748e-01,-9.385099827419999485e+00,-4.663573205469999372e-02,8.764471113679998815e-02,-2.654219791290000213e-02,1.000000000000000000e+00
1.504922566999999933e+00,-2.700746858679999640e+00,4.254668345660000406e-01,-9.349144716939999711e+00,-4.594448953869999241e-02,8.520402014260002044e-02,-2.282701432699999616e-02,1.000000000000000000e+00
1.510063125999999922e+00,-2.718613647020000190e+00,3.917241759730000217e-01,-9.416886712300000184e+00,-5.448604002589999690e-02,1.044126451019999902e-01,-3.110521472990000064e-02,1.000000000000000000e+00
1.514916418999999959e+00,-2.717385858790000164e+00,4.283846582419999494e-01,-9.419862513239998236e+00,-4.120736196639999960e-02,1.063655018810000102e-01,-1.347454078500000089e-02,1.000000000000000000e+00
1.519905411000000095e+00,-2.633907365109999787e+00,4.824726241189999931e-01,-9.343506418789999657e+00,-4.002710059290000288e-02,8.457866311069998921e-02,-2.444698661569999834e-02,1.000000000000000000e+00
1.524920814999999985e+00,-2.601652570459999758e+00,3.794905712129999498e-01,-9.402670555419998522e+00,-6.080300360919999730e-02,8.179338276389999662e-02,-2.657413296399999819e-02,1.000000000000000000e+00
1.529849165999999983e+00,-2.544828567209999726e+00,3.629595615209999515e-01,-9.357063234980000033e+00,-4.643157869580000902e-02,8.773300051689998658e-02,-1.869370974600000068e-02,1.000000000000000000e+00
1.534849109000000045e+00,-2.483323420420000094e+00,3.362814344860000082e-01,-9.391970882229999873e+00,-4.211338236930000506e-02,7.826907187699999602e-02,-1.255390606820000129e-02,1.000000000000000000e+00
1.540033814000000056e+00,-2.468193363559999742e+00,4.047079415129999913e-01,-9.461335510359999645e+00,-6.304354220629999894e-02,5.781874433159999577e-02,-1.977927424009999838e-02,1.000000000000000000e+00
1.545048838999999896e+00,-2.567927995509999839e+00,4.109835146509999704e-01,-9.446620171789998466e+00,-6.042105704549999984e-02,5.137730017300000396e-02,-4.756349138919999629e-03,1.000000000000000000e+00
1.550042265000000086e+00,-2.625812321459999765e+00,4.038135134240000146e-01,-9.489171611789998906e+00,-7.020925730469999848e-02,3.703507408500000125e-02,-7.927326485510000423e-03,1.000000000000000000e+00
1.554911812999999920e+00,-2.586004042690000393e+00,4.043442227669999944e-01,-9.414930902060000051e+00,-6.057749688630000712e-02,2.872999943790000010e-02,-1.542242430149999913e-02,1.000000000000000000e+00
1.559887151000000083e+00,-2.705743644049999563e+00,5.482075905069999644e-01,-9.456464689449999739e+00,-6.594717502590000113e-02,3.746818378570000024e-02,-4.666525404900000173e-03,1.000000000000000000e+00
1.565049597000000015e+00,-2.634937584949999856e+00,4.746765268829999940e-01,-9.415335975730000584e+00,-6.385529041290000096e-02,2.971475385129999924e-02,-9.816881269219999984e-03,1.000000000000000000e+00
1.570043260999999912e+00,-2.674999546220000024e+00,5.022240206300000454e-01,-9.395128469480001243e+00,-6.740637123579999723e-02,1.216152589769999882e-02,3.274529241030000194e-03,1.000000000000000000e+00
1.575049907999999999e+00,-2.696746098600000252e+00,5.209455991699999400e-01,-9.451099363029999978e+00,-5.642208829519999858e-02,-3.152598161250000277e-03,2.520633861419999990e-03,1.000000000000000000e+00
1.580017430000000056e+00,-2.681647898190000046e+00,5.148569634390000038e-01,-9.461050263680000683e+00,-6.014216318730000732e-02,1.387771219020000023e-02,1.931493170559999990e-03,1.000000000000000000e+00
1.584886083000000001e+00,-2.661848972750000097e+00,5.587483468089999850e-01,-9.460013906369999503e+00,-6.726175546649999781e-02,4.320522770289999571e-03,9.303919970990000982e-03,1.000000000000000000e+00
1.589878810000000087e+00,-2.615145089240000331e+00,5.150287763409999719e-01,-9.408483041100000221e+00,-6.368506699800000059e-02,-6.622781511400000149e-04,1.515081524849999986e-02,1.000000000000000000e+00
1.594883556999999952e+00,-2.573959969150000138e+00,5.727986456020000006e-01,-9.467378882180000232e+00,-4.439534991980000067e-02,8.764658123250000307e-03,3.886658232660000290e-04,1.000000000000000000e+00
1.600018219000000075e+00,-2.613475402459999763e+00,5.920084095170000671e-01,-9.437174298049999521e+00,-3.949908539650000272e-02,-1.230982225389999976e-02,1.757170446220000098e-02,1.000000000000000000e+00
1.604865237000000056e+00,-2.579368842460000089e+00,6.882048939360000395e-01,-9.477952883160000397e+00,-3.787004947659999843e-02,7.937129121270000351e-04,-1.179776154460000087e-02,1.000000000000000000e+00
1.610015114000000080e+00,-2.666672447379999866e+00,5.588709868079999588e-01,-9.442366021479999816e+00,-4.557192325590000287e-02,-2.122457884250000121e-02,2.337319776419999936e-03,1.000000000000000000e+00
1.614877434000000056e+00,-2.664088276109999764e+00,5.626110135859999639e-01,-9.443312946939999009e+00,-3.964770585300000233e-02,-2.067851834000000028e-02,-1.043802872300000038e-02,1.000000000000000000e+00
1.620018626000000017e+00,-2.670397313120000060e+00,5.793401396670000425e-01,-9.423896298800000793e+00,-3.999477624890000055e-02,-1.331245806070000155e-02,-7.023231126370000840e-03,1.000000000000000000e+00
1.624885965000000043e+00,-2.714751126370000378e+00,4.913278750190000488e-01,-9.432170206149999458e+00,-2.693801373240000199e-02,-1.220919098710000067e-02,7.898679003119999514e-03,1.000000000000000000e+00
1.629876241000000059e+00,-2.711893106590000269e+00,4.566767598120000105e-01,-9.460992980529999485e+00,-2.902991883459999853e-02,-2.227742969990000044e-02,8.229307830329999143e-03,1.000000000000000000e+00
1.634857371000000059e+00,-2.677328865949999859e+00,5.568180728660000467e-01,-9.426498005739999186e+00,-3.561373427509999939e-02,-1.348027680070000046e-02,9.579421021039998809e-04,1.000000000000000000e+00
1.640007245000000058e+00,-2.709313611489999829e+00,6.208840465959999388e-01,-9.446007008330001398e+00,-2.019335143270000257e-02,-9.719680994750000760e-03,9.272918105129998242e-03,1.000000000000000000e+00
1.644872706999999989e+00,-2.698042860419999744e+00,5.755063336579999689e-01,-9.466008178350000080e+00,-3.470172360540000472e-02,-4.255139268929999594e-03,1.265953853729999933e-02,1.000000000000000000e+00
1.649901046000000093e+00,-2.664973242249999874e+00,5.318899678369999329e-01,-9.415920497620000162e+00,-1.764231175180000152e-02,-2.570911683140000500e-02,5.001093726609999457e-03,1.000000000000000000e+00
1.655020720000000001e+00,-2.690056245579999672e+00,6.010340485480000217e-01,-9.397364850229999789e+00,-2.298409491779999925e-02,-1.017927564679999876e-02,1.072372496129999839e-02,1.000000000000000000e+00
1.659879246999999891e+00,-2.608428348199999913e+00,5.825766739029999419e-01,-9.445387415119999019e+00,-1.843231357629999956e-02,-2.406426332890000339e-02,3.282306250179999572e-03,1.000000000000000000e+00
1.664902182999999924e+00,-2.607402512290000196e+00,5.410511428809999801e-01,-9.427593984279999617e+00,-2.545451000329999880e-02,-1.965811848640000234e-02,2.321127802130000094e-03,1.000000000000000000e+00
1.669832366999999929e+00,-2.657872762589999827e+00,5.294402000639999439e-01,-9.400842170949999854e+00,-1.576569303870000230e-02,-2.552124485369999807e-02,1.971754804250000145e-02,1.000000000000000000e+00
1.674763226000000049e+00,-2.581761290550000254e+00,5.534541128580000580e-01,-9.351372914389999735e+00,-2.838164381680000070e-02,-2.726907096799999902e-02,2.725173346700000138e-02,1.000000000000000000e+00
1.679790007000000029e+00,-2.579077750559999771e+00,5.507981549889999773e-01,-9.395809437480000526e+00,-2.520023658869999933e-02,-2.927631884809999557e-02,1.807984150950000049e-02,1.000000000000000000e+00
1.684861028999999899e+00,-2.597113757990000327e+00,5.596303538079999695e-01,-9.462360761760001182e+00,-2.374083921309999567e-02,-1.255502086130000014e-02,3.333279117940000230e-02,1.000000000000000000e+00
1.689807843999999948e+00,-2.558356157309999546e+00,5.919866726089999531e-01,-9.449597726289999500e+00,-4.180241003630000285e-02,-3.102948330340000310e-02,1.020027138289999850e-02,1.000000000000000000e+00
1.694819799000000016e+00,-2.702502762439999984e+00,5.435570247550000067e-01,-9.445588490650001390e+00,-3.461848944430000186e-02,-3.939393162730000369e-02,1.747030392290000247e-02,1.000000000000000000e+00
1.699772545000000079e+00,-2.709814839009999421e+00,6.141495507090000139e-01,-9.409469714049999212e+00,-9.971810504790000820e-03,-3.614947944880000236e-02,1.384302973749999832e-02,1.000000000000000000e+00
1.704787156000000081e+00,-2.683751592480000170e+00,7.862875939600000308e-01,-9.433205978939998460e+00,-2.082545310259999866e-02,-3.681810200209999911e-02,1.478357240559999980e-02,1.000000000000000000e+00
1.709758083000000095e+00,-2.701293094379999538e+00,7.953892573699999913e-01,-9.494364504260001780e+00,2.239109948280000074e-03,-3.936094045639999817e-02,8.181149140000001582e-03,1.000000000000000000e+00
1.714726524000000030e+00,-2.691047594700000101e+00,7.906905781590000126e-01,-9.477167870269999739e+00,-1.467159250749999972e-03,-4.541087150569999425e-02,9.154727682469998573e-03,1.000000000000000000e+00
1.719570999999999961e+00,-2.669603824659999791e+00,7.798825492229999323e-01,-9.481222698610000776e+00,1.715649291870000037e-02,-4.008088260889999810e-02,8.855247870090000167e-03,1.000000000000000000e+00
1.724585671000000042e+00,-2.668468390890000208e+00,7.707328088879999983e-01,-9.444945516569999810e+00,2.603409998120000124e-02,-3.871078416709999859e-02,6.298848893489999773e-04,1.000000000000000000e+00
1.729565685000000075e+00,-2.604683024199999863e+00,7.174071691529999573e-01,-9.398496484610001644e+00,3.854402899740000388e-02,-3.537685424090000058e-02,-1.121064089239999853e-02,1.000000000000000000e+00
1.734543052999999890e+00,-2.613038764610000175e+00,6.786549022369999795e-01,-9.472578788910000824e+00,3.583273664119999979e-02,-4.022808372969999963e-02,-1.189238205550000038e-02,1.000000000000000000e+00
1.739757766999999955e+00,-2.679500072509999775e+00,6.373484207930000256e-01,-9.463148697260001185e+00,4.485433176160000257e-02,-6.816941499709999741e-02,-1.317106746139999965e-02,1.000000000000000000e+00
1.744767294000000080e+00,-2.616655493799999732e+00,5.848176942949999679e-01,-9.459824521279999843e+00,6.106051430110000233e-02,-6.580595672130000462e-02,-1.459273323419999976e-02,1.000000000000000000e+00
1.749779999999999891e+00,-2.608845112309999603e+00,5.813152026000000250e-01,-9.453727957969999096e+00,6.084695085880000021e-02,-8.497904241089999922e-02,-2.183776721359999978e-02,1.000000000000000000e+00
1.754679606000000058e+00,-2.690319280429999793e+00,5.487176589209999955e-01,-9.384609413559999780e+00,5.838454514740000489e-02,-7.021535187960001312e-02,-2.971666865049999925e-03,1.000000000000000000e+00
1.759784111999999956e+00,-2.617239431170000241e+00,4.803821911779999621e-01,-9.423899221410000138e+00,5.265235528350000610e-02,-8.778201043610001086e-02,6.699154619129999572e-03,1.000000000000000000e+00
1.764795670000000039e+00,-2.536679455290000273e+00,4.880926924899999797e-01,-9.473211826120000012e+00,2.958825044330000084e-02,-8.327142894269999596e-02,2.138111740349999887e-03,1.000000000000000000e+00
1.769822025999999937e+00,-2.553357033849999791e+00,5.190740331440000244e-01,-9.477452532430000076e+00,5.855716392400000386e-02,-7.813998311760000925e-02,-7.105845492330000075e-03,1.000000000000000000e+00
1.774873007999999919e+00,-2.610066470800000094e+00,4.597526235930000094e-01,-9.465877245439999754e+00,5.945251882080000022e-02,-1.011765301229999997e-01,5.394541192800000017e-03,1.000000000000000000e+00
1.779809267999999944e+00,-2.542899644979999874e+00,4.120318911929999883e-01,-9.175517750310000054e+00,3.014505095780000213e-02,-9.710439294579999159e-02,2.333397232000000016e-02,1.000000000000000000e+00
1.784854286999999928e+00,-2.403694003380000055e+00,4.859317150639999583e-01,-9.389076329839999957e+00,4.576457291839999830e-02,-1.138039827349999894e-01,2.368458174169999972e-02,1.000000000000000000e+00
1.789815152999999937e+00,-2.384622077040000399e+00,3.605691227200000237e-01,-9.568028290890000065e+00,7.167970389130000342e-02,-1.280578076839999913e-01,3.010729514059999959e-02,1.000000000000000000e+00
1.794808074000000087e+00,-2.303324434529999909e+00,2.140685383439999701e-01,-9.692392337180001149e+00,6.312831491230000425e-02,-1.241533011200000036e-01,3.945697098969999650e-02,1.000000000000000000e+00
1.799830937000000075e+00,-2.345264756899999803e+00,2.118057993109999926e-01,-9.694836807719999783e+00,6.339516490699999285e-02,-1.461313515900000137e-01,5.067407339809999745e-02,1.000000000000000000e+00
1.804814900000000000e+00,-2.379761339129999875e+00,2.406274411800000124e-01,-9.667306995760000632e+00,6.638250499959999495e-02,-1.607933938499999937e-01,7.429561018939999373e-02,0.000000000000000000e+00
1.809815009999999891e+00,-2.520951432539999981e+00,3.017116043540000181e-01,-9.696817167879999033e+00,6.230527907609999944e-02,-1.857592165470000056e-01,7.340525090689999088e-02,0.000000000000000000e+00
1.814779042000000064e+00,-2.607316003050000219e+00,2.503553832620000197e-01,-9.739301972389998951e+00,7.012263685460000395e-02,-2.056843042370000152e-01,9.414645284410000370e-02,0.000000000000000000e+00
1.819783657999999971e+00,-2.648786954340000221e+00,4.429258823569999781e-01,-9.780507258480000132e+00,4.985602945090000793e-02,-2.593401372430000351e-01,1.023140996689999999e-01,0.000000000000000000e+00
1.824794237999999957e+00,-2.593672385359999666e+00,5.249733933810000197e-01,-9.772326874639999161e+00,5.056736245750000081e-02,-2.717872560019999884e-01,9.590084850789999671e-02,0.000000000000000000e+00
1.829809352000000056e+00,-2.617998140580000133e+00,4.046064173669999819e-01,-9.927214654010001027e+00,7.215339690449999732e-02,-2.904259562489999724e-01,1.135270148520000077e-01,0.000000000000000000e+00
1.834829406000000107e+00,-2.609601191379999907e+00,4.999076334470000105e-01,-9.916716640869999821e+00,8.135723322630000753e-02,-3.171717822549999788e-01,1.191071867940000084e-01,0.000000000000000000e+00
1.839998436999999987e+00,-2.593011291100000282e+00,5.251435623160000121e-01,-1.002872740149999942e+01,8.678171783690000196e-02,-3.274333178999999650e-01,1.107980981469999932e-01,0.000000000000000000e+00
1.844989406000000054e+00,-2.532024615220000108e+00,6.617769057369999874e-01,-1.001075101540000034e+01,1.039884313939999916e-01,-3.670206367970000327e-01,1.153413653369999986e-01,0.000000000000000000e+00
1.850046915999999930e+00,-2.581590317899999931e+00,5.912247117930000684e-01,-1.008779450749999995e+01,1.335997730490000035e-01,-3.872784078120000140e-01,1.035888493059999999e-01,0.000000000000000000e+00
1.855025563000000099e+00,-2.446555386120000009e+00,5.426610988279999548e-01,-1.013174587750000022e+01,1.536601334809999941e-01,-4.271064400669999928e-01,1.092501208189999989e-01,0.000000000000000000e+00
1.859873128999999903e+00,-2.239469655870000242e+00,6.282508490370000143e-01,-1.035251044289999989e+01,1.497810930010000097e-01,-4.654653370380000266e-01,8.304827660319999416e-02,0.000000000000000000e+00
1.864875261999999978e+00,-2.238702178630000095e+00,5.766885657120000008e-01,-1.050034070489999927e+01,1.566350460050000004e-01,-5.182068943980000508e-01,1.030150502920000044e-01,0.000000000000000000e+00
1.869846982999999963e+00,-2.271209048350000259e+00,5.827164477000000842e-01,-1.078532435229999997e+01,1.678944975140000129e-01,-5.833652019499999675e-01,1.156980693339999949e-01,0.000000000000000000e+00
1.874870488000000002e+00,-1.823781361059999773e+00,6.187077985350000198e-01,-1.095636480950000013e+01,2.003801316019999945e-01,-6.529200673100000740e-01,1.537953764200000184e-01,0.000000000000000000e+00
1.879855119999999991e+00,-1.492272986189999928e+00,8.517555069100000154e-01,-1.099436223950000091e+01,2.507182955739999941e-01,-7.488843798639999161e-01,1.575055122379999950e-01,0.000000000000000000e+00
1.885022227999999966e+00,-1.560755132400000189e+00,1.134896814300000001e+00,-1.128698324980000045e+01,3.289109766480000085e-01,-8.356023430819999875e-01,1.665909737350000086e-01,0.000000000000000000e+00
1.889800232000000024e+00,-1.473149768050000086e+00,8.974104658859999306e-01,-1.148987547390000152e+01,3.679283857349999742e-01,-1.013266563419999988e+00,1.634636074299999908e-01,0.000000000000000000e+00
1.894873561000000040e+00,-1.322018856989999991e+00,9.106881728719999902e-01,-1.226715047099999900e+01,3.793608248229999869e-01,-1.175177812579999870e+00,1.147366687659999857e-01,0.000000000000000000e+00
1.899852899999999956e+00,-9.653609894320001050e-01,-7.861972853279999840e-02,-1.221817455089999882e+01,3.373171985149999719e-01,-1.373009681699999929e+00,7.247287780050000461e-02,0.000000000000000000e+00
1.904855063999999931e+00,-8.198772174160000592e-01,-4.032696158060000147e-01,-1.246871583039999898e+01,2.632374167440000301e-01,-1.566779613490000056e+00,-2.074327878650000095e-02,0.000000000000000000e+00
1.910010450999999998e+00,-1.469170927550000005e+00,-3.988664124109999598e-01,-1.289838267390000048e+01,9.191002696750000256e-02,-1.789726376529999996e+00,-8.776880800719999431e-02,0.000000000000000000e+00
1.914871482999999985e+00,-1.476826118480000005e+00,-7.774300415049999469e-01,-1.222227906359999849e+01,-6.393324583769999236e-02,-2.000019550320000228e+00,-1.128171756860000124e-01,0.000000000000000000e+00
1.919861604999999916e+00,-1.562114291919999953e+00,-2.402554477959999879e+00,-1.196408989970000114e+01,-1.742395460610000057e-01,-2.187931537629999923e+00,-6.014661490920000103e-02,0.000000000000000000e+00
1.924894936000000056e+00,-1.666212964300000099e+00,-3.357883318199999856e+00,-1.225259470690000008e+01,-2.260920107360000209e-01,-2.359341859819999776e+00,6.272874772549999478e-02,0.000000000000000000e+00
1.929873782000000038e+00,-1.951746500579999877e+00,-5.885272674830000383e+00,-1.275508830170000074e+01,-2.841141819949999925e-01,-2.482090234759999792e+00,1.989968568090000056e-01,0.000000000000000000e+00
1.934848214999999927e+00,-2.249355236199999997e+00,-5.328697361219999706e+00,-1.191492342549999961e+01,-3.721046149730000141e-01,-2.679827690119999772e+00,3.564068377019999900e-01,0.000000000000000000e+00
1.939995496999999958e+00,-2.637622586250000012e+00,-3.152055040659999641e+00,-1.190838847069999851e+01,-5.821266770359999621e-01,-2.845363616939999840e+00,3.942478895189999721e-01,0.000000000000000000e+00
1.945014146999999971e+00,-2.587167241249999972e+00,-2.613847158380000035e+00,-1.170909573249999980e+01,-8.357990980149999638e-01,-2.971326112749999915e+00,4.079400300980000060e-01,0.000000000000000000e+00
1.950017818999999930e+00,-3.096588004979999642e+00,-1.682778314649999940e+00,-1.164911443420000126e+01,-1.066634774209999970e+00,-3.055208683010000037e+00,4.608734846120000062e-01,0.000000000000000000e+00
1.955015103000000032e+00,-3.445935695659999798e+00,-5.406514029739999394e-01,-1.135461710859999940e+01,-1.210979104039999976e+00,-3.064602375030000214e+00,5.123745203019999250e-01,0.000000000000000000e+00
1.959876742000000061e+00,-3.849475287509999788e+00,2.852586648659999891e-01,-1.105888877990000019e+01,-1.266329765320000078e+00,-3.051410913469999819e+00,5.645758509639999811e-01,0.000000000000000000e+00
1.964873548999999997e+00,-4.143758093569999801e+00,1.888543760650000097e-02,-1.133424301359999831e+01,-1.317700743679999897e+00,-3.023308277129999944e+00,5.878157019619999479e-01,0.000000000000000000e+00
1.969848921999999947e+00,-4.686265134350000139e+00,-7.130885022359999548e-01,-1.173084111579999878e+01,-1.317396163940000031e+00,-3.053040027620000263e+00,6.360055804249999944e-01,0.000000000000000000e+00
1.975033014000000087e+00,-4.890475747560000030e+00,-1.910872200009999800e+00,-1.207420564039999888e+01,-1.379331111910000240e+00,-3.078538894649999857e+00,7.083765268330000087e-01,0.000000000000000000e+00
1.979818894999999968e+00,-4.893320615600000423e+00,-2.491654318650000199e+00,-1.212522037279999942e+01,-1.487561464309999915e+00,-3.107760190959999669e+00,7.702194452289999882e-01,0.000000000000000000e+00
1.984901577000000028e+00,-4.685217086600000691e+00,-2.800255865180000026e+00,-1.222765666499999959e+01,-1.646287798879999764e+00,-3.122941732410000171e+00,8.489851355549999923e-01,0.000000000000000000e+00
1.989868696999999909e+00,-5.293361259420000131e+00,-3.488328437969999918e+00,-1.243230946900000156e+01,-1.867647171019999996e+00,-3.118827581409999716e+00,9.019240140909999814e-01,0.000000000000000000e+00
1.994905984000000077e+00,-5.737045522389999874e+00,-4.026623414009999458e+00,-1.209778408440000064e+01,-2.112250566480000202e+00,-3.118827581409999716e+00,1.016098976139999888e+00,0.000000000000000000e+00
1.999944525000000084e+00,-6.396496104079999689e+00,-4.005835769790000001e+00,-1.216813246289999917e+01,-2.362405300140000275e+00,-3.116921424869999679e+00,1.134924292560000048e+00,0.000000000000000000e+00
2.004869736999999930e+00,-6.798557147810000423e+00,-3.301991335109999870e+00,-1.240028819079999955e+01,-2.594661235809999855e+00,-3.079704284670000014e+00,1.218891859049999971e+00,0.000000000000000000e+00
2.009890527000000038e+00,-6.926218482080000349e+00,-3.135864953359999596e+00,-1.185545299940000064e+01,-2.800509452820000078e+00,-2.986110687260000063e+00,1.248685836790000003e+00,0.000000000000000000e+00
2.014881366000000007e+00,-7.109898640700000882e+00,-3.028461101959999624e+00,-1.135591591630000075e+01,-3.012669801709999984e+00,-2.891657829279999703e+00,1.259355187420000188e+00,0.000000000000000000e+00
2.020011070999999880e+00,-7.127281152650000173e+00,-2.413894494880000074e+00,-1.132599073359999942e+01,-3.194124937059999780e+00,-2.733816623690000114e+00,1.194670915599999939e+00,0.000000000000000000e+00
2.024900591999999833e+00,-9.721091192919999457e+00,-3.270273423809999969e+00,-1.095428858779999892e+01,-3.380439043049999981e+00,-2.638422965999999814e+00,1.213469982150000126e+00,0.000000000000000000e+00
2.029874318000000066e+00,-9.056247227760000129e+00,-4.200177315410000389e+00,-1.243904082309999914e+01,-3.531396627430000379e+00,-2.458819627760000071e+00,1.224428772930000076e+00,0.000000000000000000e+00
2.034867429000000172e+00,-7.318219319569999826e+00,-2.910608921779999747e+00,-1.254053486589999977e+01,-3.665351390839999723e+00,-2.206322908400000227e+00,1.200343728070000004e+00,0.000000000000000000e+00
2.040036992000000104e+00,-5.215043509510000064e+00,-1.136345624860000125e+00,-1.220367723900000101e+01,-3.659470081330000291e+00,-1.882344961170000053e+00,1.067548632620000104e+00,0.000000000000000000e+00
2.045011097999999805e+00,-3.831910112469999685e+00,-1.068700221739999900e+00,-1.225711539919999993e+01,-3.494117975230000006e+00,-1.553830265999999849e+00,8.476098775859999268e-01,0.000000000000000000e+00
2.050016781000000066e+00,-3.385155063750000082e+00,-2.337458759320000024e+00,-1.224028467589999991e+01,-3.180905580519999720e+00,-1.202713370320000141e+00,5.214099884030000132e-01,0.000000000000000000e+00
2.055022011000000148e+00,-1.761628271750000030e+00,-4.220461686290000181e+00,-1.171143849619999955e+01,-2.831229686740000417e+00,-9.093273282050000628e-01,2.523377537730000023e-02,0.000000000000000000e+00
2.059873438999999973e+00,-5.600697316060000430e-01,-6.527707824310000184e+00,-9.939572615800001287e+00,-2.493039846420000316e+00,-7.302573323250000081e-01,-6.341640353199999858e-01,0.000000000000000000e+00
2.064871702000000031e+00,-9.945584423440000377e-01,-6.536907029809999159e+00,-1.003056396929999927e+01,-2.187237262730000076e+00,-7.344003319740000091e-01,-1.391992330550000156e+00,0.000000000000000000e+00
2.069868410999999853e+00,-2.109665172090000151e+00,-5.862881979330000881e+00,-1.157713523970000047e+01,-1.955895543100000022e+00,-5.645307302469999566e-01,-1.903742551800000182e+00,0.000000000000000000e+00
2.075021362999999841e+00,-9.768046859229999601e-01,-7.193466566219999692e+00,-1.097786352460000003e+01,-1.737411022190000098e+00,-2.835560441019999711e-01,-2.307157754899999969e+00,0.000000000000000000e+00
2.079900107999999914e+00,8.648232974709999521e-01,-7.220235915199999965e+00,-1.058708375339999996e+01,-1.520641922949999891e+00,1.239282712340000064e-01,-2.571583747859999658e+00,0.000000000000000000e+00
2.085020877999999911e+00,1.651118855539999819e+00,-6.575626928819999328e+00,-9.987682274450000008e+00,-1.486613512039999918e+00,3.749974071980000101e-01,-2.821389436720000088e+00,0.000000000000000000e+00
2.090000783999999889e+00,2.077736248379999928e+00,-6.635328241069999855e+00,-9.550803599840000047e+00,-1.643042564390000182e+00,5.192089080809999535e-01,-3.050274133679999888e+00,0.000000000000000000e+00
2.094912234000000151e+00,2.700584361590000260e+00,-6.721781951169999658e+00,-8.647747675410000667e+00,-1.788444399829999698e+00,5.969960093500000786e-01,-3.225875139240000244e+00,0.000000000000000000e+00
2.099987677000000108e+00,2.777108798349999574e+00,-6.053405135709999385e+00,-8.049493612970000100e+00,-1.840382218360000044e+00,6.341720223430000747e-01,-3.363393545149999664e+00,0.000000000000000000e+00
2.104872829000000056e+00,2.439163376170000230e+00,-4.667549035709999572e+00,-7.858568890060000811e+00,-1.816974163060000036e+00,6.804005503650000231e-01,-3.451242685319999559e+00,0.000000000000000000e+00
2.110013176999999907e+00,2.311948470490000407e+00,-3.381157226280000039e+00,-7.967505650119999672e+00,-1.729392290119999842e+00,7.248081564899998552e-01,-3.522694587709999769e+00,0.000000000000000000e+00
2.115037281999999852e+00,2.011330031670000018e+00,-2.784591847580000223e+00,-8.102627237269999227e+00,-1.640825271610000025e+00,8.235564827919999997e-01,-3.530758142469999861e+00,0.000000000000000000e+00
2.119856250999999858e+00,1.809832915200000114e+00,-2.749387555469999800e+00,-7.971390967120000504e+00,-1.540887713429999861e+00,1.054649591450000035e+00,-3.543547153469999600e+00,0.000000000000000000e+00
2.124848914999999838e+00,1.211267521789999968e+00,-2.417040537820000168e+00,-8.055737475800000880e+00,-1.378021478650000020e+00,1.236677408220000052e+00,-3.426603555680000301e+00,0.000000000000000000e+00
2.129867974000000164e+00,1.393755621079999729e+00,-1.931836662110000047e+00,-8.036260621910001234e+00,-1.216605782510000067e+00,1.434906959529999693e+00,-3.365959167479999792e+00,0.000000000000000000e+00
2.135016945999999916e+00,1.594415409939999861e+00,-1.864720543559999832e+00,-8.031906518360001357e+00,-1.116646528239999991e+00,1.577047228810000146e+00,-3.305143594740000523e+00,0.000000000000000000e+00
2.139979927000000171e+00,1.467475667940000061e+00,-2.124471257680000225e+00,-8.266650509249998890e+00,-1.059443116189999978e+00,1.677649140360000235e+00,-3.235854387279999855e+00,0.000000000000000000e+00
2.145014762999999824e+00,1.367274587520000084e+00,-2.490258772640000284e+00,-8.273302952879999950e+00,-1.047129869460000196e+00,1.780321955679999846e+00,-3.203004598619999754e+00,0.000000000000000000e+00
2.150014489000000140e+00,1.029192241090000071e+00,-2.571165077740000360e+00,-8.540531163280000726e+00,-1.049724340440000070e+00,1.911772131920000062e+00,-3.154216766359999813e+00,0.000000000000000000e+00
2.154975405000000066e+00,6.105213502749999854e-01,-2.312369180120000145e+00,-8.766735289369998796e+00,-1.058104634279999789e+00,2.046946287159999933e+00,-3.099234104160000225e+00,0.000000000000000000e+00
2.159863480999999918e+00,2.493388083639999919e-01,-1.989936968899999936e+00,-8.923081450850000707e+00,-1.071494460110000047e+00,2.187213420870000036e+00,-3.065262794490000164e+00,0.000000000000000000e+00
2.164852030000000038e+00,4.534929969430000207e-02,-1.683726116899999958e+00,-8.957917786430000362e+00,-1.064084053039999977e+00,2.296942949299999981e+00,-3.043690919879999957e+00,0.000000000000000000e+00
2.169846026000000094e+00,-2.416191008320000000e-01,-1.429611216710000132e+00,-8.991694968350000039e+00,-1.027351617809999951e+00,2.423782110209999896e+00,-3.024098396299999880e+00,0.000000000000000000e+00
2.175017371000000033e+00,-4.531937034690000088e-01,-1.191115764320000103e+00,-9.004273294900000835e+00,-9.893888831139999729e-01,2.538102388380000018e+00,-2.996763706209999878e+00,0.000000000000000000e+00
2.179853533000000176e+00,-5.705568214920000436e-01,-1.108770220200000045e+00,-9.020569765179999422e+00,-9.050002098080000001e-01,2.654089689250000106e+00,-2.966072082520000208e+00,0.000000000000000000e+00
2.185025807000000153e+00,-7.164925385259999224e-01,-1.121335175800000084e+00,-9.039936144430001264e+00,-8.331544399259999123e-01,2.717097759250000077e+00,-2.956605672840000310e+00,0.000000000000000000e+00
2.189861339000000129e+00,-1.027832716240000055e+00,-1.276091510819999941e+00,-9.144630444610001518e+00,-7.591477632520000629e-01,2.774930000309999478e+00,-2.898346185680000353e+00,0.000000000000000000e+00
2.194835272999999809e+00,-1.284208474039999937e+00,-1.496140621409999927e+00,-9.275783128130001387e+00,-7.134727239610000327e-01,2.833984375000000000e+00,-2.869342803959999522e+00,0.000000000000000000e+00
2.199999489000000086e+00,-1.641252856699999763e+00,-1.729869151649999992e+00,-9.474896418200000170e+00,-6.676028370859999894e-01,2.843821048740000190e+00,-2.819035530089999853e+00,0.000000000000000000e+00
2.204981243000000202e+00,-1.933839234099999915e+00,-2.065055630509999851e+00,-9.694977677500000723e+00,-6.140167713170000541e-01,2.894369840620000467e+00,-2.754730463029999576e+00,0.000000000000000000e+00
2.210010790000000114e+00,-2.238881188450000170e+00,-2.414178572520000010e+00,-9.907944136350000264e+00,-5.898353457450000725e-01,2.939085245130000246e+00,-2.709211587910000052e+00,0.000000000000000000e+00
2.214872592999999945e+00,-2.716035320959999666e+00,-2.791962376349999886e+00,-1.014276411510000031e+01,-5.624228119849999930e-01,2.958785295490000244e+00,-2.607419252400000165e+00,0.000000000000000000e+00
2.219862106999999973e+00,-3.082644235309999647e+00,-3.134916274329999641e+00,-1.036076973720000005e+01,-5.578502416610000569e-01,3.010085582729999931e+00,-2.531573057170000141e+00,0.000000000000000000e+00
2.224850738000000216e+00,-3.375288041990000210e+00,-3.440512793829999971e+00,-1.061336268850000053e+01,-5.743679404260000343e-01,3.027396440510000009e+00,-2.462784051899999938e+00,0.000000000000000000e+00
2.229862001999999954e+00,-3.633275253569999919e+00,-3.626293139589999992e+00,-1.088255138529999932e+01,-5.821529626850000527e-01,3.088478565219999972e+00,-2.392604112629999946e+00,0.000000000000000000e+00
2.234889848999999984e+00,-3.926590968159999750e+00,-3.806856919759999958e+00,-1.112933418900000149e+01,-5.868333578109999893e-01,3.146136760709999702e+00,-2.340319395069999864e+00,0.000000000000000000e+00
2.239987029999999990e+00,-4.270436262030000485e+00,-3.974204075469999875e+00,-1.137408402560000020e+01,-5.914532542229999912e-01,3.192870140080000141e+00,-2.296589136120000152e+00,0.000000000000000000e+00
2.245004669000000064e+00,-4.703064001200000455e+00,-4.134537260760000166e+00,-1.152718316799999876e+01,-5.682199597360000354e-01,3.252529144290000396e+00,-2.254101037979999944e+00,0.000000000000000000e+00
2.250015040000000077e+00,-4.990251588299999597e+00,-4.310827601389999764e+00,-1.154450138260000003e+01,-5.457940697669999564e-01,3.292301893230000331e+00,-2.219009160999999786e+00,0.000000000000000000e+00
2.255022032999999926e+00,-5.210878206519999445e+00,-4.556925345469999833e+00,-1.162442773670000129e+01,-5.475332140919999535e-01,3.347856044769999873e+00,-2.185496807100000272e+00,0.000000000000000000e+00
2.259872554000000200e+00,-5.465069825210000509e+00,-4.732272267769999097e+00,-1.169154487820000021e+01,-5.099148154260000343e-01,3.380219459530000137e+00,-2.201289653779999966e+00,0.000000000000000000e+00
2.264870018999999957e+00,-5.809399979990001128e+00,-4.981998139219999899e+00,-1.168595334180000123e+01,-5.157023668289999474e-01,3.380221366879999856e+00,-2.211808204650000054e+00,0.000000000000000000e+00
2.269855703000000169e+00,-6.042601417619999360e+00,-5.198602077790000386e+00,-1.168643615690000104e+01,-4.827882945539999637e-01,3.400848865509999985e+00,-2.253152370450000053e+00,0.000000000000000000e+00
2.275017586999999786e+00,-6.200895206039999330e+00,-5.288610850019999532e+00,-1.173078967789999894e+01,-4.796020090579999895e-01,3.367591381070000001e+00,-2.323182821270000087e+00,0.000000000000000000e+00
2.279886331000000155e+00,-6.370262177150000760e+00,-5.348132129529999723e+00,-1.168158813229999993e+01,-4.593251049520000184e-01,3.344034433359999614e+00,-2.406963825230000076e+00,0.000000000000000000e+00
2.284855249000000033e+00,-6.663072572569999963e+00,-5.402310878959999840e+00,-1.170723344570000002e+01,-4.198695123200000268e-01,3.341559410099999905e+00,-2.447731971740000123e+00,0.000000000000000000e+00
2.289854857999999993e+00,-6.741949709930000090e+00,-5.431417146460000289e+00,-1.170559444630000101e+01,-4.035802781580000165e-01,3.296700716020000144e+00,-2.534720182420000079e+00,0.000000000000000000e+00
2.295018124999999909e+00,-6.918657691439999091e+00,-5.328506222559999728e+00,-1.171160450040000001e+01,-3.559812903400000339e-01,3.235767841339999951e+00,-2.625909328459999692e+00,0.000000000000000000e+00
2.299887648999999978e+00,-7.216211481989998511e+00,-5.166462141690000287e+00,-1.176961128369999798e+01,-2.864535450940000061e-01,3.176692008970000369e+00,-2.676344156269999885e+00,0.000000000000000000e+00
2.304843387000000021e+00,-7.364784671389999815e+00,-4.987344760950000122e+00,-1.189823064930000029e+01,-2.053023427719999905e-01,3.129585266109999875e+00,-2.738489866259999683e+00,0.000000000000000000e+00
2.310005272999999804e+00,-7.530387321530000122e+00,-4.842773500659999897e+00,-1.188757130820000008e+01,-1.059198975559999950e-01,3.090294599529999964e+00,-2.793644428249999923e+00,0.000000000000000000e+00
2.314864637999999974e+00,-7.767932925840000280e+00,-4.743225038940000360e+00,-1.187973403869999878e+01,-1.079516671600000075e-02,3.038163423540000352e+00,-2.834421157840000483e+00,0.000000000000000000e+00
2.320004572999999848e+00,-7.841566901849999383e+00,-4.701864270019999736e+00,-1.180725916959999999e+01,7.752760499720000309e-02,2.976987361910000018e+00,-2.878568172450000073e+00,0.000000000000000000e+00
2.324896486000000095e+00,-8.019131207930000116e+00,-4.703095273119999753e+00,-1.171270573960000050e+01,1.515136212109999825e-01,2.931391239169999885e+00,-2.879292488099999936e+00,0.000000000000000000e+00
2.330013106000000001e+00,-7.826938072519999956e+00,-4.649488186100000142e+00,-1.151282964849999857e+01,2.209210544819999733e-01,2.876155138019999669e+00,-2.912312984470000199e+00,0.000000000000000000e+00
2.334860341000000172e+00,-7.682441923300000752e+00,-4.537192763259999317e+00,-1.122890749289999945e+01,2.579855024809999953e-01,2.785404682159999812e+00,-2.910093069079999761e+00,0.000000000000000000e+00
2.340008962000000192e+00,-7.300044195939999980e+00,-4.369294987930000040e+00,-1.093094161450000001e+01,2.713108956810000305e-01,2.705063343049999958e+00,-2.932912349700000476e+00,0.000000000000000000e+00
2.345002816000000045e+00,-7.081493799470000461e+00,-4.196756985569999543e+00,-1.068516068119999929e+01,3.006603121759999775e-01,2.598054409029999956e+00,-2.945616483690000287e+00,0.000000000000000000e+00
2.350003477000000007e+00,-6.842229116280000412e+00,-3.969650649950000165e+00,-1.044196801090000015e+01,3.252827823159999965e-01,2.440751552579999650e+00,-2.942990303040000200e+00,0.000000000000000000e+00
2.354871970000000037e+00,-6.728506875509999929e+00,-3.706901923050000214e+00,-1.027510337809999896e+01,3.322477638720000015e-01,2.286918878559999868e+00,-2.948951721190000264e+00,0.000000000000000000e+00
2.360019541000000221e+00,-6.740106712409999368e+00,-3.735464000669999507e+00,-1.041112279080000036e+01,3.432123959060000007e-01,2.124491453170000099e+00,-2.948898315429999695e+00,0.000000000000000000e+00
2.364869027000000123e+00,-7.121629995020000159e+00,-3.879198810130000119e+00,-1.081909685799999998e+01,3.553259074690000019e-01,1.944087147709999908e+00,-2.949057817459999953e+00,0.000000000000000000e+00
2.369853137000000221e+00,-8.093274302510000240e+00,-3.890267024369999938e+00,-1.123521448410000012e+01,3.502554595469999921e-01,1.800789833070000068e+00,-2.918949842449999998e+00,0.000000000000000000e+00
2.375019637999999933e+00,-9.146313867659999985e+00,-3.806805481830000115e+00,-1.164544714390000024e+01,3.366016447540000067e-01,1.706651210779999817e+00,-2.889035940170000316e+00,0.000000000000000000e+00
2.379903494000000119e+00,-1.020151441019999972e+01,-3.387757355199999765e+00,-1.204776654630000188e+01,3.257764279839999721e-01,1.710004925729999847e+00,-2.869695663450000378e+00,0.000000000000000000e+00
2.385017500000000013e+00,-1.119667812500000004e+01,-2.856922339770000097e+00,-1.240753041700000026e+01,3.174478411670000333e-01,1.826328992840000165e+00,-2.834507226940000013e+00,0.000000000000000000e+00
2.389837372000000126e+00,-1.156384671900000072e+01,-2.357445316299999760e+00,-1.244818975969999997e+01,3.486580848690000178e-01,1.971834182740000108e+00,-2.816342353820000088e+00,0.000000000000000000e+00
2.395014085000000126e+00,-1.161469427820000000e+01,-1.955024499340000110e+00,-1.226279695190000041e+01,4.015270471569999944e-01,2.171685695649999914e+00,-2.765038490299999818e+00,0.000000000000000000e+00
2.399839666000000094e+00,-1.136813826900000102e+01,-1.801724865940000031e+00,-1.176411093269999952e+01,4.929376244540000229e-01,2.343292951580000061e+00,-2.709258079530000085e+00,0.000000000000000000e+00
2.404876687999999874e+00,-1.091189555319999904e+01,-1.660465360559999937e+00,-1.118175878829999981e+01,5.633584856989999334e-01,2.469459295270000077e+00,-2.633619785310000072e+00,0.000000000000000000e+00
2.410003469999999925e+00,-1.011047512590000075e+01,-1.648944141849999934e+00,-1.049669679550000012e+01,6.549565196040000314e-01,2.511168479920000252e+00,-2.576118946079999805e+00,0.000000000000000000e+00
2.415012052999999881e+00,-9.508654895419999420e+00,-1.570929904930000065e+00,-9.745956169580001216e+00,7.304397225380000469e-01,2.464780092240000275e+00,-2.509816408159999845e+00,0.000000000000000000e+00
2.420041385999999850e+00,-9.099806968019999331e+00,-1.006923345329999941e+00,-9.006520197040000397e+00,7.925274372099999631e-01,2.358499526979999761e+00,-2.451680660250000088e+00,0.000000000000000000e+00
2.424905041999999789e+00,-8.810698934250000391e+00,1.150342951360000088e+00,-7.991004599119999163e+00,8.417522907260001075e-01,2.238603353499999837e+00,-2.424451112749999915e+00,0.000000000000000000e+00
2.429824468000000071e+00,-8.401748715529999245e+00,1.962204181709999773e+00,-7.479635623930000143e+00,9.155544638629999898e-01,2.096825838090000005e+00,-2.411806344990000017e+00,0.000000000000000000e+00
2.434819141999999825e+00,-8.300615907219999201e+00,1.365850655660000024e-01,-8.328453762220000556e+00,1.044627547260000178e+00,1.971903324129999913e+00,-2.339349985120000142e+00,0.000000000000000000e+00
2.439852076000000203e+00,-8.749438117609999566e+00,-5.800613666139999847e-01,-8.652654736680000624e+00,1.098024845120000093e+00,1.844604611399999872e+00,-2.188303709029999933e+00,0.000000000000000000e+00
2.445006670999999798e+00,-8.867814321660000942e+00,-2.468696052389999784e-01,-8.691649945500000030e+00,1.031524777410000038e+00,1.709017276760000037e+00,-2.052797794339999982e+00,0.000000000000000000e+00
2.450022278000000053e+00,-8.640575591830000235e+00,-3.817290343230000382e-01,-8.844769546160000218e+00,8.143883347509999204e-01,1.544630527500000072e+00,-1.994499564169999850e+00,0.000000000000000000e+00
2.455017867000000020e+00,-8.877771652050000739e+00,-6.847476661540000675e-01,-8.940829873510001136e+00,5.433984398839999397e-01,1.488225460050000004e+00,-1.978108286859999954e+00,0.000000000000000000e+00
2.459866829000000088e+00,-9.255836903169999630e+00,-7.197985943340000636e-01,-9.034960109580000065e+00,2.476363480090000013e-01,1.484087944029999884e+00,-1.977252483370000036e+00,0.000000000000000000e+00
2.464827112000000042e+00,-9.606032735110000331e+00,-8.789766913119999581e-01,-9.009888796689999424e+00,-6.245568767190000370e-02,1.509120821949999858e+00,-1.967787265779999739e+00,0.000000000000000000e+00
2.469854809000000095e+00,-9.731314480770000941e+00,-9.568966740780000535e-01,-8.598879307349999834e+00,-4.003042578700000131e-01,1.482794523239999940e+00,-1.981321811679999767e+00,0.000000000000000000e+00
2.475021170999999853e+00,-9.766956287519999336e+00,-9.024922261299999082e-01,-7.933400551419999225e+00,-6.407618522640000647e-01,1.416686534879999959e+00,-1.961745858190000025e+00,0.000000000000000000e+00
2.479872762999999924e+00,-9.744311324989999079e+00,-4.088408400669999998e-01,-7.210308395430000239e+00,-8.296744227410000061e-01,1.390285134320000004e+00,-1.916340947150000140e+00,0.000000000000000000e+00
2.484853177000000191e+00,-9.679910456749999170e+00,3.433718676709999751e-01,-6.563651244349999025e+00,-9.334911704060000481e-01,1.304397702219999955e+00,-1.855974197390000135e+00,0.000000000000000000e+00
2.489861442000000036e+00,-9.778074478380000656e+00,1.128505651949999855e+00,-6.061657415740000054e+00,-8.807633519169999481e-01,1.217265486720000123e+00,-1.819947719570000233e+00,0.000000000000000000e+00
2.495002433999999880e+00,-9.889503639780000910e+00,1.668290647360000101e+00,-5.715518750240000223e+00,-7.955011129379999657e-01,1.067502260209999942e+00,-1.778426766399999748e+00,0.000000000000000000e+00
2.499858582999999967e+00,-1.011681251220000100e+01,1.945627433179999866e+00,-5.513901368400000003e+00,-5.798612236979999723e-01,8.762329220769999871e-01,-1.740062594409999885e+00,0.000000000000000000e+00
2.504882842999999859e+00,-1.054119644690000079e+01,2.192242186879999721e+00,-5.375159252660000497e+00,-3.648449480529999955e-01,7.287499308589999725e-01,-1.710517525670000039e+00,0.000000000000000000e+00
2.510028801999999892e+00,-1.104079548940000066e+01,2.092135799000000240e+00,-5.477227295989999689e+00,-1.543481945989999826e-01,5.916874408719999812e-01,-1.694116950040000180e+00,0.000000000000000000e+00
2.514838027000000142e+00,-1.133553129989999952e+01,1.451863526649999958e+00,-5.511140086990000242e+00,-4.158940631900000066e-03,4.704278111460000189e-01,-1.688336372380000006e+00,0.000000000000000000e+00
2.519864704000000177e+00,-1.151623974920000038e+01,6.815860603180000643e-01,-5.658466491200000448e+00,8.486838638779999056e-02,4.177441000940000371e-01,-1.671119093890000018e+00,0.000000000000000000e+00
2.524838438999999823e+00,-1.126083290950000126e+01,9.621412967329999455e-02,-5.577803639469999908e+00,5.677112936970000329e-02,3.803274631499999892e-01,-1.661102056500000090e+00,0.000000000000000000e+00
2.529816364999999845e+00,-1.092516653819999917e+01,-3.696976741369999986e-01,-5.505297790700000249e+00,-3.339007124299999546e-02,3.399439156059999578e-01,-1.614134430889999861e+00,0.000000000000000000e+00
2.534815727999999879e+00,-1.028810431389999991e+01,-5.081199833339999916e-01,-5.456652710000000184e+00,-2.020786553620000092e-01,2.634872794149999975e-01,-1.599683880810000014e+00,0.000000000000000000e+00
2.539831325999999834e+00,-9.768069801719999390e+00,-3.204949230180000330e-01,-5.293090625779999669e+00,-3.497137129310000092e-01,1.574688255789999936e-01,-1.605341911320000037e+00,0.000000000000000000e+00
2.544994505000000018e+00,-9.398848951310000643e+00,-7.930694361199999709e-02,-5.157457581980000150e+00,-4.815795123580000059e-01,3.303531184790000491e-02,-1.594038605689999999e+00,0.000000000000000000e+00
2.549840815000000038e+00,-4.061229740229999940e+00,1.219721553209999892e-01,-5.236069346399999880e+00,-5.763864517210000038e-01,-6.184592097999998955e-02,-1.560728549959999878e+00,0.000000000000000000e+00
2.554848666999999907e+00,-1.418804020710000025e+01,4.554363093770000148e+00,-8.650938580410000966e+00,-6.233375668530000135e-01,-8.315294980999999863e-01,-1.492981672290000006e+00,0.000000000000000000e+00
2.559879862999999922e+00,-9.953502941480000032e+00,3.260981133199999937e-01,-2.121661314829999867e+00,-7.320614457130000252e-01,-9.846848845479999612e-01,-1.485795259479999908e+00,0.000000000000000000e+00
2.564844960999999923e+00,-6.300176833530000131e+00,-6.250752877409999630e-01,-2.319251486979999832e+00,-7.319204211239999092e-01,-1.162553668019999931e+00,-1.435692548750000075e+00,0.000000000000000000e+00
2.569857766000000154e+00,-9.312993791629999407e+00,-3.496620173239999851e-01,-3.322263431020000102e+00,-6.406162381169999698e-01,-1.542682409290000001e+00,-1.343579649929999897e+00,0.000000000000000000e+00
2.575033145999999995e+00,-1.464480665449999996e+01,2.187276161969999855e-01,-4.742977201660000475e+00,-6.741373538969999135e-01,-1.694298028950000035e+00,-1.107433676720000149e+00,0.000000000000000000e+00
2.579862047000000214e+00,-1.441221954940000138e+01,-8.983901245739999153e-01,-5.877250696419999976e+00,-6.519598364830000436e-01,-1.966393351550000057e+00,-9.955621361730000451e-01,0.000000000000000000e+00
2.584984701999999857e+00,-1.022327616019999930e+01,6.891863792540000588e-01,-5.085546776500000199e+00,-5.576463341709999577e-01,-2.070072174069999882e+00,-9.804546833040000964e-01,0.000000000000000000e+00
2.590013109000000036e+00,-3.653993339690000397e+00,1.134819949669999994e+00,-6.012528350920000264e+00,-4.357009530070000136e-01,-1.662813544270000055e+00,-8.394452333449999859e-01,0.000000000000000000e+00
2.594917216999999887e+00,-3.521110763630000307e+00,9.197004044320000737e-01,-1.038926167219999996e+01,-3.364849984650000181e-01,-1.410323977470000045e+00,-7.730823755260000096e-01,0.000000000000000000e+00
2.599791923999999810e+00,-1.095623263450000023e-01,9.754940599819998670e-02,-1.375144210299999870e+01,-3.420858681199999696e-01,-1.069607257839999992e+00,-6.350632905960000851e-01,0.000000000000000000e+00
2.604801434000000082e+00,3.878391293139999974e+00,6.844279326800000174e-01,-1.540207697439999990e+01,-3.134996294979999765e-01,-9.806450009350000663e-01,-5.723934769630000252e-01,0.000000000000000000e+00
2.609768260000000062e+00,5.741153542240000185e+00,1.289121965039999873e+00,-1.549263461269999986e+01,-3.953619301319999946e-01,-1.129907131199999970e+00,-6.181532144550000440e-01,0.000000000000000000e+00
2.614700818000000204e+00,4.318687374980000548e+00,-2.361800150510000029e-01,-1.380527189290000045e+01,-6.170489192010000234e-01,-1.423032522199999983e+00,-4.993503391740000130e-01,0.000000000000000000e+00
2.619784059000000109e+00,2.321700779830000005e+00,-5.361820024750000302e-01,-1.175524022849999817e+01,-8.167201876639998970e-01,-1.825894236559999939e+00,-3.443176746369999708e-01,0.000000000000000000e+00
2.624818483999999952e+00,-8.062507700579999437e-01,9.680348848159999742e-01,-1.079558738759999947e+01,-1.007350683210000097e+00,-2.222579002379999835e+00,-2.182872295380000049e-01,0.000000000000000000e+00
2.629777739000000114e+00,-3.262257290610000027e+00,3.587651566509999501e+00,-1.009347606030000044e+01,-1.040534734729999800e+00,-2.543656110759999756e+00,-2.334522902969999869e-01,0.000000000000000000e+00
2.634822621000000087e+00,-4.669757651670000342e+00,6.098937052830000205e+00,-1.031321069809999891e+01,-8.977164626119999991e-01,-2.669294834140000017e+00,-3.616899251940000060e-01,0.000000000000000000e+00
2.639866646000000205e+00,-5.407936902150000336e+00,7.114892795720000329e+00,-1.127775481820000003e+01,-5.852042436600000119e-01,-2.545727729799999839e+00,-4.883411824700000237e-01,0.000000000000000000e+00
2.644778796000000209e+00,-6.362883757330000556e+00,6.232224410290000627e+00,-1.187911561449999986e+01,-2.007256150250000259e-01,-2.222972154620000307e+00,-5.283605456350000118e-01,0.000000000000000000e+00
2.649835744000000215e+00,-5.909285418580000560e+00,4.783480769219999651e+00,-1.244528000970000114e+01,1.065107062460000087e-01,-1.905144214629999944e+00,-4.904907345769999871e-01,0.000000000000000000e+00
2.654821577999999960e+00,-5.100483648870000053e+00,3.011635347099999915e+00,-1.194766366559999859e+01,2.739796936510000003e-01,-1.601833820339999992e+00,-3.180998563770000009e-01,0.000000000000000000e+00
2.659820890999999854e+00,-3.658675944540000113e+00,1.925426795069999919e+00,-1.165058509130000175e+01,2.921779155729999911e-01,-1.442674875259999823e+00,-1.429407745599999835e-01,0.000000000000000000e+00
2.664790392000000008e+00,-2.474530457629999791e+00,1.400221602220000028e+00,-1.098654484369999906e+01,1.856870651249999948e-01,-1.382634043689999981e+00,2.678054850549999814e-03,0.000000000000000000e+00
2.670008875000000170e+00,-1.988261144640000255e+00,1.467372353689999853e+00,-1.039295000529999946e+01,1.382769048209999962e-01,-1.428449273109999806e+00,4.790071398019999510e-02,0.000000000000000000e+00
2.674875860000000216e+00,-1.918439420399999928e+00,1.402874893210000140e+00,-9.911475817610000405e+00,1.457942426200000141e-01,-1.498502135279999870e+00,1.282691210510000096e-02,0.000000000000000000e+00
2.679857848000000153e+00,-2.163035527740000408e+00,7.689938562670000088e-01,-9.642007134810000935e+00,2.563890516759999572e-01,-1.556201815609999928e+00,-8.598468452690000152e-02,0.000000000000000000e+00
2.684990480999999818e+00,-2.518665659690000336e+00,-9.541544444310000317e-02,-9.751936997559999654e+00,3.653834760189999531e-01,-1.584725856779999997e+00,-1.837090402840000081e-01,0.000000000000000000e+00
2.690000695999999802e+00,-2.657435247959999636e+00,-1.102834765729999944e+00,-1.005051019429999926e+01,4.034046828750000313e-01,-1.555533170699999967e+00,-2.455824911589999937e-01,0.000000000000000000e+00
2.695024066999999857e+00,-2.745503407509999771e+00,-1.529730756319999996e+00,-1.018733274010000045e+01,3.616406023500000066e-01,-1.488292694090000090e+00,-2.783411443230000004e-01,0.000000000000000000e+00
2.700004906999999843e+00,-2.870838344659999652e+00,-1.200788724809999986e+00,-1.040546812610000060e+01,2.599797546859999864e-01,-1.423841118810000195e+00,-2.711469829079999894e-01,0.000000000000000000e+00
2.704871398999999954e+00,-3.001764818209999852e+00,-5.724422699119999791e-01,-1.040054878980000019e+01,1.473978459839999922e-01,-1.376780509950000120e+00,-2.370729148390000041e-01,0.000000000000000000e+00
2.709875586999999975e+00,-3.141099054620000164e+00,1.330987760869999925e-01,-1.028770800809999919e+01,7.357731461519999294e-02,-1.321352839470000040e+00,-1.915820986030000173e-01,0.000000000000000000e+00
2.714823753000000117e+00,-3.250938316480000090e+00,8.280745523970000077e-01,-1.040356959899999900e+01,5.301368981599999253e-02,-1.306380987170000063e+00,-1.127700954680000006e-01,0.000000000000000000e+00
2.720008744999999895e+00,-3.612564473969999579e+00,9.686514823450000922e-01,-1.066148871370000073e+01,2.416990511119999907e-02,-1.321560025220000156e+00,-2.964239008720000179e-02,0.000000000000000000e+00
2.724876325999999960e+00,-4.048099917280000071e+00,2.502392643349999890e-01,-1.139820256790000030e+01,1.204692409369999967e-03,-1.270374059679999945e+00,4.298455640669999328e-02,0.000000000000000000e+00
2.730007930000000194e+00,-4.839830140690000171e+00,-9.086763946579999862e-01,-1.135516539019999982e+01,-6.624148041010000099e-02,-1.206618785860000154e+00,1.215030774469999936e-01,0.000000000000000000e+00
2.735018097999999842e+00,-5.358983778409999843e+00,-1.573662690899999994e+00,-1.104994208789999988e+01,-1.465923786159999964e-01,-1.076572298999999955e+00,1.756048500539999779e-01,0.000000000000000000e+00
2.739868836999999946e+00,-5.429941228680000620e+00,-1.615605935870000121e+00,-1.087680787319999887e+01,-2.193410545589999927e-01,-9.358113408089999696e-01,1.840984523299999953e-01,0.000000000000000000e+00
2.744986302000000045e+00,-5.433889674049999563e+00,-1.872966686120000279e+00,-1.111816865190000136e+01,-2.699482738969999907e-01,-7.725460529330000492e-01,1.278494000429999944e-01,0.000000000000000000e+00
2.749835927999999985e+00,-4.637992101830000102e+00,-1.564568699339999869e+00,-9.884379720889999277e+00,-2.731121778489999929e-01,-6.200680732729999534e-01,1.220887675879999967e-01,0.000000000000000000e+00
2.754854738000000136e+00,-3.380050434079999722e+00,4.857624959769999973e-01,-1.019852750340000114e+01,-2.978522479529999711e-01,-5.084620118139999700e-01,1.397795379160000073e-01,0.000000000000000000e+00
2.759833917999999997e+00,-2.504360655490000198e+00,1.420749572599999899e+00,-9.829717571849998947e+00,-3.028243482110000162e-01,-4.889133870599999820e-01,1.528547108170000002e-01,0.000000000000000000e+00
2.764819468999999863e+00,-2.647822200959999872e+00,1.442320330020000041e+00,-9.739347565099999215e+00,-2.781103253359999972e-01,-5.061247944829999623e-01,1.583019196990000099e-01,0.000000000000000000e+00
2.769807865999999841e+00,-3.051007280290000345e+00,8.590112501919999755e-01,-9.811404501050001059e+00,-2.081356495620000080e-01,-5.274291634559999942e-01,1.801742911340000197e-01,0.000000000000000000e+00
2.774822597000000002e+00,-3.365303531330000375e+00,3.258179446710000038e-01,-9.737579386380000201e+00,-1.673786342139999828e-01,-5.388553142549999952e-01,1.608953028919999917e-01,0.000000000000000000e+00
2.779774793000000077e+00,-3.668375500780000298e+00,-2.390587853570000088e-01,-9.858893397460001040e+00,-1.322467476129999819e-01,-5.320423245430000447e-01,1.313095390800000095e-01,0.000000000000000000e+00
2.785007926000000023e+00,-3.494937042459999699e+00,-7.195260610029999837e-01,-9.908789354999999688e+00,-9.991452097889999551e-02,-4.625341594219999908e-01,1.112694516779999948e-01,0.000000000000000000e+00
2.790007254999999908e+00,-3.195501091420000161e+00,-5.743718497349999952e-01,-9.909579628599999523e+00,-1.199195235970000051e-01,-3.847334682940000139e-01,1.004651859400000069e-01,0.000000000000000000e+00
2.795055544999999864e+00,-2.940364008570000021e+00,-2.894504905320000043e-01,-9.869945537350000464e+00,-1.617689132690000031e-01,-2.956702709199999779e-01,8.551031351089999344e-02,0.000000000000000000e+00
2.800010157000000000e+00,-2.986975245360000031e+00,-7.203863310939999376e-02,-9.872238032200000291e+00,-2.072653472419999920e-01,-2.721805274490000093e-01,1.278513222930000026e-01,0.000000000000000000e+00
2.804854268999999789e+00,-3.244527280390000268e+00,3.700466337049999610e-01,-9.790949742040000459e+00,-1.973583400250000230e-01,-2.533178329469999990e-01,1.178831085559999964e-01,0.000000000000000000e+00
2.809953504000000102e+00,-3.190558374319999668e+00,3.315263123809999990e-01,-9.536481644500000243e+00,-1.755523234609999983e-01,-2.852512896059999914e-01,1.207929998640000085e-01,0.000000000000000000e+00
2.814991678999999802e+00,-3.032580519979999778e+00,3.850579595499999952e-01,-9.505586740020000036e+00,-1.375854909420000105e-01,-2.917656004429999839e-01,8.017098903659999887e-02,0.000000000000000000e+00
2.819944639000000031e+00,-2.981806610550000070e+00,5.692698869540000484e-01,-9.625123220029999871e+00,-1.034509912130000125e-01,-2.654729783540000221e-01,5.694977939130000527e-02,0.000000000000000000e+00
2.824877140999999980e+00,-2.972541646339999843e+00,3.868510900439999789e-01,-9.657293551269999554e+00,-1.059731394049999997e-01,-2.521605491639999919e-01,5.120870843530000299e-02,0.000000000000000000e+00
2.829988340999999963e+00,-3.042501317749999767e+00,2.526057742710000054e-01,-9.652934771540000014e+00,-1.137783750890000029e-01,-1.961069703099999895e-01,6.342889368530001126e-02,0.000000000000000000e+00
2.834982702000000021e+00,-3.063884882039999979e+00,2.280411870580000000e-01,-9.629562079260001184e+00,-1.233535930509999934e-01,-2.029811292890000007e-01,5.651306360960000469e-02,0.000000000000000000e+00
2.840018393999999891e+00,-3.096623076299999777e+00,2.274342524069999927e-01,-9.553804535219999394e+00,-1.178398877379999987e-01,-1.519155800339999918e-01,7.665131986140000242e-02,0.000000000000000000e+00
2.844983781999999906e+00,-2.937191516009999948e+00,1.212455854790000093e-01,-9.539991113919999322e+00,-1.110696420069999940e-01,-1.546608209610000062e-01,7.931504398580001280e-02,0.000000000000000000e+00
2.850015811000000010e+00,-2.930723196779999817e+00,1.334136689890000060e-01,-9.515701306799998704e+00,-1.229191869500000089e-01,-1.347974985840000028e-01,6.962583214039999580e-02,0.000000000000000000e+00
2.855015662000000010e+00,-2.911171816359999998e+00,1.860246028489999925e-01,-9.487212878939999428e+00,-1.177165135739999952e-01,-1.237874403599999867e-01,4.580892249940000244e-02,1.000000000000000000e+00
2.860013273999999939e+00,-2.941631836549999601e+00,1.052284983919999917e-01,-9.470415473400001005e+00,-1.095097139479999926e-01,-1.189674511549999869e-01,4.601852595809999974e-02,1.000000000000000000e+00
2.865018081000000105e+00,-2.882743009729999972e+00,1.858444993250000024e-02,-9.414935578239997938e+00,-1.239470466970000045e-01,-1.272010654209999869e-01,5.830212682490000520e-02,1.000000000000000000e+00
2.869823940999999934e+00,-2.703844824690000426e+00,-5.400947554719999488e-02,-9.357905531020000112e+00,-1.210318952799999959e-01,-1.128716915850000030e-01,5.508245527740000119e-02,1.000000000000000000e+00
2.874852895000000075e+00,-2.595779586769999980e+00,-4.721783807910000241e-02,-9.347204688789998883e+00,-1.410242468119999870e-01,-9.743034094569999470e-02,5.904708802699999703e-02,1.000000000000000000e+00
2.880012687999999876e+00,-2.617278594140000081e+00,-1.197702430969999898e-01,-9.352263725750001200e+00,-1.499097496269999885e-01,-1.068582311270000057e-01,6.729466468099999654e-02,1.000000000000000000e+00
2.885007201000000077e+00,-2.653392986830000133e+00,5.879076414009999640e-02,-9.372416871460000465e+00,-1.503904461860000041e-01,-9.582787007089998976e-02,4.839272797109999552e-02,1.000000000000000000e+00
2.889851120999999967e+00,-2.856432802690000106e+00,2.753214822139999907e-01,-9.280839242480000806e+00,-1.747566014530000100e-01,-1.242667138580000052e-01,6.911787390710000256e-02,1.000000000000000000e+00
2.895019441000000082e+00,-2.856719510680000074e+00,3.460634083099999869e-01,-9.376331414550000076e+00,-1.797424554819999909e-01,-1.275466829539999847e-01,6.115906313059999572e-02,1.000000000000000000e+00
2.899914523000000077e+00,-2.955713553389999859e+00,3.441664155820000071e-01,-9.350362860560000655e+00,-1.886845231060000072e-01,-1.368893831970000030e-01,6.712183356290001013e-02,1.000000000000000000e+00
2.904847472999999791e+00,-2.976417903249999775e+00,2.732102804800000118e-01,-9.313332229800000306e+00,-1.787335574630000146e-01,-1.237121224400000025e-01,7.087608426810000639e-02,0.000000000000000000e+00
2.909863930000000209e+00,-2.883284861519999964e+00,1.904005346449999803e-01,-9.364085680960000602e+00,-1.787300556900000281e-01,-9.115025401119999926e-02,6.964166462420000314e-02,0.000000000000000000e+00
2.914824788000000222e+00,-2.889659072730000222e+00,2.937197470829999713e-01,-9.377157343980000448e+00,-1.908600628379999720e-01,-8.935266733169998365e-02,7.859853655100000613e-02,0.000000000000000000e+00
2.919993498999999826e+00,-2.845225472240000553e+00,4.269420216850000060e-01,-9.374671372389999036e+00,-2.000861167909999960e-01,-8.010203391310000143e-02,6.719906628129999893e-02,0.000000000000000000e+00
2.924846677000000117e+00,-2.941094076409999758e+00,5.413925401970000051e-01,-9.374541608530000403e+00,-1.969636380669999853e-01,-8.674195408819999897e-02,6.719855964180000696e-02,0.000000000000000000e+00
