t,ax,ay,az,wx,wy,wz,zv
4.987944999999999705e-03,-4.392074975009999882e+00,-8.614814396969999732e-01,-8.703013051039999226e+00,-1.529934443529999862e-02,-4.112834576520000250e-03,6.765322759749999720e-03,1.000000000000000000e+00
9.931284999999999766e-03,-4.370230807469999590e+00,-8.687800722730000258e-01,-8.719796428060000437e+00,1.177249010649999983e-02,-8.711195550860000383e-05,4.832827486100000139e-03,1.000000000000000000e+00
1.496796700000000042e-02,-4.362025581450000189e+00,-8.747059551909999175e-01,-8.712909006629999453e+00,1.410544570540000001e-02,-2.728514187040000094e-02,4.169189371170000345e-03,1.000000000000000000e+00
1.994313500000000072e-02,-4.390304458210000149e+00,-8.795765569019999841e-01,-8.739365051880000124e+00,-3.072258783500000142e-03,-1.287210965529999923e-03,1.373893814160000214e-03,1.000000000000000000e+00
2.499619800000000072e-02,-4.410143131139999895e+00,-8.745224883819999739e-01,-8.707055604430001594e+00,-1.605438627300000143e-02,-3.083338029679999915e-03,6.340945139529999275e-03,1.000000000000000000e+00
2.999444100000000016e-02,-4.358609635519999692e+00,-8.700609789290000284e-01,-8.733858271160000797e+00,2.399531425909999863e-03,-2.951260190460000456e-03,-5.817829165609999728e-03,1.000000000000000000e+00
3.501281900000000058e-02,-4.397866710159999748e+00,-8.714509719830000334e-01,-8.752089508899999259e+00,-4.682051017880000006e-03,9.354241192339999731e-04,8.102858439089999712e-03,1.000000000000000000e+00
3.998861199999999977e-02,-4.345920249819999803e+00,-8.629149065669999841e-01,-8.719347515249999958e+00,-1.367582939570000100e-02,7.162010297180000022e-05,6.024956703189998999e-03,1.000000000000000000e+00
4.499265100000000156e-02,-4.354554807169999542e+00,-8.423769262549999359e-01,-8.691440102150000513e+00,9.486682713030001116e-03,-9.314008057120001793e-03,-2.423221711070000332e-03,1.000000000000000000e+00
5.004688000000000192e-02,-4.403577781280000103e+00,-8.569408736579999797e-01,-8.728098392459999744e+00,6.707530468699999561e-03,5.807468201970000278e-03,1.029312051829999949e-02,1.000000000000000000e+00
5.497010699999999722e-02,-4.413080645900000043e+00,-8.758354706769999609e-01,-8.730275151969999925e+00,1.103510707620000003e-02,-1.263164915140000018e-02,5.733262747529999960e-03,1.000000000000000000e+00
6.001361300000000037e-02,-4.363694391440000153e+00,-8.758893928210000901e-01,-8.720656259760000140e+00,1.034440938379999932e-02,6.294489372520001291e-03,-4.471514839680000228e-03,1.000000000000000000e+00
6.495168299999999617e-02,-4.357834559499999649e+00,-8.771029333299998898e-01,-8.708573023250000489e+00,-2.193991793320000140e-03,1.685498282309999931e-04,6.437047850339999797e-04,1.000000000000000000e+00
7.001716199999999390e-02,-4.344585786349999701e+00,-8.783277258840000989e-01,-8.712176600700001217e+00,8.340104483069999894e-03,-1.383964903649999995e-02,-4.014000296590000813e-04,1.000000000000000000e+00
7.499011599999999556e-02,-4.353540369430000112e+00,-8.987658990829999750e-01,-8.740439987639998520e+00,9.546628221870001249e-03,6.599984597409999654e-03,-7.484110537919998673e-04,1.000000000000000000e+00
7.993978399999999984e-02,-4.387069714069999016e+00,-8.735372036720000510e-01,-8.728674731039999912e+00,-1.430087373589999889e-03,1.778147928419999968e-02,-5.126196891069999435e-03,1.000000000000000000e+00
8.497167099999999862e-02,-4.380738757480000523e+00,-9.022215194299998409e-01,-8.732872182730000432e+00,-2.478451933709999947e-04,-1.269173435870000165e-02,1.665723277259999928e-03,1.000000000000000000e+00
8.999979800000000585e-02,-4.379826903339999689e+00,-9.020105070280000081e-01,-8.722351957760000829e+00,-4.382415674630000049e-03,3.406431525949999827e-03,-9.072300046680000299e-03,1.000000000000000000e+00
9.498857199999999334e-02,-4.426551829630000157e+00,-8.624483119679999810e-01,-8.685711203099998556e+00,-9.975679218769999829e-03,-4.933804739269999351e-04,4.999987781050000725e-03,1.000000000000000000e+00
9.997911600000000676e-02,-4.384723735469999717e+00,-8.806088225589999707e-01,-8.723674730800000887e+00,3.201859537510000527e-03,-2.599014667790000132e-03,-3.677537664770000152e-03,1.000000000000000000e+00
1.049673250000000002e-01,-4.395990394890000097e+00,-8.697434374119999978e-01,-8.694669001060001179e+00,2.130553592000000111e-03,1.809102948759999966e-03,6.331334821879999915e-03,1.000000000000000000e+00
1.099793659999999951e-01,-4.417159731909999998e+00,-8.792498091650000624e-01,-8.704563787610000603e+00,1.285296864809999879e-03,7.463662419470000649e-03,1.362184341999999986e-02,1.000000000000000000e+00
1.149219030000000058e-01,-4.373029498280000205e+00,-9.128850983939998942e-01,-8.733598743439999978e+00,-6.573181599380000482e-03,3.774879500269999986e-03,9.683907032010000832e-03,1.000000000000000000e+00
1.199447190000000052e-01,-4.409958714490000098e+00,-8.615249135129999791e-01,-8.718944195139998854e+00,1.388429664079999810e-03,1.035222783679999939e-03,1.220753882079999957e-02,1.000000000000000000e+00
1.249782339999999936e-01,-4.357747465740000159e+00,-8.507008832899999318e-01,-8.690253522709999956e+00,1.093173120170000054e-02,5.042021162810000554e-03,6.541729904710000092e-03,1.000000000000000000e+00
1.300773359999999879e-01,-4.345113901869999573e+00,-8.510998925450000696e-01,-8.737861661580000217e+00,-7.029525469990000053e-03,-1.668174052609999822e-03,-7.467124611140000916e-03,1.000000000000000000e+00
1.350210739999999909e-01,-4.409688957640000240e+00,-8.570451377500000190e-01,-8.741149012690000220e+00,-7.092911284420000059e-03,-7.373277330770000061e-04,7.124603725969999579e-03,1.000000000000000000e+00
1.400420659999999928e-01,-4.402959064860000105e+00,-8.773951212090000951e-01,-8.758712726429999762e+00,-1.359178218990000041e-02,-8.185449987650001086e-04,1.504366006699999966e-02,1.000000000000000000e+00
1.450226799999999872e-01,-4.348643245039999883e+00,-8.926612255329999801e-01,-8.723681160539998203e+00,1.026983186600000097e-02,-8.188311941919998796e-03,1.044359151270000084e-02,1.000000000000000000e+00
1.500576389999999927e-01,-4.372070590119999878e+00,-8.447072688989999412e-01,-8.702198812049999788e+00,-1.106981653719999945e-03,3.243904560800000333e-03,-9.239341132339999943e-03,1.000000000000000000e+00
1.549855109999999925e-01,-4.396471456409999590e+00,-8.483921679559999207e-01,-8.700832199869999783e+00,1.661119982600000114e-02,-1.624836586420000395e-04,1.791599905119999839e-03,1.000000000000000000e+00
1.600337950000000065e-01,-4.414726951799999632e+00,-8.937447099209999690e-01,-8.721293388619999476e+00,5.373213440180000904e-03,1.417251117529999896e-02,1.013984251770000053e-02,1.000000000000000000e+00
1.650331720000000058e-01,-4.367655111769999543e+00,-8.867132038489999868e-01,-8.729941389969999577e+00,-1.359010813759999829e-03,-7.543879095459999143e-03,-1.198808196930000076e-03,1.000000000000000000e+00
1.700261750000000016e-01,-4.404299958070000187e+00,-8.978041413789999980e-01,-8.767693320739999407e+00,-3.594933950809999878e-04,-1.285330206159999988e-02,1.454433891920000124e-02,1.000000000000000000e+00
1.750378350000000027e-01,-4.343929952790000826e+00,-8.557417270020000188e-01,-8.723459626739998640e+00,5.186952650550000037e-03,-5.220040213320000129e-03,-7.406683638690000036e-03,1.000000000000000000e+00
1.800381080000000023e-01,-4.372502551800000248e+00,-8.762774422910000194e-01,-8.749121306739999326e+00,-1.282500289379999957e-02,4.503656644370000045e-03,-1.574076013639999928e-03,1.000000000000000000e+00
1.850014209999999992e-01,-4.394692464030000245e+00,-8.689593743629999700e-01,-8.739988736739999098e+00,1.418280601500000043e-02,-1.983421109620000025e-02,1.004487043250000024e-03,1.000000000000000000e+00
1.899961799999999867e-01,-4.376408619320000248e+00,-8.224939757860000311e-01,-8.723011882969998965e+00,-5.537016317250000215e-03,-1.461648195979999877e-02,4.429217427970000634e-03,1.000000000000000000e+00
1.950429079999999871e-01,-4.377979521900000393e+00,-8.869947972689999904e-01,-8.759180928460001070e+00,6.946310866620000399e-03,2.883560955520000029e-05,2.581448527050000073e-03,1.000000000000000000e+00
2.000497549999999958e-01,-4.378754013410000034e+00,-8.710811157569999796e-01,-8.712415085630000888e+00,-8.519400726070000887e-04,5.264739040289999686e-03,-5.384773015980000126e-03,1.000000000000000000e+00
2.050606980000000135e-01,-4.364628749680000475e+00,-8.827437887610000145e-01,-8.678255041879999965e+00,-9.661892428989999823e-03,-3.233263269070000331e-03,-1.145007647570000023e-02,1.000000000000000000e+00
2.101146720000000023e-01,-4.406617002840000019e+00,-8.602456142919999715e-01,-8.690321911769999019e+00,5.334537476299999748e-03,-1.304855104539999868e-04,3.450708230960000070e-03,1.000000000000000000e+00
2.150579499999999977e-01,-4.381334677549999945e+00,-8.948935876950000479e-01,-8.706861543160000494e+00,4.554849117990000286e-03,1.831800490619999930e-02,6.985632702709999864e-03,1.000000000000000000e+00
2.200756040000000080e-01,-4.382100693489999976e+00,-9.054826401180000595e-01,-8.696992475580000104e+00,-9.038119576870000393e-03,-2.691799309100000514e-04,6.564952433109999021e-03,1.000000000000000000e+00
2.250650999999999902e-01,-4.403780318109999925e+00,-8.864389169519999445e-01,-8.709282632829999926e+00,-9.788819588720000520e-03,8.594429120419999277e-03,2.556231338529999886e-04,1.000000000000000000e+00
2.300907889999999900e-01,-4.353258629880000008e+00,-8.782938966800000191e-01,-8.707373584339999084e+00,5.284252576529999655e-03,-8.806338533760000101e-03,-3.680803114549999980e-03,1.000000000000000000e+00
2.350706079999999865e-01,-4.382024121119999727e+00,-8.899048394969999443e-01,-8.685078165900000258e+00,-3.529755165799999903e-03,1.667188294229999743e-02,-5.824468098580000246e-03,1.000000000000000000e+00
2.400470070000000067e-01,-4.404507463339999873e+00,-8.903267912360001146e-01,-8.728403512879999937e+00,-1.399385835980000020e-02,1.461210846900000068e-02,1.014066487549999951e-02,1.000000000000000000e+00
2.450713640000000137e-01,-4.357108583309999617e+00,-8.604910404209999975e-01,-8.716703722740000160e+00,-1.546859159130000013e-03,5.723630543800000206e-03,2.200326649469999760e-03,1.000000000000000000e+00
2.500672409999999957e-01,-4.395378400470000280e+00,-8.747948025180000142e-01,-8.721295142180000681e+00,-6.510026287290000303e-03,-6.971813738350001247e-03,1.242891047150000011e-02,1.000000000000000000e+00
2.550931759999999771e-01,-4.355170893249999509e+00,-8.781872944999999930e-01,-8.696533041369999495e+00,-1.246881764379999778e-02,-2.618804574009999525e-02,7.658122107390000384e-03,1.000000000000000000e+00
2.600544329999999738e-01,-4.392431825630000120e+00,-8.507186381429999722e-01,-8.691413798660001078e+00,-1.441133115439999918e-02,-1.050311885770000009e-02,1.235490385439999908e-02,1.000000000000000000e+00
2.650853510000000246e-01,-4.355314393369999593e+00,-8.940276185150000110e-01,-8.747217518950000326e+00,7.409043610100000173e-04,-5.130425561219999165e-04,-1.090137287969999980e-03,1.000000000000000000e+00
2.700959889999999808e-01,-4.358044110589999853e+00,-8.843916290330000596e-01,-8.721850437980000592e+00,-1.186656765639999833e-02,6.644364912059999399e-04,1.002648146820000032e-03,1.000000000000000000e+00
2.749890280000000242e-01,-4.388845491569999702e+00,-8.819098952200001840e-01,-8.727769891150000348e+00,-6.775971502069999715e-03,-1.189403422179999975e-02,-3.148913849150000027e-03,1.000000000000000000e+00
2.800582670000000274e-01,-4.389600986109999603e+00,-8.727955915250000807e-01,-8.763202439060000515e+00,-2.672905102370000006e-04,-1.257424056529999994e-02,6.530846469100000037e-03,1.000000000000000000e+00
2.850598260000000161e-01,-4.368368520729999815e+00,-8.979508563729999837e-01,-8.787780999999998954e+00,-9.649326093490000200e-03,5.277801770720000341e-03,2.620613668109999877e-04,1.000000000000000000e+00
2.899821759999999804e-01,-4.400502611619999449e+00,-8.786137032189998974e-01,-8.744350439079999759e+00,8.282193914059999759e-03,-2.017726935449999995e-02,2.036212012170000168e-02,1.000000000000000000e+00
2.951029789999999875e-01,-4.352531192389999859e+00,-8.689742796709999384e-01,-8.737901409070000014e+00,-1.114885695279999901e-02,-1.319904811679999818e-02,6.329023279250000321e-03,1.000000000000000000e+00
3.000317390000000195e-01,-4.385954446309999533e+00,-8.309246811310000425e-01,-8.741597340980000297e+00,-5.490775220100000548e-03,-2.217634208500000176e-02,6.596072576939998947e-03,1.000000000000000000e+00
3.050499280000000257e-01,-4.364122553730000575e+00,-8.590679488150000376e-01,-8.692646555330000524e+00,-9.425908327100000067e-03,-2.517588250340000236e-02,-1.379702240229999967e-03,1.000000000000000000e+00
3.100410290000000235e-01,-4.333422295040000094e+00,-8.844752887289999421e-01,-8.732516793420000312e+00,1.450986601409999955e-03,-1.607731729750000102e-02,-1.307523623110000074e-02,1.000000000000000000e+00
3.150663590000000180e-01,-4.413443341730000746e+00,-8.655302036319999504e-01,-8.761156612449999770e+00,1.517487969250000054e-02,-1.006207056339999961e-02,-7.038726471360000000e-03,1.000000000000000000e+00
3.199928060000000185e-01,-4.445777046839999969e+00,-8.535052731860000019e-01,-8.752445482729999782e+00,6.153228692710000641e-03,-2.676625177259999919e-02,7.666870951649999363e-03,1.000000000000000000e+00
3.250511469999999847e-01,-4.371887050249999795e+00,-8.224470679040000176e-01,-8.730472720369998996e+00,3.846647683529999875e-03,-1.414328813550000050e-02,-7.085990160700000526e-03,1.000000000000000000e+00
3.300139650000000202e-01,-4.398913296599999967e+00,-8.699400559630000584e-01,-8.715019130650000889e+00,1.010404899720000055e-02,-2.131065726280000072e-02,-1.107525778930000190e-03,1.000000000000000000e+00
3.350503100000000178e-01,-4.419351981260000173e+00,-8.340431784780000246e-01,-8.702492242039999937e+00,7.605680264530000415e-03,-2.536938153209999589e-02,3.546911757439999966e-04,1.000000000000000000e+00
3.400827089999999830e-01,-4.391998110380000320e+00,-8.459132836870000283e-01,-8.688854761830000939e+00,-1.812424883249999855e-02,-5.622404627499999127e-03,1.211634138599999811e-03,1.000000000000000000e+00
3.451153180000000043e-01,-4.395406457520000032e+00,-8.347922432800001236e-01,-8.654560862560000345e+00,9.651249274610000303e-03,-1.570135168730000044e-02,-1.313472632320000083e-02,1.000000000000000000e+00
3.500001649999999742e-01,-4.451353677930000252e+00,-8.768705858790000196e-01,-8.705603067529999350e+00,-7.972827181219999115e-03,-2.701233839619999761e-03,1.845229649919999859e-03,1.000000000000000000e+00
3.550501289999999921e-01,-4.419772544759999811e+00,-8.909427311769999580e-01,-8.683917889950000912e+00,-4.639642429539999951e-04,-1.229699142280000004e-02,-1.191501040010000062e-03,1.000000000000000000e+00
3.600516000000000272e-01,-4.420549082089999970e+00,-8.612320680460000544e-01,-8.683197758980000458e+00,-5.618207622320000282e-03,-3.110629739240000115e-03,6.830359343439999786e-04,1.000000000000000000e+00
3.650492100000000129e-01,-4.430741390280000580e+00,-8.826199431860000111e-01,-8.677312792589999546e+00,-5.482631735499999409e-03,-9.978911839430001235e-03,1.185828074810000091e-02,1.000000000000000000e+00
3.700583940000000127e-01,-4.399223677719999337e+00,-8.768133027330000662e-01,-8.694023104380001143e+00,-4.269038792699999564e-03,3.875392489139999844e-03,6.377109326420000134e-03,1.000000000000000000e+00
3.751123029999999803e-01,-4.373566381640000778e+00,-8.471347152410000358e-01,-8.693547303560000827e+00,4.257795866580000449e-03,-2.616475103420000045e-03,-3.400657791640000153e-03,1.000000000000000000e+00
3.800491480000000033e-01,-4.379843562209999597e+00,-8.863266156839999521e-01,-8.679455065319999107e+00,3.137503284960000294e-03,6.811505649239999252e-03,-1.129220239820000020e-03,1.000000000000000000e+00
3.851077110000000192e-01,-4.407610690059999392e+00,-9.200696030709999418e-01,-8.729367974000000530e+00,-9.542552754280000590e-03,-7.510801777239999900e-03,1.617302186790000110e-02,1.000000000000000000e+00
3.900537470000000062e-01,-4.362852972180000677e+00,-8.654109611660000256e-01,-8.742419763280000922e+00,-5.426072049889999784e-03,-4.332286305729999773e-03,2.543773734939999958e-03,1.000000000000000000e+00
3.949892890000000212e-01,-4.392798613110000083e+00,-8.437754679410000014e-01,-8.710762642249999743e+00,-2.966231550089999756e-04,-1.604219898580000123e-02,1.111755054439999939e-02,1.000000000000000000e+00
3.999820510000000051e-01,-4.348980806430000179e+00,-8.798361576859999866e-01,-8.754622826769999477e+00,7.251207716759999408e-03,3.387843724340000064e-03,-3.009676700459999656e-03,1.000000000000000000e+00
4.050290630000000225e-01,-4.397786630659999751e+00,-8.714594475499999326e-01,-8.753180226739999625e+00,-1.526431366799999891e-02,-2.376175718379999920e-03,2.327211434019999664e-03,1.000000000000000000e+00
4.101020539999999936e-01,-4.418332575079999991e+00,-8.484753161949999400e-01,-8.716975525419998760e+00,1.006514765320000102e-02,-5.507458467040000222e-03,8.009867742659999845e-03,1.000000000000000000e+00
4.150234369999999950e-01,-4.401657919130000707e+00,-8.268753326750000188e-01,-8.693388313599999861e+00,1.616295427079999722e-02,3.729569725689999699e-04,7.232294417920000044e-03,1.000000000000000000e+00
4.200520240000000238e-01,-4.373667503919999255e+00,-8.649111218849999672e-01,-8.689587752279999577e+00,-2.846034942189999955e-03,-9.777495637540000589e-03,-6.904410198330000574e-03,1.000000000000000000e+00
4.250326700000000013e-01,-4.443659324040000413e+00,-8.796114820849999516e-01,-8.743999141419999788e+00,2.773571992290000017e-03,-3.303094767030000187e-03,8.346623741089999327e-03,1.000000000000000000e+00
4.299674780000000140e-01,-4.363328480739999904e+00,-8.855030243410000335e-01,-8.725705944360001354e+00,1.201973296700000089e-02,-3.422402776780000301e-03,-2.742055570709999845e-03,1.000000000000000000e+00
4.350666389999999772e-01,-4.425189016850000101e+00,-8.688125863029999563e-01,-8.731099912360001269e+00,4.925120156260000444e-03,-1.402002014219999940e-02,5.639106035229999106e-03,1.000000000000000000e+00
4.400227580000000138e-01,-4.386470579130000047e+00,-8.651781753230000094e-01,-8.715020299700000805e+00,1.043129432950000088e-02,-6.465362384919999842e-04,4.702396690850000650e-03,1.000000000000000000e+00
4.450581690000000035e-01,-4.401749689069999860e+00,-8.496496937369999447e-01,-8.711281697689999604e+00,-3.666311502459999611e-03,9.757452644409999980e-04,6.808713078499999995e-03,1.000000000000000000e+00
4.500338139999999765e-01,-4.382591107350000570e+00,-8.126667745810000065e-01,-8.701777956289999949e+00,3.764010034500000004e-03,-1.047881320120000112e-02,-4.806009586899999061e-03,1.000000000000000000e+00
4.550500720000000276e-01,-4.415223503150000006e+00,-8.221043188809999958e-01,-8.693320509059999424e+00,-1.048278762030000009e-03,-1.822023279960000020e-02,-4.575494676830000403e-04,1.000000000000000000e+00
4.600136249999999816e-01,-4.393097888319999811e+00,-8.410632133079999351e-01,-8.678156257679999541e+00,1.165790390220000118e-02,-1.693376712499999881e-02,1.014874549580000026e-03,1.000000000000000000e+00
4.650669780000000197e-01,-4.420611625930000343e+00,-8.672942906949999697e-01,-8.702976226160000550e+00,1.231020549309999818e-03,-4.258575849240000058e-03,-5.086991935970000198e-03,1.000000000000000000e+00
4.700424799999999848e-01,-4.439051245719999983e+00,-8.744198317260000186e-01,-8.697270707989998684e+00,3.085930831730000160e-03,-1.508556865160000024e-02,3.653136314819999900e-03,1.000000000000000000e+00
4.750837969999999744e-01,-4.443103443720000101e+00,-8.711303617260000021e-01,-8.720589624260000505e+00,-4.085619933900000271e-03,-9.458469226960000004e-03,2.543809451159999638e-02,1.000000000000000000e+00
4.799791159999999834e-01,-4.294489630050000173e+00,-8.673849646529999680e-01,-8.684722192069999736e+00,6.029527168720000448e-03,-5.727523937819999598e-03,-9.560514241459998688e-03,1.000000000000000000e+00
4.851287810000000089e-01,-4.381247876049999768e+00,-8.579221397810000704e-01,-8.699673092959999465e+00,-6.054076831790000841e-03,1.875177212059999862e-02,-1.124704629179999922e-02,1.000000000000000000e+00
4.900650109999999948e-01,-4.416413297460000109e+00,-8.613753489740000324e-01,-8.694315949840000002e+00,-1.440672902390000227e-03,-2.522247144949999950e-03,-4.787527490409999691e-03,1.000000000000000000e+00
4.950586779999999743e-01,-4.411256353080000636e+00,-8.650314603290000237e-01,-8.704989319550000104e+00,8.548488840459999910e-04,-2.021071687340000173e-02,-1.611331827010000113e-03,1.000000000000000000e+00
5.000779210000000363e-01,-4.384533181330000140e+00,-8.436310179690000854e-01,-8.694062851860001828e+00,-6.391117931340000325e-04,3.394702915099999992e-03,2.771537983789999684e-03,1.000000000000000000e+00
5.050712990000000291e-01,-4.397663881059999724e+00,-8.478769119110000085e-01,-8.643335119670000566e+00,-1.658455654979999749e-02,-1.665164157750000096e-02,3.517054254189999705e-03,1.000000000000000000e+00
5.099860360000000314e-01,-4.361440767300000410e+00,-8.652871886560000725e-01,-8.714734468490000552e+00,-3.705440321940000215e-03,-6.039731204510000520e-03,5.679502151910000539e-03,1.000000000000000000e+00
5.150397970000000214e-01,-4.382957894840000534e+00,-8.448111676639999956e-01,-8.698440920819999533e+00,1.053522527220000088e-02,7.776813115919999769e-03,2.533533843229999853e-03,1.000000000000000000e+00
5.200776270000000423e-01,-4.350398856540000025e+00,-8.292986873649998980e-01,-8.683681743099999295e+00,-1.345875789410000162e-04,-3.784512868150000098e-03,-6.084796041249999898e-03,1.000000000000000000e+00
5.251253609999999572e-01,-4.426404530119999237e+00,-8.770334482899999617e-01,-8.717984410199999701e+00,2.202306175600000047e-03,-1.466362923379999766e-02,4.087185487150000150e-03,1.000000000000000000e+00
5.299572080000000129e-01,-4.407599876399999950e+00,-8.471862992980000451e-01,-8.703968744330000007e+00,6.600591586900000007e-04,1.837992295620000105e-02,6.158905103799999954e-03,1.000000000000000000e+00
5.349907379999999657e-01,-4.408689717469999714e+00,-8.684664762790000880e-01,-8.686121537469999154e+00,-6.218363065270000531e-03,-1.128470711410000001e-02,1.229571085420000202e-02,1.000000000000000000e+00
5.399427009999999694e-01,-4.404766991059999803e+00,-8.996175474770000680e-01,-8.718828459810000098e+00,7.227158173919999949e-03,-1.455884613099999933e-02,8.198257535699998710e-03,1.000000000000000000e+00
5.449681210000000275e-01,-4.369552762079999653e+00,-8.891500025409999619e-01,-8.736308586919999897e+00,-7.025096099819999260e-03,-4.894828423859999555e-03,-1.591863809150000260e-03,1.000000000000000000e+00
5.499628859999999841e-01,-4.415304167169999516e+00,-8.761799732660000561e-01,-8.743950041579999777e+00,-1.274402718990000002e-02,5.245674401520000193e-05,1.875348202879999898e-02,1.000000000000000000e+00
5.550115220000000349e-01,-4.357829883319999986e+00,-8.713562794360000252e-01,-8.745709452469998979e+00,-5.532301496709999405e-03,1.144523965189999911e-03,-1.760910381560000038e-03,1.000000000000000000e+00
5.600332300000000485e-01,-4.367791889890000334e+00,-8.328321221879999570e-01,-8.681163622799999757e+00,-6.569389952350000207e-04,-2.003883477300000011e-03,-3.366929478939999915e-03,1.000000000000000000e+00
5.650128709999999721e-01,-4.428221516409999836e+00,-8.865203846899999407e-01,-8.708787542789998781e+00,-4.504062235359999368e-03,-6.212030537430000138e-03,1.498798746620000170e-02,1.000000000000000000e+00
5.700307829999999853e-01,-4.410004307200000362e+00,-8.767606226980000361e-01,-8.686936360989999883e+00,2.972803777080000164e-03,-1.235805638129999946e-02,1.623555831610000097e-02,1.000000000000000000e+00
5.750098890000000518e-01,-4.376654703039999816e+00,-8.650590059230000017e-01,-8.705199162910000510e+00,7.476582191879999582e-03,3.814215306190000144e-03,5.429127253590000299e-03,1.000000000000000000e+00
5.800223150000000105e-01,-4.399257872250000645e+00,-8.938166791779998954e-01,-8.732240314569999384e+00,-6.964040221650000554e-05,-1.676104962829999892e-02,2.822342561560000143e-03,1.000000000000000000e+00
5.850584330000000444e-01,-4.408313869890000625e+00,-8.876717466819999958e-01,-8.707376506950000206e+00,-1.647768914699999920e-02,-8.153080940249999436e-03,7.358654402199999930e-03,1.000000000000000000e+00
5.899934329999999560e-01,-4.434677268419999763e+00,-8.839892587769999643e-01,-8.693159765539999029e+00,-7.630417589100001001e-03,-1.033420395110000098e-02,2.661087922749999848e-02,1.000000000000000000e+00
5.949828600000000023e-01,-4.368335495250000200e+00,-8.450299980470000749e-01,-8.725737508539999965e+00,2.215282293040000202e-04,-9.077426046129998677e-03,1.352948416020000044e-02,1.000000000000000000e+00
6.000541120000000284e-01,-4.440033827019999713e+00,-8.706810105230000651e-01,-8.681512582369999009e+00,-1.723691821099999910e-02,-4.915412515399999668e-03,1.794502697890000206e-02,1.000000000000000000e+00
6.050718120000000422e-01,-4.369461284399999812e+00,-8.589291979309999769e-01,-8.686019830660001162e+00,-2.126336470249999902e-02,-1.163803227249999954e-02,1.108799362559999974e-03,1.000000000000000000e+00
6.099224930000000100e-01,-4.420696673860000203e+00,-8.506223381609999690e-01,-8.690680808210000663e+00,-4.106675740330000164e-03,-7.388013880699999605e-03,7.406356744470000628e-03,1.000000000000000000e+00
6.150795909999999811e-01,-4.406760795230000305e+00,-8.776943233519999277e-01,-8.659352188490000657e+00,-9.693288244309998872e-03,-8.539540693159999862e-03,4.589904099699999677e-03,1.000000000000000000e+00
6.200301339999999550e-01,-4.379400786880000673e+00,-8.637745921359999413e-01,-8.692226284089999311e+00,-5.092316772789999904e-03,5.049074068669999991e-03,-2.348171081389999800e-03,1.000000000000000000e+00
6.250915790000000083e-01,-4.427746300109999922e+00,-8.711922479809999231e-01,-8.736661638139999297e+00,-1.262883841989999832e-02,-4.492852371189999180e-03,5.982446018610000030e-04,1.000000000000000000e+00
6.300421830000000334e-01,-4.450784645869999778e+00,-8.672220291760001087e-01,-8.699083310369999822e+00,-8.783865720030000976e-03,9.595509618520001172e-03,4.396325908600000332e-03,1.000000000000000000e+00
6.350497440000000271e-01,-4.401733322460000153e+00,-9.456391478090000469e-01,-8.672267199640000257e+00,-1.671666651960000000e-02,-9.613556787370001327e-03,3.929986618460000122e-03,1.000000000000000000e+00
6.400526010000000543e-01,-4.387741621980000062e+00,-8.569941382150000342e-01,-8.728415203320000870e+00,-2.018677815790000107e-02,5.835817661139999606e-03,7.349653169510000049e-03,1.000000000000000000e+00
6.450452490000000427e-01,-4.408989869460000044e+00,-8.283741198659999583e-01,-8.729163975860000591e+00,-6.994156632569999490e-03,8.941862732170000050e-03,1.024783402679999879e-02,1.000000000000000000e+00
6.499637120000000268e-01,-4.441868641230000136e+00,-8.577718445899998878e-01,-8.699645035910000601e+00,-2.199935168029999721e-02,-3.157485043630000026e-03,1.811968535179999881e-02,1.000000000000000000e+00
6.550782619999999667e-01,-4.360364077969999919e+00,-8.996966040620000271e-01,-8.725002764530000121e+00,-1.337576750669999988e-02,-8.755207061770001534e-03,-4.966301377859999588e-03,1.000000000000000000e+00
6.600295459999999670e-01,-4.426399853939999574e+00,-8.426812429639999324e-01,-8.737125164000000055e+00,-6.171824876220000436e-03,1.009413413700000102e-02,1.798525219780000009e-03,1.000000000000000000e+00
6.650650839999999731e-01,-4.412505768619999991e+00,-8.331094778240000220e-01,-8.725619435120000489e+00,-2.361012250190000147e-02,1.535297837109999945e-03,7.674422115090000218e-03,1.000000000000000000e+00
6.699544050000000306e-01,-4.394391727519999513e+00,-8.723163566399998459e-01,-8.712755277370000329e+00,-2.275682054460000103e-03,1.410570554439999867e-02,1.377331186090000048e-02,1.000000000000000000e+00
6.750295530000000044e-01,-4.410141085319999377e+00,-8.399346476690000562e-01,-8.697569983200001076e+00,-2.149888500570000180e-02,-6.728346925229999670e-04,8.666479960079999378e-03,1.000000000000000000e+00
6.800338910000000014e-01,-4.400944802430000635e+00,-8.329225769499999377e-01,-8.711939284819999685e+00,1.488542882730000023e-03,-9.467647178100000284e-04,-1.092326128859999945e-03,1.000000000000000000e+00
6.850560399999999772e-01,-4.404055627920000049e+00,-8.184688849879999673e-01,-8.680575009260001806e+00,5.801051389430000177e-03,9.069683030250000680e-03,3.710717661309999912e-03,1.000000000000000000e+00
6.900545259999999459e-01,-4.404750916710000297e+00,-8.700707696709999439e-01,-8.736071271030001029e+00,-1.101945247500000016e-02,-7.837913930419999897e-03,5.314337089660000485e-03,1.000000000000000000e+00
6.950916919999999832e-01,-4.415386584760000233e+00,-8.711349648360000586e-01,-8.729539238910000165e+00,-1.513203838839999706e-03,2.499882690609999888e-02,2.583412686360000293e-03,1.000000000000000000e+00
7.000630679999999550e-01,-4.453644126959999561e+00,-8.243394575220001075e-01,-8.695554551729999915e+00,-1.478050276639999994e-02,2.485287375750000211e-03,3.316351911050000132e-03,1.000000000000000000e+00
7.050738730000000176e-01,-4.417393832920000207e+00,-8.399987989470000249e-01,-8.702516207429999540e+00,-2.174646779890000367e-02,-1.261321129280000043e-03,4.949754104020000732e-03,1.000000000000000000e+00
7.100084949999999617e-01,-4.430669786340000194e+00,-8.292504643089999572e-01,-8.698915552589999933e+00,-1.530863624070000206e-02,2.341341227290000011e-03,1.161602232610000132e-02,1.000000000000000000e+00
7.150441779999999747e-01,-4.419066150049999919e+00,-8.423155514560000112e-01,-8.690884221830000200e+00,-1.270814519379999917e-02,7.942611351610000259e-03,1.959229819479999662e-02,1.000000000000000000e+00
7.200367890000000104e-01,-4.382676155290000430e+00,-8.187312622509999027e-01,-8.719344592639998837e+00,1.591259241100000110e-02,7.860526442529998381e-03,3.067359095440000058e-03,1.000000000000000000e+00
7.250717239999999730e-01,-4.411622848309999512e+00,-8.127573024079999264e-01,-8.719181511030001275e+00,-8.374716155229999792e-03,1.620756462220000011e-03,-2.311440184710000009e-03,1.000000000000000000e+00
7.299842420000000054e-01,-4.386544813409999577e+00,-8.330556287450000541e-01,-8.717408071619999532e+00,-8.186617866159999826e-03,1.690120622519999949e-02,-7.218838203699999567e-03,1.000000000000000000e+00
7.349350679999999691e-01,-4.410859170460000200e+00,-8.367747953990000154e-01,-8.736361193889999655e+00,-2.133350074290000370e-02,-8.089844137430000220e-03,-1.617204979990000081e-03,1.000000000000000000e+00
7.399615939999999448e-01,-4.399893832069999178e+00,-8.343504177959999435e-01,-8.736030354500000428e+00,5.181093234570000039e-03,-6.504286546259999656e-03,-7.687192410229999953e-03,1.000000000000000000e+00
7.449652209999999553e-01,-4.447753023089999758e+00,-7.979892107350000652e-01,-8.660912861930000872e+00,2.438058145339999910e-03,-5.401134490970000909e-03,6.779640913010000040e-03,1.000000000000000000e+00
7.498844329999999614e-01,-4.398331112799999332e+00,-8.355706803060000132e-01,-8.739600029680000048e+00,-1.695974171160000155e-02,2.329933457079999895e-03,-1.025758683679999970e-04,1.000000000000000000e+00
7.550226230000000038e-01,-4.396110514140000092e+00,-8.284600445829999327e-01,-8.737618500469999105e+00,4.263533046469999846e-04,3.263490740210000032e-03,-1.954599516470000020e-03,1.000000000000000000e+00
7.599732630000000100e-01,-4.434467132800000044e+00,-8.246570721039999663e-01,-8.725828693960000493e+00,2.038521692160000058e-03,5.165001377460000549e-03,-3.113641403619999727e-03,1.000000000000000000e+00
7.649420399999999898e-01,-4.387378926150000247e+00,-8.391706775589999889e-01,-8.739816887299999948e+00,9.425832889969999046e-03,9.276831522579999378e-03,-1.133749354629999886e-02,1.000000000000000000e+00
7.699273650000000302e-01,-4.449725492209999800e+00,-8.629097189350000141e-01,-8.738162690350000261e+00,6.626615766439999770e-03,4.480332601820000149e-03,7.152608595790000204e-03,1.000000000000000000e+00
7.749374110000000204e-01,-4.387054808760000313e+00,-8.222521298540000911e-01,-8.713388899099999918e+00,3.880571108309999618e-03,8.076361846179999551e-04,-6.552014499899999969e-03,1.000000000000000000e+00
7.799124619999999730e-01,-4.413436035209999275e+00,-8.231663220890000909e-01,-8.689000307780000654e+00,8.869959041480000167e-03,1.548995636399999945e-02,-1.592639461159999978e-02,1.000000000000000000e+00
7.849632389999999793e-01,-4.449133371530000325e+00,-8.490306119899999615e-01,-8.657541339670000724e+00,3.409601049499999726e-05,5.477523896840000468e-03,-1.154150720689999833e-02,1.000000000000000000e+00
7.899449720000000230e-01,-4.438825620269999384e+00,-8.445989131530000638e-01,-8.695713541679999992e+00,6.408574525270001321e-03,1.267436891790000089e-02,-1.303820405160000147e-02,1.000000000000000000e+00
7.949514880000000394e-01,-4.467403187719999558e+00,-8.527991707439999125e-01,-8.680212605689998639e+00,1.111405342820000197e-02,2.048773691059999763e-02,1.212163595479999988e-03,1.000000000000000000e+00
7.999608759999999874e-01,-4.388875302190000660e+00,-8.340603488079999517e-01,-8.697051512289998954e+00,-5.722280591729998929e-03,6.397185381500000538e-03,-3.707669209690000415e-03,1.000000000000000000e+00
8.049386969999999808e-01,-4.397669434019999102e+00,-8.769726580140000394e-01,-8.716407370139998889e+00,1.529596280310000118e-02,1.079530082639999951e-02,-1.489265635610000083e-02,1.000000000000000000e+00
8.099226760000000080e-01,-4.437453455140000003e+00,-9.055514675700001570e-01,-8.715344709349999164e+00,5.104487761860000000e-03,7.330502849070000097e-03,7.167574949560000361e-05,1.000000000000000000e+00
8.150268579999999652e-01,-4.422349994030000175e+00,-8.637045956399999058e-01,-8.690580270449999034e+00,-5.857098847630000729e-03,2.904977463190000150e-02,7.108489051459999410e-03,1.000000000000000000e+00
8.200258139999999640e-01,-4.355900084299999975e+00,-8.711854529139999581e-01,-8.725466290389999102e+00,1.398761197920000109e-02,1.349855028089999923e-02,-1.374677475539999930e-02,1.000000000000000000e+00
8.250750300000000426e-01,-4.361970636389999711e+00,-8.677952990189999882e-01,-8.743560165479999924e+00,-1.053154747929999774e-02,1.852319389580000045e-02,-2.845304459329999966e-02,1.000000000000000000e+00
8.300079099999999599e-01,-4.404483205690000069e+00,-8.558174225860000206e-01,-8.736319692839998652e+00,1.056634634729999855e-02,4.255053121599999995e-03,-2.442678064109999811e-02,1.000000000000000000e+00
8.350548589999999827e-01,-4.449568255819999152e+00,-8.963556961370000575e-01,-8.755729326699999149e+00,9.667474776510000950e-03,4.824513103810000418e-03,-7.537493482229999132e-03,1.000000000000000000e+00
8.400244679999999686e-01,-4.327120272280000179e+00,-8.821173274259999086e-01,-8.743834306249999244e+00,8.241629227999999405e-03,2.714784350250000044e-03,-3.341982513670000571e-02,1.000000000000000000e+00
8.450258579999999631e-01,-4.402022660790000153e+00,-8.718824952680001017e-01,-8.788713896939999159e+00,2.139098942280000248e-02,9.832644835110000009e-03,-9.503256529569998820e-03,1.000000000000000000e+00
8.500601469999999882e-01,-4.366652656730000359e+00,-8.156712170940000339e-01,-8.766695541880000775e+00,1.842972636219999960e-02,9.225340560080000016e-03,-2.020717225970000003e-02,1.000000000000000000e+00
8.550624300000000400e-01,-4.405414349059999957e+00,-7.835073886570000923e-01,-8.764311277090000019e+00,1.185860019179999815e-02,9.965261444450000672e-03,-1.515125297010000080e-02,1.000000000000000000e+00
8.600228570000000294e-01,-4.373930538769999821e+00,-8.228311718510000761e-01,-8.763480671479999984e+00,1.216771826150000145e-02,1.354991272089999844e-02,-1.487856172030000042e-02,1.000000000000000000e+00
8.650402809999999665e-01,-4.438374953890000363e+00,-8.212107310420000417e-01,-8.729009077560000662e+00,2.324761822819999824e-02,-6.750802043830000584e-03,-6.010676734149999209e-04,1.000000000000000000e+00
8.699805809999999751e-01,-4.385402073119999855e+00,-8.173309669989999859e-01,-8.699920345720000725e+00,2.196418493990000276e-02,5.515448283399999700e-03,-2.179650031029999740e-02,1.000000000000000000e+00
8.750226629999999783e-01,-4.406782714800000278e+00,-8.258544651950000537e-01,-8.711394510419999904e+00,1.059088483449999868e-02,9.793885052199999969e-03,-1.814654469489999922e-02,1.000000000000000000e+00
8.799618009999999879e-01,-4.413313577869999449e+00,-8.113317996500000184e-01,-8.692879195039999729e+00,4.487697035070000416e-03,1.335330493749999937e-02,-2.383064292369999754e-02,1.000000000000000000e+00
8.849938010000000244e-01,-4.426172767190000634e+00,-8.302448091079999148e-01,-8.672908420149999742e+00,2.722455561160000079e-02,2.035386860370000037e-02,-1.515258848669999957e-02,1.000000000000000000e+00
8.899174520000000532e-01,-4.374152657089999785e+00,-8.363586888790000007e-01,-8.694193784770000377e+00,1.120416168119999986e-02,2.939503081140000529e-02,-3.551244735719999435e-02,1.000000000000000000e+00
8.951034420000000269e-01,-4.476452755619999557e+00,-8.744714157819999389e-01,-8.703235169360000967e+00,1.161082461479999786e-02,1.057444699109999844e-02,-7.710849866270000699e-03,1.000000000000000000e+00
8.999866899999999781e-01,-4.406812525420000348e+00,-8.659009366399998964e-01,-8.668003112460000992e+00,1.566673070190000017e-02,1.497073657810000027e-02,-6.753582507370000342e-03,1.000000000000000000e+00
9.050232630000000222e-01,-4.401252260940000660e+00,-8.930394111949999658e-01,-8.648324598520000350e+00,2.288825437430000095e-02,1.536535844209999981e-02,-1.553593948480000084e-02,1.000000000000000000e+00
9.100088029999999772e-01,-4.403623081730000166e+00,-8.993745325009999680e-01,-8.685779007639998994e+00,3.685303963720000086e-03,1.503056380900000136e-03,-1.406743936239999992e-02,1.000000000000000000e+00
9.150156670000000325e-01,-4.397143072059999547e+00,-9.349102485240000648e-01,-8.665472132669998828e+00,1.537822652610000042e-02,1.169724389910000058e-02,-1.189451292159999889e-02,1.000000000000000000e+00
9.199722059999999590e-01,-4.458238469009999427e+00,-9.791871971449999101e-01,-8.718468394319998538e+00,1.076875347640000001e-02,1.454684138299999936e-02,-5.852819420399999958e-03,1.000000000000000000e+00
9.249960600000000088e-01,-4.335520436359999508e+00,-9.862955678460000319e-01,-8.678088453139999103e+00,1.258383505049999983e-02,2.238823473449999893e-02,-1.662490889429999938e-02,1.000000000000000000e+00
9.300045270000000253e-01,-4.404513308560000340e+00,-9.339180956810000378e-01,-8.698181977619999117e+00,1.524670142679999778e-02,2.028775215149999922e-02,-2.292940393090000389e-02,1.000000000000000000e+00
9.350151580000000129e-01,-4.418731219009999656e+00,-9.388232572490000649e-01,-8.704842604550000473e+00,1.487387623639999969e-02,3.103668801490000115e-02,-9.221673011780000262e-03,1.000000000000000000e+00
9.399946129999999789e-01,-4.323535107269999678e+00,-9.178354873430000227e-01,-8.737171341230000721e+00,-4.591386765239999224e-03,2.435594983399999927e-02,-2.379519119860000129e-02,1.000000000000000000e+00
9.449926279999999457e-01,-4.397723502290000752e+00,-8.816220912549999067e-01,-8.691036782039999409e+00,1.268377806989999870e-02,3.442133963110000083e-02,-1.908598281440000016e-02,1.000000000000000000e+00
9.499116399999999460e-01,-4.349465959599999820e+00,-8.773900066429999312e-01,-8.737411579730000710e+00,1.007334887979999954e-02,2.213871292770000151e-02,-2.132518589499999770e-02,1.000000000000000000e+00
9.549590730000000471e-01,-4.405080294800000296e+00,-8.376225713349999547e-01,-8.691409707010000929e+00,-4.284612834449999692e-03,1.703396998349999969e-02,-1.190204732120000129e-02,1.000000000000000000e+00
9.599442379999999497e-01,-4.388248110200000163e+00,-8.666507320940000092e-01,-8.738338046919999158e+00,4.805785603819999995e-03,1.756428368390000258e-02,-3.844918683169999967e-04,1.000000000000000000e+00
9.649464450000000415e-01,-4.376243491890000392e+00,-8.484684480630000358e-01,-8.710237741600000305e+00,5.480610299859999153e-03,1.756860688329999962e-02,-8.829092606899999196e-03,1.000000000000000000e+00
9.699106259999999979e-01,-4.368099932919999873e+00,-8.498010118409999869e-01,-8.721347164630000037e+00,3.080205991859999784e-02,1.570180803540000003e-02,-1.473975647239999902e-02,1.000000000000000000e+00
9.750139300000000286e-01,-4.372303229829999971e+00,-8.583703950049998976e-01,-8.742084832230000657e+00,1.602964848280000187e-02,8.580377325420000117e-03,-9.459823369979998911e-03,1.000000000000000000e+00
9.799417000000000266e-01,-4.332088708339999705e+00,-9.166369252079999974e-01,-8.737110550949999777e+00,9.484268724919999588e-03,1.867356896399999938e-02,-2.088258415459999864e-02,1.000000000000000000e+00
9.849583179999999993e-01,-4.425521609800000533e+00,-9.023309711539999611e-01,-8.743644336630000069e+00,1.756598800419999912e-02,3.059956245120000126e-02,2.633647760380000095e-03,1.000000000000000000e+00
9.898906069999999779e-01,-4.330735247909999863e+00,-9.167218270129999791e-01,-8.739984645079999837e+00,1.880610734219999997e-02,2.509875968100000118e-02,-9.415899403389999716e-04,1.000000000000000000e+00
9.949320720000000007e-01,-4.320208300940000079e+00,-8.951252044930000373e-01,-8.724223596849999041e+00,1.151112280790000074e-02,8.447738364340000652e-03,-1.700909994539999762e-02,1.000000000000000000e+00
9.999645729999999677e-01,-4.372494368489999950e+00,-8.973352817579999252e-01,-8.706208632210000076e+00,5.486624781039999878e-03,1.049314998089999861e-02,-8.241674862800000764e-03,1.000000000000000000e+00
1.005031865999999940e+00,-4.294647158700000134e+00,-9.501437657520001023e-01,-8.742882704610000388e+00,2.029851078990000182e-02,8.520986884830000427e-03,-1.707872562110000075e-02,1.000000000000000000e+00
1.009943276000000001e+00,-4.375618345730000414e+00,-9.130335669539999532e-01,-8.729068114269999512e+00,7.898050360380000356e-03,9.225856512780001781e-03,-1.389757031569999798e-03,1.000000000000000000e+00
1.014969008000000006e+00,-4.329571172569999682e+00,-9.323627559980000035e-01,-8.751264748510001468e+00,1.359024643899999982e-02,1.439952757210000199e-03,5.881844088439999903e-03,1.000000000000000000e+00
1.019921703999999929e+00,-4.305128805229999855e+00,-9.367943817699999620e-01,-8.722006505319999548e+00,8.120391517880000409e-03,3.180039115250000038e-03,-9.674671106040000704e-03,1.000000000000000000e+00
1.024979325000000108e+00,-4.344707659160000013e+00,-9.368471348700000423e-01,-8.733551397170000286e+00,1.215983880679999971e-03,7.626508828249999560e-03,-1.177856978029999911e-02,1.000000000000000000e+00
1.029960377999999954e+00,-4.413346311099999753e+00,-9.329397521680000693e-01,-8.713167365309999468e+00,2.345091430470000026e-03,-1.071076467629999800e-02,-2.007925417270000051e-03,1.000000000000000000e+00
1.034958639000000069e+00,-4.388701991449999618e+00,-8.735079775780000277e-01,-8.714991658119998874e+00,8.506423793729999197e-03,1.512099429970000138e-02,-1.263468526299999905e-03,1.000000000000000000e+00
1.039969887000000037e+00,-4.344316906280000445e+00,-9.169269211310000500e-01,-8.776090562210001167e+00,1.439384650440000025e-04,1.660873740909999882e-02,-1.322191953660000092e-02,1.000000000000000000e+00
1.044990386999999910e+00,-4.369757929260000395e+00,-8.039891818019999636e-01,-8.772848803809999652e+00,1.007551327350000069e-05,-1.768654771149999819e-02,3.144899383190000175e-04,1.000000000000000000e+00
1.050025328999999896e+00,-4.348584208330000145e+00,-8.146217811059999203e-01,-8.778912049369999693e+00,6.692525930699999657e-04,-8.960721082989999905e-03,-1.473240647460000163e-02,1.000000000000000000e+00
1.054957825000000016e+00,-4.413334328399999507e+00,-8.355202652930000529e-01,-8.721387496639998460e+00,1.035407930609999992e-02,8.827112615110000934e-03,1.313831890000000027e-03,1.000000000000000000e+00
1.060022476000000102e+00,-4.362240100980000257e+00,-8.226029891180000053e-01,-8.745030238039998238e+00,1.765663549300000232e-02,-2.307611331339999919e-02,-1.410895586009999932e-02,1.000000000000000000e+00
1.064980132000000079e+00,-4.410137578189999630e+00,-8.725445393729999166e-01,-8.744577233570000274e+00,1.966501772399999876e-02,-1.040505128909999808e-03,-6.741525139659999659e-03,1.000000000000000000e+00
1.069979792999999901e+00,-4.411484024359999978e+00,-8.972790215270001202e-01,-8.722495750140000226e+00,2.265621721740000011e-02,-4.968238063159999621e-03,-6.181146949529999109e-03,1.000000000000000000e+00
1.075004314999999933e+00,-4.369562698949999380e+00,-9.008871290209999882e-01,-8.708287776569999750e+00,1.392387319360000042e-02,-7.718370761720000015e-03,-3.822606988250000157e-03,1.000000000000000000e+00
1.079955564000000034e+00,-4.365977241680000454e+00,-8.758555636170000103e-01,-8.706938115529998967e+00,1.856768503790000302e-02,4.954459611330000110e-03,-9.183209389450001231e-03,1.000000000000000000e+00
1.084989065000000030e+00,-4.414632259260000247e+00,-9.350822440899999588e-01,-8.686838161309999862e+00,-4.897372331470000416e-03,-8.133189752699998554e-03,4.287296906109999949e-05,1.000000000000000000e+00
1.089919319000000053e+00,-4.401264243640000018e+00,-9.243933845539999972e-01,-8.683691095449999509e+00,1.008429937060000003e-02,-4.522990901020000100e-03,8.646097965540000541e-03,1.000000000000000000e+00
1.094971440999999990e+00,-4.392463097550000306e+00,-9.632701546330000308e-01,-8.650484991419999048e+00,1.360842306170000071e-02,8.408872410660000324e-03,2.890750765800000109e-04,1.000000000000000000e+00
1.099971291999999989e+00,-4.362869631050000585e+00,-9.566649842139999249e-01,-8.702493995599999366e+00,1.329386234280000023e-02,8.678713813419999118e-03,-1.158452406530000034e-02,1.000000000000000000e+00
1.104965288999999906e+00,-4.392347654469999974e+00,-9.462938123249999833e-01,-8.734078051390000041e+00,-3.694075858220000064e-03,1.349286641930000146e-03,1.511571463199999968e-04,1.000000000000000000e+00
1.110058524999999907e+00,-4.404395527400000176e+00,-8.399014029870000009e-01,-8.678374284339998468e+00,8.971765637400000437e-03,7.635990623380000883e-03,1.105516590179999800e-02,1.000000000000000000e+00
1.115031547999999928e+00,-4.387888921500000095e+00,-8.698449250249999931e-01,-8.706495047939998955e+00,4.427751991899999372e-03,6.325852591540000007e-03,8.376062847670000255e-03,1.000000000000000000e+00
1.119984193000000072e+00,-4.334084850600000038e+00,-8.958547608769998893e-01,-8.675029650089999933e+00,-4.724347032610000038e-03,6.159792188559999951e-03,-5.434965714810000188e-03,1.000000000000000000e+00
1.125010642999999977e+00,-4.357227533509999695e+00,-9.971586879700000683e-01,-8.687019947619999627e+00,9.136210195719999747e-03,1.606164034460000160e-03,6.344329565759999727e-03,1.000000000000000000e+00
1.130009727000000019e+00,-4.337254420539999877e+00,-8.641873376549998875e-01,-8.717652986290000072e+00,5.996899213640000635e-03,1.519537158310000149e-02,5.332817323510001019e-03,1.000000000000000000e+00
1.134986304999999973e+00,-4.298796971859999871e+00,-1.049142338510000050e+00,-8.777734822290000238e+00,-2.793676219880000203e-03,5.125684197989999538e-03,-5.305171012880000037e-03,1.000000000000000000e+00
1.139999996000000015e+00,-4.334250562550000296e+00,-7.761023730969999201e-01,-8.701029183750000229e+00,8.463568985459999500e-03,4.021073691550000433e-03,3.268888453020000161e-03,1.000000000000000000e+00
1.145012782000000007e+00,-4.338644121339999771e+00,-8.452077657670000743e-01,-8.739345762660001071e+00,8.076784200970001104e-03,-9.246855042870000957e-03,-1.643186435099999732e-02,1.000000000000000000e+00
1.150008496000000102e+00,-4.334788030430000383e+00,-8.099735899740000411e-01,-8.765290351250000001e+00,2.994118491190000172e-03,1.223425148049999984e-03,-6.123785860840000490e-03,1.000000000000000000e+00
1.154970220999999908e+00,-4.359545747330000331e+00,-7.917339497319999531e-01,-8.743439753969999728e+00,1.234932150690000105e-02,-3.071304410700000011e-03,-1.290367636829999921e-02,1.000000000000000000e+00
1.159921038000000015e+00,-4.430171481430000391e+00,-8.936710601620000416e-01,-8.718874637040000763e+00,5.887330975379999505e-03,3.868471365419999877e-03,-4.000044427809999574e-03,1.000000000000000000e+00
1.164949820999999996e+00,-4.347608641299999910e+00,-8.678080123700000481e-01,-8.733627385010001021e+00,4.625017754729999347e-03,-3.042608965190000004e-03,-1.198789291079999965e-02,1.000000000000000000e+00
1.169901606999999899e+00,-4.382403475830000339e+00,-9.043678838089999061e-01,-8.703139892290000290e+00,1.305045839400000018e-02,2.120421733710000246e-03,-9.203441441059998993e-03,1.000000000000000000e+00
1.175003720000000085e+00,-4.374045689589999952e+00,-9.269909267659999230e-01,-8.710967224910000084e+00,2.103587612509999830e-02,-2.132859546690000097e-03,-1.697755977510000125e-02,1.000000000000000000e+00
1.179959659999999966e+00,-4.369617351750000545e+00,-9.606178865579999560e-01,-8.717192383039998660e+00,4.563149530439999935e-03,-8.184864418580000550e-04,2.596703590830000061e-03,1.000000000000000000e+00
1.185054277000000100e+00,-4.307670306399999482e+00,-9.449333376270000473e-01,-8.694438114920000515e+00,1.205575093629999983e-02,-4.792157560590000324e-04,-1.291225291789999986e-02,1.000000000000000000e+00
1.189943787999999891e+00,-4.384146812360000034e+00,-9.853991304629999837e-01,-8.711414968679999760e+00,-9.102012962099999965e-03,-6.565887480970000224e-03,-6.867331452669999531e-03,1.000000000000000000e+00
1.195031353000000074e+00,-4.318916215299999806e+00,-9.521229568700000367e-01,-8.695140125710000945e+00,2.258453750980000138e-04,1.073807477949999950e-02,-9.991250932219999242e-03,1.000000000000000000e+00
1.200040730000000000e+00,-4.360224377240000670e+00,-9.711069857380000281e-01,-8.695768486739998693e+00,-1.560643501579999856e-02,-3.317567287010000400e-03,4.671814385799999522e-04,1.000000000000000000e+00
1.205054596000000089e+00,-4.332247990559999984e+00,-9.863650528859999600e-01,-8.666247208699999760e+00,-1.477282028649999981e-02,-5.746782757340000367e-03,3.898992436009999802e-03,1.000000000000000000e+00
1.209988751999999890e+00,-4.345253018080000196e+00,-1.011394864719999953e+00,-8.685426540939999995e+00,-2.760783210400000187e-02,-1.406884007160000109e-02,-2.131239976729999881e-03,1.000000000000000000e+00
1.215057068999999990e+00,-4.391387577269999731e+00,-1.006482908089999961e+00,-8.676485109599999745e+00,-3.009782358999999602e-02,1.267685554920000091e-03,4.430565051729999648e-03,1.000000000000000000e+00
1.220008270999999977e+00,-4.396731568649999922e+00,-9.460524047849999674e-01,-8.699842019789999270e+00,-2.230890467759999787e-02,-8.330781012770000979e-03,1.784473098809999728e-02,1.000000000000000000e+00
1.225017821000000007e+00,-4.346735365589999844e+00,-9.415003675040000131e-01,-8.722612654520000675e+00,-2.408827841279999674e-02,-1.096122339370000226e-02,6.992187350989999620e-03,1.000000000000000000e+00
1.229928877000000087e+00,-4.372632900180000171e+00,-8.617795458609999182e-01,-8.721821211880000035e+00,-3.363591432570000456e-02,-7.119880057869999029e-03,6.339896470310000393e-03,1.000000000000000000e+00
1.235045677000000008e+00,-4.370846893540000444e+00,-8.715450069419999890e-01,-8.749288480000000590e+00,-1.946315541859999776e-02,5.283050704749999750e-03,6.486797705289999889e-03,1.000000000000000000e+00
1.239981766000000096e+00,-4.352687844260000105e+00,-8.634962135860000387e-01,-8.774854882930000599e+00,-1.652307063339999993e-02,-1.178648672069999934e-03,5.336036905649999169e-03,1.000000000000000000e+00
1.244982191999999932e+00,-4.339959880109999446e+00,-8.477957364329999912e-01,-8.745292688360001065e+00,-2.977635711429999985e-02,-1.010862458499999991e-02,3.081706818189999938e-04,1.000000000000000000e+00
1.249929837000000044e+00,-4.337208827840000502e+00,-8.729211906659999354e-01,-8.758501129510001704e+00,-2.237268164749999996e-02,-9.099001064899999228e-03,-1.467867055910000024e-03,1.000000000000000000e+00
1.255012991999999938e+00,-4.356680128769999882e+00,-8.295617952799999584e-01,-8.702313962859999918e+00,-1.193156652150000052e-02,-1.754953339699999795e-02,-8.098091930150000178e-04,1.000000000000000000e+00
1.260020936999999952e+00,-4.368099932919999873e+00,-8.787862833069999269e-01,-8.754493062910000845e+00,-2.142948284750000043e-02,-1.614517718550000092e-02,6.412891671059999660e-03,1.000000000000000000e+00
1.265009886999999944e+00,-4.315877285990000090e+00,-8.620730489149999176e-01,-8.732968628840000136e+00,-2.846119925379999790e-02,-7.545200642199999079e-03,4.867021925750000116e-03,1.000000000000000000e+00
1.269979285000000013e+00,-4.366013189780000303e+00,-8.857765075200000338e-01,-8.741073024840000372e+00,-7.849466986950000280e-03,-6.619351450350000228e-03,6.714837625619999792e-03,1.000000000000000000e+00
1.275041878999999989e+00,-4.281914226119999611e+00,-8.786728860600000468e-01,-8.728000777300000124e+00,3.991882549599999716e-04,-1.706380955870000216e-02,-1.349672488870000062e-02,1.000000000000000000e+00
1.280015375999999927e+00,-4.449135709619999268e+00,-8.915177545860000219e-01,-8.736122708959999983e+00,-1.944452524190000420e-02,-2.090327674520000081e-03,7.509811781350000243e-03,1.000000000000000000e+00
1.284965401000000007e+00,-4.312103904939999843e+00,-8.668107449609999682e-01,-8.731670405720000971e+00,-1.199872605500000057e-02,-2.544989995659999865e-02,2.785750431940000292e-03,1.000000000000000000e+00
1.290014634000000049e+00,-4.360681765619999872e+00,-8.904477142020000846e-01,-8.732582259870000030e+00,-1.295549236239999964e-02,-1.857987232509999628e-02,6.040115840729999949e-05,1.000000000000000000e+00
1.294966253999999983e+00,-4.394013541859999705e+00,-8.988724281980000619e-01,-8.767820746510000873e+00,-3.806271415670000116e-04,-1.037682965400000060e-02,-1.507304422560000121e-02,1.000000000000000000e+00
1.299957331000000105e+00,-4.409404295480000791e+00,-9.189977360550000141e-01,-8.739102017030001335e+00,-9.997157379980000161e-03,-2.333203330640000461e-02,-5.207548383620000561e-04,1.000000000000000000e+00
1.304985912000000026e+00,-4.374006818879999869e+00,-9.274306333580000228e-01,-8.742086585800000975e+00,4.231272730979999952e-03,-1.350759342309999951e-02,7.499096915130000658e-03,1.000000000000000000e+00
1.309968384000000041e+00,-4.374216369980000074e+00,-8.879727754559999520e-01,-8.736324953529999604e+00,-1.800906262359999732e-03,-1.440325565639999882e-02,-6.613212637599999964e-03,1.000000000000000000e+00
1.314978489000000028e+00,-4.428554109360000268e+00,-8.617462281129999457e-01,-8.733825537930000493e+00,-7.828779518600000736e-03,-5.145833827560000392e-03,1.707279821859999892e-03,1.000000000000000000e+00
1.320004557999999939e+00,-4.414494019830000227e+00,-8.138016238290000093e-01,-8.703498788730000157e+00,-1.237534265970000047e-02,-2.031794935459999701e-02,-1.195180416110000129e-02,1.000000000000000000e+00
1.325033069999999924e+00,-4.353886406390000019e+00,-8.569947958030000867e-01,-8.708277255180000509e+00,-5.898957606410000151e-03,-1.946095935999999846e-02,-9.292061440649999893e-03,1.000000000000000000e+00
1.329972745999999928e+00,-4.473918853219999825e+00,-8.148716642139999244e-01,-8.693668299589999648e+00,-9.015376679599999832e-03,-1.955175958570000080e-02,2.471138490359999895e-03,1.000000000000000000e+00
1.335009152999999893e+00,-4.377304983640000202e+00,-8.422233431280000682e-01,-8.677839446819998415e+00,1.344701088960000013e-02,-1.303107105200000150e-02,-1.631815359000000215e-02,1.000000000000000000e+00
1.340010458999999932e+00,-4.453376123670000020e+00,-8.660861570139999355e-01,-8.690499021900000898e+00,-7.622250355779999764e-03,-1.511113718150000097e-02,-1.416012179109999748e-03,1.000000000000000000e+00
1.345024076999999929e+00,-4.372481509009999989e+00,-8.994507395419999440e-01,-8.686274682210001430e+00,4.731073975560000540e-03,-5.229366943239999828e-04,-1.399661414329999784e-02,1.000000000000000000e+00
1.350015009000000044e+00,-4.435646405710000018e+00,-8.555624249119999636e-01,-8.706437180269999132e+00,5.338301882149999907e-03,-4.833096638319999555e-03,-1.970656681809999835e-03,1.000000000000000000e+00
1.355053784999999955e+00,-4.412313168659999896e+00,-8.839507533979999998e-01,-8.701697876789998176e+00,1.330303261059999917e-03,-3.069441067050000544e-03,-1.853832043709999905e-02,1.000000000000000000e+00
1.360033352000000084e+00,-4.441890853060000310e+00,-7.988039611839998777e-01,-8.742799117980000645e+00,-1.610554009680000009e-02,-2.472264878450000300e-02,-4.685216117649999954e-04,1.000000000000000000e+00
1.365012201000000092e+00,-4.449208774859999771e+00,-8.573409058269999550e-01,-8.797828346769998475e+00,-7.386456709359999137e-03,8.370120078330000463e-03,-1.034294720739999986e-02,1.000000000000000000e+00
1.370015508000000048e+00,-4.324790075769999298e+00,-7.907173931010000878e-01,-8.740219622879999761e+00,1.880733761940000127e-03,1.245840918269999981e-03,-1.469852402810000076e-02,1.000000000000000000e+00
1.374998648000000045e+00,-4.440859171930000571e+00,-8.439375997000000407e-01,-8.746456471449999270e+00,1.941001415250000195e-02,-6.010353099550000151e-04,-1.095593813810000032e-02,1.000000000000000000e+00
1.379898966999999921e+00,-4.362024412400000273e+00,-8.630777689780000372e-01,-8.734898720120000348e+00,2.159687131640000354e-02,-1.780308410530000163e-02,-1.765705458820000101e-02,1.000000000000000000e+00
1.384978929000000081e+00,-4.365848062340000446e+00,-7.787108020300000932e-01,-8.745019716639999885e+00,2.279376238580000172e-02,-2.223348431290000232e-02,-2.294770814479999560e-02,1.000000000000000000e+00
1.389902626000000030e+00,-4.431450123069999414e+00,-8.319885109700000392e-01,-8.745005688119999121e+00,2.916483581070000372e-02,-2.246540971100000061e-02,-3.000045381490000149e-02,1.000000000000000000e+00
1.394952828000000089e+00,-4.380368755130000125e+00,-8.674692088700001191e-01,-8.688620953070000041e+00,2.729284018279999960e-02,-1.192335784440000032e-02,-2.243847586209999842e-02,1.000000000000000000e+00
1.400090998000000031e+00,-4.396487823020000185e+00,-8.803405270110000735e-01,-8.682458923310001353e+00,2.831210941079999668e-02,-6.218829192220000704e-03,-2.932491898539999961e-02,1.000000000000000000e+00
1.405038440000000000e+00,-4.405112735759999509e+00,-9.257711757130000496e-01,-8.709546836719999519e+00,3.523115068669999822e-02,-1.092309132220000041e-02,-3.222599998120000142e-02,1.000000000000000000e+00
1.409993400999999924e+00,-4.407850636290000068e+00,-9.095900023710000726e-01,-8.758929584049999661e+00,2.209810540079999719e-02,-3.499705344440000050e-03,-2.756729535760000030e-02,1.000000000000000000e+00
1.415047606999999985e+00,-4.410060129040000554e+00,-9.068123543520000274e-01,-8.711338980840000801e+00,6.952063646169999965e-03,-6.525651551779999664e-03,-1.986334845419999995e-02,1.000000000000000000e+00
1.420029997999999960e+00,-4.359975955440000384e+00,-8.649484582209999717e-01,-8.678643164410001276e+00,2.500208467250000094e-02,-5.286444909869999174e-03,-3.059216961259999742e-02,1.000000000000000000e+00
1.425030463999999997e+00,-4.438627759609999224e+00,-8.768471319380000129e-01,-8.697538419019998912e+00,3.410918638109999845e-02,-1.105869747699999954e-02,-2.391820400949999995e-02,1.000000000000000000e+00
1.429954425000000029e+00,-4.385988348569999751e+00,-8.935627044169999200e-01,-8.699022520099999767e+00,2.335722744459999695e-02,4.159131553020000392e-03,-3.689637407659999979e-02,1.000000000000000000e+00
1.434960742999999983e+00,-4.435984551630000716e+00,-8.994059505529999887e-01,-8.691506153119998856e+00,4.514880105849999881e-02,6.046264898030000168e-03,-2.991239354009999837e-02,1.000000000000000000e+00
1.439985314999999932e+00,-4.397509275019999997e+00,-8.596381499179999164e-01,-8.758189579339999753e+00,2.237847447399999787e-02,9.785616770390000510e-03,-2.889158204199999969e-02,1.000000000000000000e+00
1.444985232999999925e+00,-4.379342919209999963e+00,-8.726413508110000272e-01,-8.747458341970000717e+00,-4.917164333159999498e-03,4.184268880639999827e-03,-3.539486974480000187e-02,1.000000000000000000e+00
1.449971157000000010e+00,-4.410300952050000056e+00,-8.270341764990000177e-01,-8.707883287419999618e+00,4.364463686940000392e-02,-7.998482324180000019e-03,-3.544472903010000009e-02,1.000000000000000000e+00
1.454991125000000052e+00,-4.393382550480000148e+00,-8.830676138879999248e-01,-8.716292803849999160e+00,4.408842325209999524e-02,3.099982161070000044e-03,-3.605025634169999743e-02,1.000000000000000000e+00
1.460021596000000033e+00,-4.425602566080000244e+00,-8.694304990060000016e-01,-8.663141059380000897e+00,2.434069290759999921e-02,1.586640719319999887e-03,-3.346355631950000131e-02,1.000000000000000000e+00
1.465048783000000077e+00,-4.386710525369999836e+00,-9.299689196639999711e-01,-8.651766263400000767e+00,3.227181732650000190e-02,-1.257525011900000045e-02,-5.423175916079999576e-02,1.000000000000000000e+00
1.469965395000000008e+00,-4.423981394619999286e+00,-8.989749387240000278e-01,-8.639196120170000270e+00,3.297541290520000085e-02,-1.113727875049999941e-02,-5.023600533599999890e-02,1.000000000000000000e+00
1.475047017999999932e+00,-4.419723737180000889e+00,-9.992074371929999810e-01,-8.668808583620000618e+00,2.553728595379999716e-02,1.445188000800000025e-02,-3.951663523909999809e-02,1.000000000000000000e+00
1.480031571999999906e+00,-4.436009686070000235e+00,-9.429125723890000588e-01,-8.631666893710001176e+00,2.310337126259999832e-02,1.818392612040000203e-02,-3.035065904259999850e-02,1.000000000000000000e+00
1.485043737000000030e+00,-4.392255592280000620e+00,-9.679875385430001256e-01,-8.644491303969999763e+00,2.628122642640000339e-02,1.912048459049999968e-02,-4.554185643789999960e-02,1.000000000000000000e+00
1.490026762999999921e+00,-4.402572695889999999e+00,-9.443908282480000249e-01,-8.656141994269999529e+00,2.544565498829999897e-02,2.467031590639999755e-03,-4.248968139290000556e-02,1.000000000000000000e+00
1.495031774000000091e+00,-4.428894885630000111e+00,-9.067539021630000029e-01,-8.716465237810000488e+00,3.370471671219999604e-02,2.933912910519999892e-04,-3.982486948369999558e-02,1.000000000000000000e+00
1.500065390000000054e+00,-4.410108936610000363e+00,-8.773160646240000249e-01,-8.737878612719999438e+00,9.375719353560000094e-03,1.455674692989999963e-02,-3.066597878930000035e-02,1.000000000000000000e+00
1.504919647999999999e+00,-4.423121562919999583e+00,-8.435810413480000491e-01,-8.704742651310001023e+00,3.636857494709999639e-02,8.606800809499999538e-03,-3.528786078099999807e-02,1.000000000000000000e+00
1.509871726000000081e+00,-4.427653945650000367e+00,-8.828727489030000486e-01,-8.708124110439998233e+00,3.008778020740000142e-02,7.964763790370000054e-03,-3.609722852709999763e-02,1.000000000000000000e+00
1.514928008999999909e+00,-4.371057029160000162e+00,-9.202535082700000757e-01,-8.746284037489999719e+00,2.074697241190000263e-02,2.085342258210000008e-02,-4.049799591299999696e-02,1.000000000000000000e+00
1.519918096999999912e+00,-4.408819481330000123e+00,-8.686492124349999289e-01,-8.706371713819999414e+00,4.097731411459999695e-02,1.469129696489999970e-02,-4.163521528240000241e-02,1.000000000000000000e+00
1.524938813999999976e+00,-4.390594381069999663e+00,-9.415026325259999718e-01,-8.733772346439998557e+00,4.258135706190000619e-02,2.884777449070000110e-02,-4.354476183650000248e-02,1.000000000000000000e+00
1.529949406000000067e+00,-4.389074624150000048e+00,-9.806487210650000064e-01,-8.719332902199999680e+00,4.062581807369999853e-02,1.245360821490000026e-02,-4.348831623790000434e-02,1.000000000000000000e+00
1.534972167999999915e+00,-4.342715900819999142e+00,-9.946762235050000678e-01,-8.676134980989999690e+00,4.228515923019999373e-02,1.939009129999999873e-02,-4.881615191700000578e-02,1.000000000000000000e+00
1.539922623999999907e+00,-4.335936615940000571e+00,-1.025677072579999960e+00,-8.677613236839999189e+00,3.903285413980000368e-02,3.797705098990000055e-02,-4.869792610410000194e-02,1.000000000000000000e+00
1.545027788000000069e+00,-4.356060243299999968e+00,-9.868084858040000462e-01,-8.718679991249999262e+00,5.158895999189999637e-02,1.046281866729999871e-02,-3.441472351549999809e-02,1.000000000000000000e+00
1.549989877000000016e+00,-4.371769561349999833e+00,-9.191330528730000671e-01,-8.737901409070000014e+00,3.935003280640000239e-02,1.402798108760000030e-02,-1.830602064730000103e-02,1.000000000000000000e+00
1.555058647000000072e+00,-4.313098176669999617e+00,-9.271875453169999837e-01,-8.722408071860000334e+00,3.819409757850000114e-02,2.643071301279999868e-02,-5.166158825159999218e-02,1.000000000000000000e+00
1.560034667999999902e+00,-4.385861215060000262e+00,-9.711985364790000075e-01,-8.710979499869999643e+00,4.460345953700000504e-02,7.614319678399998972e-03,-3.363742306830000417e-02,1.000000000000000000e+00
1.565038284999999973e+00,-4.342737528129999802e+00,-9.439467377420001082e-01,-8.717537250950000427e+00,2.963706851009999949e-02,1.209038309750000081e-02,-3.067503683269999851e-02,1.000000000000000000e+00
1.570029032999999963e+00,-4.325228467190000536e+00,-9.439639080730000131e-01,-8.725468043950000308e+00,4.107769206169999826e-02,2.656888030470000092e-02,-4.396022483709999956e-02,1.000000000000000000e+00
1.575029833000000101e+00,-4.361142368869999508e+00,-9.524586916310000539e-01,-8.740067647189999178e+00,4.299204051490000678e-02,1.638044603170000016e-02,-3.293273970479999868e-02,1.000000000000000000e+00
1.580003460999999998e+00,-4.291156978500000108e+00,-9.889692440350000835e-01,-8.696946298350001214e+00,4.819256812330000028e-02,9.660921990870001766e-03,-5.599002167580000022e-02,1.000000000000000000e+00
1.584978543000000073e+00,-4.416613788459999412e+00,-9.793344235959999811e-01,-8.694989903579999790e+00,4.709420353169999768e-02,8.464366197590000862e-03,-2.965183556080000157e-02,1.000000000000000000e+00
1.589953476999999893e+00,-4.344856712240000363e+00,-1.017624772090000018e+00,-8.713183147400000550e+00,3.487871214749999754e-02,1.662666536870000336e-02,-2.986769936979999721e-02,1.000000000000000000e+00
1.594981838999999901e+00,-4.410452635480000438e+00,-1.031619979690000077e+00,-8.705400238439999328e+00,4.375359043480000348e-02,1.500817388299999916e-02,-2.663581818340000212e-02,1.000000000000000000e+00
1.600044489000000070e+00,-4.434226309780000541e+00,-1.032957219650000091e+00,-8.716544732790000083e+00,2.332514151929999599e-02,5.599083844569999364e-03,-3.995783161369999975e-03,1.000000000000000000e+00
1.605080143999999986e+00,-4.330309715969999473e+00,-1.059637063710000104e+00,-8.639889363130000888e+00,3.202877938750000458e-02,1.284826546909999950e-02,-3.627227991819999969e-02,1.000000000000000000e+00
1.609985232000000099e+00,-4.405350343909999467e+00,-1.001198611010000183e+00,-8.614583072440000322e+00,2.335707470770000127e-02,2.966318093240000175e-02,-2.122972160580000045e-02,1.000000000000000000e+00
1.615038375999999998e+00,-4.395873490509999648e+00,-9.359373265489999705e-01,-8.641857448330000580e+00,2.883906289940000103e-02,2.403811924160000058e-02,-2.211270853879999942e-02,1.000000000000000000e+00
1.620036950000000031e+00,-4.351899616489999900e+00,-9.078297877659999848e-01,-8.681049056510000028e+00,2.248280122879999995e-02,1.922170631590000220e-02,-3.120968118309999650e-02,1.000000000000000000e+00
1.625046521000000022e+00,-4.332395290080000017e+00,-8.789216731890000522e-01,-8.757750603399999889e+00,2.675677835940000124e-02,1.529132947329999923e-02,-2.694171667100000306e-02,1.000000000000000000e+00
1.630060802999999892e+00,-4.284644820119999586e+00,-8.873818968899999104e-01,-8.756487451599999972e+00,2.349338680509999860e-02,1.486207172269999981e-02,-2.634681202469999969e-02,1.000000000000000000e+00
1.635047952000000082e+00,-4.245782882290000337e+00,-9.923063525679999275e-01,-8.775537019979999798e+00,3.865770250560000149e-02,1.065472885970000262e-02,-3.303374350069999965e-02,1.000000000000000000e+00
1.640050116999999918e+00,-4.315427204140000583e+00,-1.057133191139999928e+00,-8.714870662090000053e+00,3.245962411170000284e-02,1.032386906450000023e-02,-1.381474826479999786e-02,1.000000000000000000e+00
1.645076648000000086e+00,-4.248428428359999565e+00,-1.048210245289999953e+00,-8.786303913189998482e+00,3.717846050859999890e-02,7.624350022519999978e-03,-3.244025260209999761e-02,1.000000000000000000e+00
1.649913916999999897e+00,-4.255041709019999452e+00,-9.148173085659999648e-01,-8.760240082130000161e+00,3.830954059959999769e-02,5.592901725320000191e-03,-4.045680165290000546e-02,1.000000000000000000e+00
1.654997846000000106e+00,-4.367870800340000415e+00,-9.257711757130000496e-01,-8.705089272789999555e+00,5.232563614849999878e-02,-4.299096763130000678e-03,-5.683836340900000339e-02,1.000000000000000000e+00
1.659987520999999910e+00,-4.421243201830000302e+00,-6.284791048349999132e-01,-8.848169125469999230e+00,3.838308528069999531e-02,3.389948979019999885e-03,-4.315778985619999480e-02,1.000000000000000000e+00
1.664986792000000104e+00,-4.513449776359999888e+00,-8.916150044149999676e-01,-8.791466410519999997e+00,6.011626869440000326e-02,-3.662589006130000536e-03,-4.372587427499999985e-02,1.000000000000000000e+00
1.669959307999999920e+00,-4.315683224730000767e+00,-7.367501675269999550e-01,-8.539837335790000594e+00,4.971087351440000440e-02,1.827485393729999996e-03,-3.796009719369999869e-02,1.000000000000000000e+00
1.674997053000000014e+00,-4.278288729100000687e+00,-8.966636661069999903e-01,-8.742387030050000618e+00,6.232532858850000496e-02,4.383180756120000354e-03,-5.651323869819999818e-02,1.000000000000000000e+00
1.680016445999999997e+00,-4.428166279090000046e+00,-1.121408387170000021e+00,-8.639979379499999723e+00,8.142451196909999966e-02,1.179857924579999842e-02,-5.037697777150000611e-02,1.000000000000000000e+00
1.685016529999999957e+00,-4.291756697960000366e+00,-1.157563915589999937e+00,-8.764934961939998104e+00,7.223626226189999722e-02,1.723586022850000232e-02,-3.130332008000000221e-02,1.000000000000000000e+00
1.689968753999999906e+00,-4.336310709950000231e+00,-1.112936107699999955e+00,-8.742698580219999016e+00,6.577855348590000428e-02,1.147558726369999997e-02,-5.011554807419999619e-02,1.000000000000000000e+00
1.695026361000000037e+00,-4.333273826480000146e+00,-1.061813457910000036e+00,-8.733193669769999445e+00,4.463368654249999512e-02,1.340956799690000076e-02,-5.539925396439999983e-02,1.000000000000000000e+00
1.699990389000000102e+00,-4.373571057809999552e+00,-1.040253660270000102e+00,-8.704339915730001209e+00,6.550447642800000247e-02,-2.610753756020000021e-03,-2.590368501839999948e-02,1.000000000000000000e+00
1.705030358999999995e+00,-4.229612376469999546e+00,-1.064181867539999882e+00,-8.696324367060000782e+00,5.216061696409999421e-02,-9.065468795600000948e-03,-4.009741172190000452e-02,1.000000000000000000e+00
1.710015330000000056e+00,-4.344498400319999121e+00,-1.124830178310000095e+00,-8.734815718010001007e+00,5.816798657180000109e-02,1.538851670920000220e-02,-4.506226629019999957e-02,1.000000000000000000e+00
1.714960539000000006e+00,-4.404650086690000244e+00,-1.147783987589999999e+00,-8.650298528939998732e+00,5.728339776400000194e-02,2.624265290799999983e-02,-3.406703099609999924e-02,1.000000000000000000e+00
1.719951489999999916e+00,-4.470598768890000407e+00,-1.120766947460000162e+00,-8.713245691239999147e+00,5.449999123809999568e-02,-1.874642446640000307e-02,-1.861530356109999951e-02,1.000000000000000000e+00
1.724963417999999971e+00,-4.471264831580000099e+00,-9.853477656020001030e-01,-8.611736450830001388e+00,3.256900981070000312e-02,1.723508350550000123e-02,-2.168869599700000081e-02,1.000000000000000000e+00
1.730007359000000022e+00,-4.439677853190000079e+00,-8.606250420640000343e-01,-8.620549287360001145e+00,2.377909421920000252e-02,2.384422905740000292e-02,-2.764960750940000100e-02,1.000000000000000000e+00
1.734917280999999978e+00,-4.464975668310000145e+00,-8.832193703829999132e-01,-8.618129366739999853e+00,3.728200867769999871e-02,2.427941933269999950e-02,-1.845412701370000019e-02,1.000000000000000000e+00
1.740032559000000090e+00,-4.408227068389999559e+00,-9.844337194969999816e-01,-8.622753519410000678e+00,5.610374361280000971e-02,2.604626677929999801e-02,-2.804554998870000329e-02,1.000000000000000000e+00
1.745029122000000044e+00,-4.382019152679999863e+00,-1.100293337620000145e+00,-8.650168180560001474e+00,6.656034290789999974e-02,3.546778485180000079e-02,-1.599343307320000296e-02,1.000000000000000000e+00
1.749980293999999992e+00,-4.372915516509999989e+00,-1.205809037189999877e+00,-8.767321564819999580e+00,6.029027700419999775e-02,2.746723406020000133e-02,-3.280115872619999984e-02,1.000000000000000000e+00
1.755037997999999932e+00,-4.357008922330000367e+00,-1.180576030929999964e+00,-8.719863648069999584e+00,5.034257844089999601e-02,-9.062260389329999596e-03,-3.549696132539999910e-02,1.000000000000000000e+00
1.760033932000000023e+00,-4.479201762059999758e+00,-1.195918780690000016e+00,-8.724418242639998766e+00,4.700858518480000026e-02,6.518264766779999914e-03,1.403107075019999987e-03,1.000000000000000000e+00
1.764992206000000063e+00,-4.295080581680000620e+00,-1.165394828409999972e+00,-8.739939636900000863e+00,4.875422269109999651e-02,1.306068152189999998e-02,-1.751747913659999767e-02,1.000000000000000000e+00
1.769983134999999930e+00,-4.307005412749999707e+00,-1.193250365199999941e+00,-8.920867281930000559e+00,6.165898218750000270e-02,3.730254247780000632e-03,-1.315481122579999912e-02,1.000000000000000000e+00
1.774927955999999973e+00,-4.060600210159999612e+00,-1.212836816939999895e+00,-9.149227124750000328e+00,8.301940560339998720e-02,-1.396723464129999946e-02,1.735222293059999902e-03,1.000000000000000000e+00
1.779974665999999983e+00,-3.935120311569999529e+00,-1.126665796239999962e+00,-9.178222333089998131e+00,1.271601021290000022e-01,-5.162555724380000349e-02,1.064626406879999945e-02,1.000000000000000000e+00
1.784974598000000023e+00,-4.037703026430000008e+00,-1.094634873469999992e+00,-8.932526155549998848e+00,1.568326056000000079e-01,-1.184989139440000006e-01,4.807647690179999572e-02,1.000000000000000000e+00
1.789918128000000053e+00,-4.189927724080000360e+00,-1.015404684890000020e+00,-8.956501489900000834e+00,1.671563535930000177e-01,-1.870245039460000092e-01,3.017010912299999958e-02,1.000000000000000000e+00
1.794965678000000064e+00,-4.393857766780000063e+00,-8.137701327130000273e-01,-8.817063793110001768e+00,1.829224377870000140e-01,-2.350864708419999893e-01,3.090075775979999814e-02,1.000000000000000000e+00
1.799961034999999931e+00,-4.548540378969999409e+00,-7.525217371539999478e-01,-8.557543088350000104e+00,1.843145191670000071e-01,-2.109682261939999914e-01,8.233221247789999225e-03,1.000000000000000000e+00
1.805065402000000097e+00,-4.654248824630000669e+00,-8.429294455710000245e-01,-8.464377313399999991e+00,1.715676933529999837e-01,-1.798696815969999807e-01,-1.363408286120000069e-02,1.000000000000000000e+00
1.809977909999999968e+00,-4.580731753000000239e+00,-1.115970433900000058e+00,-8.506548229650000792e+00,1.535835266109999986e-01,-1.238471046089999889e-01,-3.138917312029999851e-02,1.000000000000000000e+00
1.815041761000000031e+00,-4.533502092049999987e+00,-1.136050660510000032e+00,-8.582374747270000270e+00,1.142343208190000070e-01,-6.502384692430000779e-02,-1.737242378289999972e-02,1.000000000000000000e+00
1.820029244000000102e+00,-4.519814635219999488e+00,-1.146698676570000019e+00,-8.707931218220000602e+00,7.318181544539999195e-02,-4.488056525589999984e-02,-3.880019066859999918e-03,1.000000000000000000e+00
1.825018811000000074e+00,-4.435499690719999499e+00,-1.128116068109999981e+00,-8.739328226999999671e+00,8.379413187499999693e-02,-4.395249485970000036e-02,-8.258054964239999393e-03,1.000000000000000000e+00
1.830023053999999982e+00,-4.265580054169999968e+00,-1.177757977840000025e+00,-8.776854532319999791e+00,9.401334822180000550e-02,-6.043828651309999384e-02,-2.103723585609999780e-02,1.000000000000000000e+00
1.835035903000000079e+00,-4.333755472510000040e+00,-1.078605748880000048e+00,-8.751975527129999932e+00,9.245656430719999264e-02,-6.185903400179999789e-02,-2.931541204449999993e-02,1.000000000000000000e+00
1.840045370999999985e+00,-4.454950825640000112e+00,-1.049465140729999968e+00,-8.724249900339998476e+00,8.868006616830000077e-02,-5.243276059629999736e-02,-2.615649253130000046e-02,1.000000000000000000e+00
1.845068544000000088e+00,-4.490532718889999941e+00,-1.155177531909999944e+00,-8.720179874419999422e+00,8.998656272890000196e-02,-6.931798905130000243e-02,-2.097006514670000238e-02,1.000000000000000000e+00
1.850005737999999900e+00,-4.487388867910000023e+00,-1.166749457889999952e+00,-8.690902342010000226e+00,7.702638208869999614e-02,-5.690574273469999750e-02,-2.719808556139999972e-02,1.000000000000000000e+00
1.855022181999999908e+00,-4.455223212840000002e+00,-1.181023409370000055e+00,-8.684124226170000682e+00,7.295675575730001250e-02,-3.493386879559999547e-02,-4.138932749630000463e-02,1.000000000000000000e+00
1.859966368999999897e+00,-4.505649916269999444e+00,-1.122478719810000136e+00,-8.654011996499999526e+00,6.542283296589999908e-02,-4.593374207619999733e-02,-2.141908742490000045e-02,1.000000000000000000e+00
1.865015644999999944e+00,-4.451989637749999673e+00,-1.333236854969999996e+00,-8.685516557310000607e+00,6.788515299559999550e-02,-4.316128790379999969e-02,-3.546433150769999487e-02,1.000000000000000000e+00
1.869923605999999960e+00,-4.478176510669999999e+00,-1.184564369909999915e+00,-8.679546250730000523e+00,6.186138838530000350e-02,-2.179898694159999872e-02,-2.760633639990000068e-02,1.000000000000000000e+00
1.874932395000000085e+00,-4.512033772079999672e+00,-1.171268835010000009e+00,-8.671338394360001089e+00,5.140747874979999937e-02,-2.951970696450000042e-02,-2.249678596849999726e-02,1.000000000000000000e+00
1.879984867999999976e+00,-4.530620983650000433e+00,-1.130540299590000020e+00,-8.643795138390000687e+00,6.367397308349999341e-02,-3.103302046659999966e-02,-1.485964376479999814e-02,1.000000000000000000e+00
1.884992028000000097e+00,-4.416086257459999942e+00,-1.079598851570000129e+00,-8.633439748600000740e+00,5.956596508619999703e-02,-3.299940004940000310e-02,-2.370019815859999990e-02,1.000000000000000000e+00
1.889970198000000101e+00,-4.515780849659999596e+00,-1.054374028620000070e+00,-8.623920809619999517e+00,4.069913551209999869e-02,-1.751338876779999845e-02,-5.281041376290000235e-03,1.000000000000000000e+00
1.894983751999999910e+00,-4.548858066610000250e+00,-1.114977696530000006e+00,-8.658729672679999823e+00,4.474737495180000635e-02,-2.000807784499999964e-02,-2.117735333739999976e-02,1.000000000000000000e+00
1.899995225999999926e+00,-4.543085912950000527e+00,-1.079755357310000052e+00,-8.556456462160001664e+00,3.787462040780000677e-02,4.390543326739999863e-03,-1.761728152629999863e-02,1.000000000000000000e+00
1.904970775000000005e+00,-4.505307386440000172e+00,-1.191357171860000008e+00,-8.522931793699999758e+00,2.941434085370000021e-02,-1.023631170390000046e-02,-2.138091251250000269e-02,1.000000000000000000e+00
1.909958143999999969e+00,-4.383768042180000712e+00,-1.178376621189999973e+00,-8.615321908100000314e+00,4.444808885459999859e-02,9.772557765249999945e-03,-1.697721891109999978e-02,1.000000000000000000e+00
1.914985490999999929e+00,-4.353350107559999849e+00,-1.172121287120000188e+00,-8.706764512530000388e+00,4.015428572890000075e-02,2.404938451949999688e-03,-1.535179279739999972e-02,1.000000000000000000e+00
1.920041834000000058e+00,-4.365719467529999953e+00,-1.163780013629999832e+00,-8.717849385639999227e+00,2.578062936659999624e-02,-6.703651044520000241e-03,-2.322837710380000129e-02,1.000000000000000000e+00
1.924942380000000064e+00,-4.460263252840000803e+00,-1.107276328380000008e+00,-8.667977393490000182e+00,2.784647047519999905e-02,-1.391025260089999958e-02,-6.769858300689999067e-03,1.000000000000000000e+00
1.929871914000000022e+00,-4.483056099399999717e+00,-1.181457124610000076e+00,-8.610473883550000096e+00,2.748325094579999808e-02,-1.115974411370000176e-02,-1.521104201670000176e-02,1.000000000000000000e+00
1.934959821999999940e+00,-4.405110982200000080e+00,-1.231373540429999913e+00,-8.576399764510000523e+00,3.239655122159999789e-02,-3.013523295519999687e-03,-2.715044468640000208e-02,1.000000000000000000e+00
1.939903356000000079e+00,-4.314693629169999767e+00,-1.347063720270000209e+00,-8.562408064039999545e+00,1.609240099789999850e-02,-1.396526768799999894e-02,-2.328875102099999678e-02,1.000000000000000000e+00
1.944955653000000062e+00,-4.231223611059999890e+00,-1.357903532579999961e+00,-8.679393106000000913e+00,2.965678647159999612e-02,-1.035979483280000026e-03,-1.770658977329999870e-02,1.000000000000000000e+00
1.949982778000000083e+00,-4.301357762250000327e+00,-1.411417388370000081e+00,-8.714605289159999657e+00,5.870132707060000087e-03,1.732228789479999973e-03,-2.138867974279999584e-02,1.000000000000000000e+00
1.954984510000000064e+00,-4.368641200189999907e+00,-1.444129571399999756e+00,-8.664187938080001317e+00,-1.521297916769999946e-02,1.032727537679999910e-03,-1.292682811620000059e-02,1.000000000000000000e+00
1.960007778000000034e+00,-4.447996184199999981e+00,-1.309021866639999976e+00,-8.609623404199998831e+00,-4.043014720080000124e-02,-2.164763584729999940e-02,3.636874957010000336e-03,1.000000000000000000e+00
1.965001776999999894e+00,-4.376664055390000030e+00,-1.309894411699999983e+00,-8.697606808080001528e+00,-3.130406886340000167e-02,-2.100694179529999719e-02,-4.403786733750000241e-04,1.000000000000000000e+00
1.969907563000000028e+00,-4.200080577039999596e+00,-1.312823012489999996e+00,-8.818919065589998496e+00,-5.269482731819999377e-03,-8.844630792739999539e-03,3.467326750979999716e-03,1.000000000000000000e+00
1.975001349000000017e+00,-4.174862841409999525e+00,-1.341149673919999952e+00,-8.775821097619999733e+00,1.467410568150000032e-02,-6.011521071200000288e-02,1.632059179250000200e-02,1.000000000000000000e+00
1.980039794000000075e+00,-4.191706716449999703e+00,-1.400189453519999905e+00,-8.728670639389999764e+00,1.004315353929999786e-02,-9.164930880069999120e-02,3.432019799950000033e-02,1.000000000000000000e+00
1.984969352000000020e+00,-4.303042938860000000e+00,-1.385511232089999822e+00,-8.862892647349999820e+00,1.474878471339999969e-02,-9.990252554419999653e-02,5.534805357459999381e-02,1.000000000000000000e+00
1.990083451999999919e+00,-3.702159696959999913e+00,-1.436842044740000102e+00,-9.062726068389999057e+00,7.438201457260000884e-03,-1.463218927380000034e-01,5.791584774849999756e-02,1.000000000000000000e+00
1.995040179999999941e+00,-3.570666237180000646e+00,-1.098754583749999902e+00,-9.095296212599999208e+00,3.634205088019999697e-02,-1.816656887530000153e-01,8.224049210549999600e-02,1.000000000000000000e+00
2.000014715999999915e+00,-3.650038464580000142e+00,-1.310203623779999882e+00,-8.808470736810001256e+00,6.195472180840000398e-02,-2.338065206999999923e-01,1.232385858889999963e-01,1.000000000000000000e+00
2.004980623999999878e+00,-3.340990927850000070e+00,-1.607045758930000012e+00,-8.901970273759999941e+00,5.498009547590000656e-02,-2.971013188359999946e-01,1.561962068080000043e-01,1.000000000000000000e+00
2.010057300000000158e+00,-3.751832659409999771e+00,-1.357939919070000112e+00,-8.753497037609999865e+00,6.227537989620000186e-02,-3.773608207699999939e-01,1.705445647239999807e-01,1.000000000000000000e+00
2.014991590999999804e+00,-3.851923849709999459e+00,-1.369396840370000090e+00,-9.138302410639999707e+00,2.902773395179999993e-02,-4.353945553299999882e-01,2.075847387310000014e-01,1.000000000000000000e+00
2.019993149999999904e+00,-3.374339947479999768e+00,-1.245351358510000006e+00,-9.188068604319999721e+00,5.175055935980000382e-02,-4.797025322909999612e-01,2.298118174079999965e-01,1.000000000000000000e+00
2.024963534999999926e+00,-3.970660996030000334e+00,-3.890497691320000118e-01,-8.645504864919999477e+00,2.596814185380000306e-02,-5.139073729519999523e-01,2.236987352369999849e-01,1.000000000000000000e+00
2.029985710000000054e+00,-5.262475122769999736e+00,-7.544798124189999733e-01,-8.258549620380000178e+00,2.256081998349999951e-02,-5.195127725600000579e-01,2.063785791400000180e-01,1.000000000000000000e+00
2.034993984999999839e+00,-5.805251628139999731e+00,-1.451515882260000057e+00,-7.944767748610000346e+00,4.039077460769999878e-02,-4.488020241260000098e-01,1.776260286570000013e-01,1.000000000000000000e+00
2.040043722000000059e+00,-5.173728333299999704e+00,-1.327153297270000198e+00,-7.888487058460000867e+00,4.292741417880000659e-02,-3.840957880020000048e-01,1.406218856570000120e-01,1.000000000000000000e+00
2.044995259999999870e+00,-4.923926473999999942e+00,-1.611797483499999961e+00,-7.946329006569999187e+00,2.343977615240000131e-02,-2.837127149109999746e-01,1.260377019639999929e-01,1.000000000000000000e+00
2.050047848000000172e+00,-4.882254447180000234e+00,-1.453641203849999952e+00,-8.198709776450000319e+00,-3.058239445090000022e-02,-1.602858453989999821e-01,1.232672259210000065e-01,1.000000000000000000e+00
2.054998725999999998e+00,-4.452691648540000102e+00,-1.574530705899999994e+00,-8.362162555070000280e+00,-9.923853725189998864e-02,-1.224350258709999972e-01,1.461171358819999821e-01,1.000000000000000000e+00
2.059949587999999832e+00,-4.267687547840000484e+00,-1.697164713529999869e+00,-8.447088324950000171e+00,-1.308772265909999843e-01,-1.362346261740000064e-01,1.565395444630000021e-01,1.000000000000000000e+00
2.064951258999999872e+00,-4.165128213860000095e+00,-1.406126880740000029e+00,-8.710725817369999291e+00,-1.304122358560000083e-01,-1.683781594039999996e-01,1.820811480279999894e-01,1.000000000000000000e+00
2.069915180999999826e+00,-4.496737418750000437e+00,-1.037218603420000163e+00,-8.715048356749999670e+00,-1.140421107410000134e-01,-1.946294605730000127e-01,1.766199618580000241e-01,1.000000000000000000e+00
2.074902432000000019e+00,-4.699658868930000288e+00,-1.205605988899999925e+00,-8.476821199910000715e+00,-1.060866862539999872e-01,-2.145479023459999912e-01,1.564513593909999944e-01,1.000000000000000000e+00
2.080043469000000034e+00,-4.679718781450000087e+00,-1.214612156050000058e+00,-8.257672837550000366e+00,-8.032280206680000867e-02,-1.917899698019999988e-01,1.543281078340000001e-01,1.000000000000000000e+00
2.085039823999999875e+00,-4.816082185349999989e+00,-1.265506111650000154e+00,-8.410442894119999124e+00,-6.582292169329999332e-02,-1.694530397650000075e-01,1.667619347569999910e-01,1.000000000000000000e+00
2.089975590999999966e+00,-4.803064882869999330e+00,-1.183898234160000174e+00,-8.450185121919998821e+00,-7.294929027560000112e-02,-1.506247073410000026e-01,1.896563619379999788e-01,1.000000000000000000e+00
2.095064789999999899e+00,-4.820766543780000468e+00,-1.116897120289999989e+00,-8.442080725920000361e+00,-9.013163298369999965e-02,-1.361792087550000030e-01,1.757356673480000020e-01,1.000000000000000000e+00
2.100046508000000145e+00,-4.804280688399999555e+00,-1.206946005329999849e+00,-8.373068564489999588e+00,-1.164512634280000097e-01,-1.309594064949999859e-01,1.887906193730000126e-01,1.000000000000000000e+00
2.105044624000000031e+00,-4.721083934280000172e+00,-1.241742958749999959e+00,-8.392970365789999221e+00,-1.119364500049999933e-01,-1.047133058309999976e-01,1.779559701680000217e-01,1.000000000000000000e+00
2.110016431000000026e+00,-4.735958847330000054e+00,-1.184805119870000034e+00,-8.536201025120000452e+00,-1.055206656460000031e-01,-9.683001041410001231e-02,1.896193623539999817e-01,1.000000000000000000e+00
2.115091238000000207e+00,-4.811356033620000083e+00,-1.066329254829999851e+00,-8.485826928659999879e+00,-9.619487822060000803e-02,-1.153704747559999994e-01,1.993305087090000149e-01,1.000000000000000000e+00
2.120039354000000209e+00,-5.065960032499999599e+00,-9.410165295090000548e-01,-8.550329503710001333e+00,-1.188054457310000062e-01,-8.725763112310000458e-02,1.994522511960000188e-01,1.000000000000000000e+00
2.125033735999999784e+00,-5.027263514359999519e+00,-1.075141799100000073e+00,-8.507158470510001180e+00,-9.245321154589999924e-02,-8.507648110389999518e-02,1.928055733439999753e-01,1.000000000000000000e+00
2.130066277000000063e+00,-4.808194939239999854e+00,-1.047117116289999927e+00,-8.466748134179999496e+00,-1.057101264599999979e-01,-8.461230248209999916e-02,1.986076980829999949e-01,1.000000000000000000e+00
2.135042073999999790e+00,-4.740238132080000000e+00,-9.815807412180000968e-01,-8.416154842020000970e+00,-9.365355223419999375e-02,-9.523443132639998476e-02,2.155607193710000202e-01,1.000000000000000000e+00
2.140036632999999799e+00,-4.777357317899999956e+00,-1.321339642559999916e+00,-8.541163031439999997e+00,-8.792755752800000824e-02,-8.056498318910000622e-02,2.063320428130000217e-01,1.000000000000000000e+00
2.145042408000000123e+00,-4.445416104580000471e+00,-1.387409759179999869e+00,-8.449837331389998596e+00,-9.718322753910001166e-02,-6.072243303060000097e-02,2.330707460640000228e-01,1.000000000000000000e+00
2.149921174999999796e+00,-4.301143242719999371e+00,-1.411530931739999994e+00,-8.714354529260001314e+00,-1.122576817870000049e-01,-1.023835688830000007e-01,2.461653947830000078e-01,1.000000000000000000e+00
2.155021899999999935e+00,-4.305349754499999904e+00,-1.335785370410000006e+00,-8.905100972999999698e+00,-1.048951223489999890e-01,-1.158072128889999913e-01,2.495840191840000000e-01,1.000000000000000000e+00
2.160003017999999830e+00,-4.427966080340000055e+00,-1.317339759270000021e+00,-8.995489684460000746e+00,-1.249298155309999936e-01,-1.299289315939999856e-01,2.876220941539999743e-01,1.000000000000000000e+00
2.165029145000000099e+00,-4.575493852340000167e+00,-1.331981301949999974e+00,-8.846362368310000335e+00,-1.227493807669999965e-01,-1.747852563859999819e-01,2.986071109769999898e-01,1.000000000000000000e+00
2.170097750000000048e+00,-4.673924708219999502e+00,-1.128585512260000145e+00,-8.885618273900000474e+00,-1.105539873239999998e-01,-2.259898334739999792e-01,3.115314841269999913e-01,1.000000000000000000e+00
2.175064523000000083e+00,-4.738497718149999649e+00,-9.570507686610000286e-01,-8.893753649560000696e+00,-1.016258001330000021e-01,-2.300726324319999905e-01,3.111958503719999825e-01,1.000000000000000000e+00
2.180013449000000048e+00,-4.705716269280000752e+00,-1.144912377679999871e+00,-8.867429706260001154e+00,-7.607127726079999930e-02,-2.824233174319999984e-01,3.165696561340000104e-01,1.000000000000000000e+00
2.185016763000000140e+00,-4.702705689280000101e+00,-1.074827180190000009e+00,-8.883091385769999349e+00,-7.062573730950000295e-02,-2.877104282380000266e-01,3.142544925209999618e-01,1.000000000000000000e+00
2.190055244999999928e+00,-4.925224697119999107e+00,-8.192308823370000326e-01,-9.135594320720000994e+00,-6.739308685059999804e-02,-3.112176060680000300e-01,3.027273118500000137e-01,1.000000000000000000e+00
2.195061536999999952e+00,-5.189872827890000373e+00,-7.294453974709999011e-01,-9.022461278019999753e+00,-5.251860246060000015e-02,-3.445367515089999833e-01,3.143040239809999914e-01,1.000000000000000000e+00
2.200028468999999820e+00,-5.172399715050000069e+00,-8.570585086890000204e-01,-9.101556442039999695e+00,-5.354500561949999959e-02,-3.737290799620000548e-01,2.767685949800000600e-01,1.000000000000000000e+00
2.205034457000000003e+00,-5.195146384380000093e+00,-7.171238952320000415e-01,-9.000810002699999757e+00,-1.525585260239999998e-02,-3.852950036530000122e-01,2.654879987240000294e-01,1.000000000000000000e+00
2.210010152999999811e+00,-5.178653514740000574e+00,-5.948937556950000261e-01,-8.904126575010000266e+00,-1.961125060919999968e-02,-3.947303593159999791e-01,2.359302639959999781e-01,1.000000000000000000e+00
2.214966018000000147e+00,-5.251453378019999896e+00,-6.906733298759999418e-01,-8.860173451519999688e+00,-1.919073285529999907e-03,-3.894574642180000379e-01,2.170436829329999984e-01,1.000000000000000000e+00
2.219970431000000133e+00,-5.179431513380000851e+00,-6.150934804959999891e-01,-8.899373827530000725e+00,1.526292879129999974e-02,-3.883869051930000094e-01,1.905829012390000132e-01,1.000000000000000000e+00
2.224967417999999864e+00,-5.161194430420000145e+00,-7.320680010600000287e-01,-8.951842850429999388e+00,1.982190459969999929e-02,-3.777329027649999893e-01,1.481748670340000129e-01,1.000000000000000000e+00
2.229985547000000068e+00,-4.995913851850000142e+00,-2.634519249939999974e-01,-9.154946086919999004e+00,3.051556274290000148e-02,-3.843951523300000450e-01,1.134800165890000045e-01,1.000000000000000000e+00
2.235049577999999926e+00,-4.953055537850000078e+00,8.307429678889999280e-02,-9.097431471060000163e+00,5.234544724230000973e-02,-4.010900855060000048e-01,7.143618166449999807e-02,1.000000000000000000e+00
2.239945050000000215e+00,-4.958204591180000342e+00,-1.269382806959999943e-01,-9.292902605240000113e+00,8.705326914789998649e-02,-4.232769012450000035e-01,5.563631653790000048e-02,1.000000000000000000e+00
2.245014198999999877e+00,-4.717278404510000023e+00,9.516525080800000702e-02,-9.525583818390000346e+00,1.298870295289999977e-01,-4.547412693500000325e-01,1.489531341939999941e-02,1.000000000000000000e+00
2.250015057999999790e+00,-4.735986027590000091e+00,3.099264019260000169e-01,-9.727323949829999705e+00,2.020454257729999981e-01,-5.107989311220000328e-01,-2.026676945390000137e-02,1.000000000000000000e+00
2.255049699999999824e+00,-4.720186108650000101e+00,1.323344041180000152e-01,-9.900646965079999973e+00,2.688176035879999981e-01,-5.719790458679999690e-01,-5.595023930069999846e-02,0.000000000000000000e+00
2.260027362000000206e+00,-4.563153133950000218e+00,1.077213929200000198e-01,-1.018785179560000032e+01,2.912929952139999834e-01,-6.478433609010000316e-01,-6.952521950010000229e-02,0.000000000000000000e+00
2.265003059000000096e+00,-4.360955614130000768e+00,-7.335516363469998802e-02,-1.055914711419999996e+01,3.572236895560000347e-01,-7.328206896780000701e-01,-9.584972262379999608e-02,0.000000000000000000e+00
2.269984253000000063e+00,-4.294832452139999646e+00,-1.160608055360000043e-02,-1.069420440390000060e+01,4.210657477379999847e-01,-8.625505566600001339e-01,-1.379167288539999980e-01,0.000000000000000000e+00
2.275019529000000151e+00,-4.197285685619999818e+00,-6.608795824379999628e-02,-1.102567507710000072e+01,4.519666135310000388e-01,-9.939306378359999972e-01,-1.627080142500000048e-01,0.000000000000000000e+00
2.280022220000000210e+00,-4.241721916459999520e+00,-9.656853260160000452e-02,-1.126528813539999874e+01,4.981310069560000442e-01,-1.157354235649999952e+00,-1.838010400529999921e-01,0.000000000000000000e+00
2.285041775999999913e+00,-4.254443450869999310e+00,-9.111028546199999301e-02,-1.134259466239999981e+01,5.316303372380000170e-01,-1.313140630720000201e+00,-2.227041274309999874e-01,0.000000000000000000e+00
2.290088245999999828e+00,-4.326458301239999749e+00,9.335795479089999127e-02,-1.106975387279999978e+01,5.381296873090000155e-01,-1.490759849550000071e+00,-2.398942410949999882e-01,0.000000000000000000e+00
2.295034314000000020e+00,-4.264358695680000366e+00,-2.756860229439999643e-01,-1.108971997150000099e+01,5.847282409669999348e-01,-1.675868034359999870e+00,-2.665258347989999943e-01,0.000000000000000000e+00
2.300050378999999978e+00,-4.431763134539999704e+00,-2.783462916610000004e-01,-1.091661381390000152e+01,6.251798272130000278e-01,-1.830899477009999776e+00,-2.910300195219999719e-01,0.000000000000000000e+00
2.304973856999999793e+00,-4.636259871210000050e+00,-1.116664042190000095e-01,-1.083616840430000039e+01,6.497489809990000253e-01,-1.992057323459999862e+00,-3.013736605640000010e-01,0.000000000000000000e+00
2.309983283000000220e+00,-4.608764253780000431e+00,-2.794393658610000355e-03,-1.077080132140000046e+01,6.937368512149999500e-01,-2.147751092909999659e+00,-3.327793776990000119e-01,0.000000000000000000e+00
2.314971231999999990e+00,-4.493465265209999338e+00,-7.852702701439999433e-02,-1.069375782919999907e+01,7.350467443470000140e-01,-2.295921564099999923e+00,-3.813608288759999798e-01,0.000000000000000000e+00
2.319997000999999948e+00,-4.415036748399999489e+00,-1.102531764200000153e-01,-1.061035006270000025e+01,8.092455863950001049e-01,-2.441665887829999715e+00,-4.203274548050000003e-01,0.000000000000000000e+00
2.325023042999999845e+00,-4.431156693080000153e+00,-3.664502897129999770e-01,-1.080731757289999884e+01,8.654655218119999827e-01,-2.617061376570000153e+00,-4.552041292189999422e-01,0.000000000000000000e+00
2.330009829000000199e+00,-4.292207656590000475e+00,-3.974938819479999497e-01,-1.078349129160000075e+01,9.236879348750000052e-01,-2.774586439129999693e+00,-5.117586255070000201e-01,0.000000000000000000e+00
2.335032553000000011e+00,-4.109124002569999767e+00,-6.394793684070000372e-01,-1.088296171970000081e+01,1.006854295729999960e+00,-2.929951190950000228e+00,-5.373277068139999946e-01,0.000000000000000000e+00
2.340032760999999795e+00,-4.185597585919999197e+00,-6.141880560890000673e-01,-1.073240290940000108e+01,1.078024268150000076e+00,-3.096325159070000055e+00,-5.490244030950000020e-01,0.000000000000000000e+00
2.345032295999999850e+00,-4.124591620809999526e+00,-7.668647352830000319e-01,-1.050924764950000068e+01,1.126957535739999905e+00,-3.251821756359999593e+00,-5.910607576370000560e-01,0.000000000000000000e+00
2.350002214999999950e+00,-3.980925200419999754e+00,-1.055415792760000082e+00,-1.050040500230000085e+01,1.168299198149999940e+00,-3.444022178650000043e+00,-5.906084179880000118e-01,0.000000000000000000e+00
2.354953303999999914e+00,-3.916603534890000127e+00,-1.522858532459999914e+00,-1.059314758340000040e+01,1.205406188960000069e+00,-3.586937427519999666e+00,-5.662048459049999760e-01,0.000000000000000000e+00
2.359932069000000077e+00,-3.708860071380000178e+00,-1.485694046189999895e+00,-1.035479592340000110e+01,1.207915544510000050e+00,-3.754993438719999688e+00,-5.596547722820000015e-01,0.000000000000000000e+00
2.364920446999999815e+00,-3.575941254969999594e+00,-1.476843946390000051e+00,-1.023720414779999999e+01,1.209878921510000094e+00,-3.925772428510000189e+00,-5.450768470760000151e-01,0.000000000000000000e+00
2.369965628000000102e+00,-3.437287402039999940e+00,-1.827730683209999762e+00,-1.031297688939999979e+01,1.217323780060000082e+00,-4.079104423519999578e+00,-5.205681324009999722e-01,0.000000000000000000e+00
2.374985579000000069e+00,-3.284183291219999745e+00,-2.020534351740000290e+00,-9.986868619980000972e+00,1.236276745799999910e+00,-4.257513999940000460e+00,-4.889371991160000319e-01,0.000000000000000000e+00
2.379979590000000034e+00,-3.502319553919999606e+00,-2.220571917040000454e+00,-1.009520975220000061e+01,1.270741343499999898e+00,-4.472523212430000505e+00,-4.426984190939999841e-01,0.000000000000000000e+00
2.384969780000000039e+00,-3.494318033780000388e+00,-2.563145729669999984e+00,-1.051686864590000070e+01,1.306199789050000115e+00,-4.679543495179999901e+00,-4.035061895849999525e-01,0.000000000000000000e+00
2.389898786999999913e+00,-3.151708126920000463e+00,-2.676661926480000009e+00,-1.015983566140000072e+01,1.347131609920000139e+00,-4.886014461519999408e+00,-3.563900291920000241e-01,0.000000000000000000e+00
2.394974062999999820e+00,-3.387415409890000006e+00,-2.616109258099999835e+00,-1.054469071880000008e+01,1.337736010550000021e+00,-5.146574020390000115e+00,-2.979602515700000009e-01,0.000000000000000000e+00
2.400026469999999801e+00,-3.210147164150000343e+00,-2.397323591570000190e+00,-1.046648870419999966e+01,1.331645965579999924e+00,-5.442176342009999779e+00,-2.094650715590000156e-01,0.000000000000000000e+00
2.405048802000000041e+00,-3.353751625220000143e+00,-2.478169106390000209e+00,-1.069981464500000001e+01,1.324003338809999875e+00,-5.732025146479999833e+00,-1.569851189850000051e-01,0.000000000000000000e+00
2.409982027999999943e+00,-5.592993609809999711e+00,-1.771183743340000172e+00,-1.166184298289999965e+01,1.312979340550000096e+00,-6.062754154210000301e+00,-2.609408833090000324e-02,0.000000000000000000e+00
2.415039260999999993e+00,-5.703639511880000512e+00,-2.213319900090000125e+00,-1.230093583619999897e+01,1.320604324340000080e+00,-6.412124156950000931e+00,2.157297544179999707e-02,0.000000000000000000e+00
2.420047085000000209e+00,-7.437116332630000493e+00,-3.500973107749999702e+00,-1.278403967089999860e+01,1.372551560399999815e+00,-6.812282085419999689e+00,1.360902190209999918e-01,0.000000000000000000e+00
2.424953610000000204e+00,-9.909906960860000780e+00,-4.925258599390000214e+00,-1.528481370009999907e+01,1.436478257179999884e+00,-7.195817947389999247e+00,2.169694602490000179e-01,0.000000000000000000e+00
2.429926877999999846e+00,-1.411674490319999897e+01,-5.184862306259999443e+00,-1.682177426149999988e+01,1.447637438769999951e+00,-7.522262573239999028e+00,2.740378975869999789e-01,0.000000000000000000e+00
2.434967175000000150e+00,-1.578347049319999940e+01,-5.976008007769999075e+00,-1.689052806429999976e+01,1.443104624749999898e+00,-7.723696708680000356e+00,2.867505252360000312e-01,0.000000000000000000e+00
2.440037837999999848e+00,-1.688805904380000200e+01,-6.024812078430000106e+00,-1.532495048010000005e+01,1.439385890960000136e+00,-7.804891109470000643e+00,2.638706564900000218e-01,0.000000000000000000e+00
2.445022788999999808e+00,-1.838638855349999801e+01,-6.453433212309999334e+00,-1.400947578410000105e+01,1.428446054460000170e+00,-7.736703395840000219e+00,3.114943802360000125e-01,0.000000000000000000e+00
2.450165602999999859e+00,-2.085355023600000024e+01,-6.760448074169999266e+00,-1.457746038049999981e+01,1.291798114779999951e+00,-7.617760658260000817e+00,4.257248938079999934e-01,0.000000000000000000e+00
2.455078074000000221e+00,-2.212813528770000104e+01,-7.695429999689999967e+00,-1.474974236220000101e+01,1.060249567029999840e+00,-7.377263545990000004e+00,6.425412893299999872e-01,0.000000000000000000e+00
2.459915651000000203e+00,-2.350936285119999880e+01,-7.743980972370000160e+00,-1.435453542219999967e+01,7.452738285059999912e-01,-7.060646533969999972e+00,8.260465860369999858e-01,0.000000000000000000e+00
2.465018374000000012e+00,-2.397564765300000289e+01,-1.096863976920000106e+01,-1.536488618469999956e+01,4.529843330380000088e-01,-6.680550098420000360e+00,1.012737154960000163e+00,0.000000000000000000e+00
2.469950095999999817e+00,-2.689612008940000010e+01,-1.349881408039999897e+01,-1.744528609930000229e+01,1.489982455969999786e-01,-6.346914768220000447e+00,1.160374283789999961e+00,0.000000000000000000e+00
2.475003180999999941e+00,-3.265730344320000000e+01,-1.507877090299999878e+01,-1.910463853019999902e+01,-2.167580723759999772e-01,-6.105273723599999869e+00,1.062184929849999904e+00,0.000000000000000000e+00
2.480005134999999861e+00,-2.841833667070000047e+01,-1.406017604380000030e+01,-1.741473430919999998e+01,-5.744465589520000304e-01,-5.054589271549999374e+00,1.113854646679999894e+00,0.000000000000000000e+00
2.485065628000000082e+00,-1.834660248660000192e+01,-1.317045540169999995e+01,-1.977988640050000058e+01,-8.233242630959999309e-01,-4.359650611880000248e+00,1.383554339410000056e+00,0.000000000000000000e+00
2.490069087000000181e+00,-1.282848087019999994e+01,-1.207202420469999993e+01,-2.009999163009999990e+01,-1.054087281229999951e+00,-3.697083234790000450e+00,1.730639576909999811e+00,0.000000000000000000e+00
2.494971615999999948e+00,-9.333748410369999249e+00,-1.167953412239999977e+01,-2.052478473009999860e+01,-1.431500554079999876e+00,-2.985313177109999661e+00,1.959728598590000370e+00,0.000000000000000000e+00
2.499935295999999862e+00,-6.332376390870000371e+00,-9.876274740369998639e+00,-1.990078890810000090e+01,-1.915448904040000233e+00,-2.638327598570000099e+00,2.094378232959999586e+00,0.000000000000000000e+00
2.505023471999999973e+00,4.913994862570000066e+00,-1.356465930220000082e+01,-1.622459747290000109e+01,-2.183013677599999980e+00,-2.229507684709999715e+00,2.361584186550000020e+00,0.000000000000000000e+00
2.510054135999999936e+00,-1.285620123630000045e+01,-1.120181022720000108e+01,-1.589253643260000004e+01,-2.269675493239999842e+00,-3.295774221420000316e+00,2.406058311459999821e+00,0.000000000000000000e+00
2.514978601000000147e+00,-2.357440377090000183e+01,-1.644805200800000122e+01,-1.878554335440000145e+01,-2.414076328279999739e+00,-3.779281139369999654e+00,2.626283407209999865e+00,0.000000000000000000e+00
2.520022357999999851e+00,-2.285106260860000305e+01,-1.347377199359999977e+01,-2.288135019479999954e+01,-2.389753103259999900e+00,-3.382418870930000043e+00,2.737419843669999686e+00,0.000000000000000000e+00
2.525030047000000000e+00,-1.048758877539999901e+01,-1.001804701760000071e+01,-2.039159089609999853e+01,-2.359135866169999929e+00,-1.429681658739999861e+00,2.706668138500000431e+00,0.000000000000000000e+00
2.530052154999999914e+00,-8.338121169749999950e+00,-8.865544038639999513e+00,-2.092771437329999884e+01,-2.685262203220000199e+00,3.701758086680000392e-01,3.111377000809999682e+00,0.000000000000000000e+00
2.535058156999999923e+00,-7.349130590669998853e+00,-1.066646182600000081e+01,-1.828291999580000038e+01,-2.864601373669999784e+00,1.632483839989999908e+00,3.410462379459999749e+00,0.000000000000000000e+00
2.540035995000000213e+00,-4.061839104299999725e+00,-1.411188752630000032e+01,-1.797165741330000088e+01,-3.097545385360000125e+00,2.872802495959999369e+00,3.889353036880000225e+00,0.000000000000000000e+00
2.544978374999999904e+00,7.263645287210000745e-02,-1.016989995930000035e+01,-1.856649377629999975e+01,-3.135928392409999876e+00,3.655684709550000022e+00,4.241796016690000393e+00,0.000000000000000000e+00
2.550027575000000102e+00,5.239784567530000103e+00,-9.961078345169999793e+00,-1.917684218109999961e+01,-3.296326160430000041e+00,3.598762750630000173e+00,4.329062461850000432e+00,0.000000000000000000e+00
2.555058728000000112e+00,7.108310494720000428e+00,-8.644137083700000446e+00,-1.885906685579999831e+01,-3.333731651309999933e+00,3.199629545209999648e+00,4.324234485629999902e+00,0.000000000000000000e+00
2.559959643000000007e+00,7.437038591219999439e+00,-1.106256191549999990e+01,-1.817776450779999919e+01,-3.247560262679999976e+00,2.628923416140000135e+00,4.170979022980000117e+00,0.000000000000000000e+00
2.564923247999999933e+00,5.747777928810000603e+00,-1.095585978259999926e+01,-1.649163746729999858e+01,-3.070402860640000231e+00,2.295337915419999764e+00,4.126234531399999739e+00,0.000000000000000000e+00
2.569890188000000020e+00,4.524387934479999984e+00,-1.155968959940000040e+01,-1.528163740809999993e+01,-2.971675157550000002e+00,2.152986764910000073e+00,3.934839725490000273e+00,0.000000000000000000e+00
2.574951099000000188e+00,4.102167607560000206e+00,-1.265873103720000081e+01,-1.455445009180000149e+01,-3.032603979110000125e+00,2.310535907749999840e+00,3.658846855159999745e+00,0.000000000000000000e+00
2.580009615999999895e+00,3.749683080159999626e+00,-1.407675892980000043e+01,-1.379671332339999879e+01,-3.217507123949999936e+00,2.801703214649999829e+00,3.331989765170000339e+00,0.000000000000000000e+00
2.584958799999999890e+00,3.625050446059999931e+00,-1.554644335979999958e+01,-1.360144092660000048e+01,-3.516026973719999837e+00,3.453963041309999760e+00,3.069064378740000265e+00,0.000000000000000000e+00
2.589984727000000042e+00,3.095919604200000119e+00,-1.636616166030000130e+01,-1.341196114180000087e+01,-3.868829727169999622e+00,4.084358215330000874e+00,2.826812982559999909e+00,0.000000000000000000e+00
2.594971214000000082e+00,2.832300816480000094e+00,-1.646827412729999907e+01,-1.265799453960000065e+01,-4.201844215390000414e+00,4.584917545319999732e+00,2.605313301090000255e+00,0.000000000000000000e+00
2.599924168999999896e+00,3.265333337059999508e+00,-1.609095472609999788e+01,-1.138257829770000029e+01,-4.453356742860000494e+00,4.927627563480000639e+00,2.339342832569999864e+00,0.000000000000000000e+00
2.604970091000000210e+00,3.933864466290000195e+00,-1.549495165749999970e+01,-1.004867947169999987e+01,-4.526401042939999897e+00,5.206132888790000024e+00,2.008363962170000239e+00,0.000000000000000000e+00
2.609930102999999946e+00,4.392425395890000139e+00,-1.501554667729999970e+01,-8.902697418989999889e+00,-4.432853221890000306e+00,5.424294471740000567e+00,1.665556669239999898e+00,0.000000000000000000e+00
2.614973502999999866e+00,4.666455102990000547e+00,-1.456826351309999978e+01,-7.955069362389999732e+00,-4.245899200440000243e+00,5.627604007719999579e+00,1.335394382479999864e+00,0.000000000000000000e+00
2.619994174999999981e+00,4.722819672029999971e+00,-1.429045428739999934e+01,-6.892229703239999061e+00,-4.034301757809999778e+00,5.796015739440000480e+00,1.014587879180000041e+00,0.000000000000000000e+00
2.624984063999999950e+00,4.574928911939999843e+00,-1.415064834180000020e+01,-5.906683711649999502e+00,-3.771654129030000746e+00,5.911550998689999226e+00,7.172904014589999155e-01,0.000000000000000000e+00
2.630023226000000047e+00,4.419921013319999759e+00,-1.421098386029999894e+01,-4.795004326009999929e+00,-3.451662778849999835e+00,5.968029022219999646e+00,4.787853360179999962e-01,0.000000000000000000e+00
2.635027742000000117e+00,4.054196188329999728e+00,-1.454454010759999960e+01,-4.188499737099999898e+00,-3.080172061920000370e+00,5.972817897799999720e+00,2.419167011980000170e-01,0.000000000000000000e+00
2.640048210999999867e+00,2.994906915140000070e+00,-1.452452724719999999e+01,-3.867320740809999879e+00,-2.673054695129999825e+00,5.970399856569999386e+00,-3.362362086770000202e-02,0.000000000000000000e+00
2.645028078000000171e+00,1.882067838070000221e+00,-1.471100609660000025e+01,-3.667226915269999665e+00,-2.235410928729999913e+00,5.958333969119999018e+00,-3.661631345750000488e-01,0.000000000000000000e+00
2.650013801000000058e+00,6.226520791820000511e-01,-1.489936944459999957e+01,-3.564907235259999752e+00,-1.840535521509999883e+00,5.981440544129999815e+00,-7.009009718889999130e-01,0.000000000000000000e+00
2.655016398999999971e+00,-4.482077317499999491e-01,-1.579007675959999979e+01,-3.328341581890000178e+00,-1.538306593890000018e+00,6.063565254210000255e+00,-1.054854512209999928e+00,0.000000000000000000e+00
2.660009698000000089e+00,-1.567386533240000102e+00,-1.707010604829999778e+01,-3.239222159720000160e+00,-1.320138931270000038e+00,6.205264091490000133e+00,-1.361261844639999774e+00,0.000000000000000000e+00
2.665033241999999802e+00,-2.309673803559999961e+00,-1.825507921819999879e+01,-3.166122144459999621e+00,-1.221023201939999803e+00,6.405613899229999575e+00,-1.647917270660000044e+00,0.000000000000000000e+00
2.670057869999999944e+00,-3.122723439979999682e+00,-1.903419429010000030e+01,-3.207606539750000429e+00,-1.199326395990000016e+00,6.574980258940000155e+00,-1.890980601309999898e+00,0.000000000000000000e+00
2.675012624999999922e+00,-3.674341131190000276e+00,-1.944948540229999878e+01,-3.037448126010000138e+00,-1.307945132260000198e+00,6.741121292109999885e+00,-2.115329027180000043e+00,0.000000000000000000e+00
2.680062281000000102e+00,-4.021188237219999628e+00,-1.970146226760000019e+01,-2.758669763079999893e+00,-1.424159407619999929e+00,6.824847698210000146e+00,-2.347293376920000174e+00,0.000000000000000000e+00
2.685022485000000181e+00,-4.498829422600000072e+00,-1.971994251159999934e+01,-2.324755198960000158e+00,-1.569723367689999982e+00,6.858315944670000164e+00,-2.554581165309999680e+00,0.000000000000000000e+00
2.690032713999999991e+00,-4.795785831779999953e+00,-1.921009796950000137e+01,-2.103712693419999891e+00,-1.612793087960000094e+00,6.883920192719999775e+00,-2.778654813770000231e+00,0.000000000000000000e+00
2.695043189000000172e+00,-4.992552850980000123e+00,-1.834898499779999881e+01,-2.107490750659999801e+00,-1.571603417400000202e+00,6.880358695980000938e+00,-3.060380697250000281e+00,0.000000000000000000e+00
2.699977053000000016e+00,-5.442610740640000166e+00,-1.712174621910000027e+01,-2.472320672629999994e+00,-1.470278024670000017e+00,6.862967014309999669e+00,-3.342939376829999532e+00,0.000000000000000000e+00
2.704961781000000176e+00,-6.232125626089999315e+00,-1.598081794259999988e+01,-2.672975639179999696e+00,-1.258757591249999974e+00,6.855768680569998885e+00,-3.657242774959999831e+00,0.000000000000000000e+00
2.709969241000000029e+00,-7.249422262200000411e+00,-1.551280646309999867e+01,-2.625763221629999755e+00,-9.469880461690000084e-01,6.836347579959999088e+00,-3.961112022400000043e+00,0.000000000000000000e+00
2.714965866000000005e+00,-8.339025425110000000e+00,-1.548606107950000066e+01,-2.470548694520000144e+00,-5.400047302250000625e-01,6.860122203830000487e+00,-4.250218391419999797e+00,0.000000000000000000e+00
2.720025284000000099e+00,-9.025064738510000240e+00,-1.555006505739999945e+01,-2.626500303729999874e+00,-1.220400780440000083e-01,6.851552009580000657e+00,-4.555947303770000012e+00,0.000000000000000000e+00
2.725037069999999950e+00,-9.837370132430001135e+00,-1.547969329809999905e+01,-2.950885110320000226e+00,2.243230640889999905e-01,6.813566207890000115e+00,-4.851893424990000092e+00,0.000000000000000000e+00
2.729973858000000142e+00,-1.103053362310000018e+01,-1.569847633430000045e+01,-3.465901209850000164e+00,5.246915221210000091e-01,6.718173980709999604e+00,-5.165769100190000351e+00,0.000000000000000000e+00
2.734984681999999889e+00,-1.225651217259999903e+01,-1.604639311540000080e+01,-3.764249365650000012e+00,7.276059389110000053e-01,6.594594478609999477e+00,-5.461959362030000875e+00,0.000000000000000000e+00
2.740062442999999792e+00,-1.339407594109999877e+01,-1.643427248900000137e+01,-3.958387497649999975e+00,9.378780126569999931e-01,6.405520915989999509e+00,-5.730431556699999263e+00,0.000000000000000000e+00
2.745022195999999859e+00,-1.475760885779999931e+01,-1.618116632750000150e+01,-4.289301998280000028e+00,1.155255317690000005e+00,6.204850196839999832e+00,-6.005916595460000451e+00,0.000000000000000000e+00
2.750029281000000214e+00,-1.677911351590000066e+01,-1.523726518239999983e+01,-4.910004916160000121e+00,1.337145328520000120e+00,6.015215873719999884e+00,-6.271232604980000680e+00,0.000000000000000000e+00
2.754989038999999806e+00,-1.924793640949999940e+01,-1.536023105239999964e+01,-5.738080710660000250e+00,1.521988868709999831e+00,5.839500904080000332e+00,-6.560322284700000672e+00,0.000000000000000000e+00
2.760036616999999914e+00,-2.223743620489999628e+01,-1.592605993200000114e+01,-6.386303211360000454e+00,1.660729408260000151e+00,5.707498550419999539e+00,-6.837126731869998864e+00,0.000000000000000000e+00
2.765034459999999861e+00,-2.407992168199999838e+01,-1.680495873579999966e+01,-6.857381092699999847e+00,1.681676864620000211e+00,5.616449356080000399e+00,-7.095784187319999603e+00,0.000000000000000000e+00
2.770029195999999860e+00,-2.489881113039999860e+01,-1.878796327510000097e+01,-7.824629795580000824e+00,1.493653774260000011e+00,5.547595500949999980e+00,-7.253110408780000462e+00,0.000000000000000000e+00
2.775003770000000092e+00,-2.519056704840000194e+01,-1.988662711179999931e+01,-8.817063793110001768e+00,1.108683109279999801e+00,5.465949535369999168e+00,-7.362718105319999040e+00,0.000000000000000000e+00
2.779993934000000166e+00,-2.572402276769999929e+01,-1.956227825330000059e+01,-1.004342929609999935e+01,5.349755883219999841e-01,5.317829608919999451e+00,-7.330750942230000788e+00,0.000000000000000000e+00
2.784958732999999853e+00,-2.644091548449999962e+01,-1.859471215499999985e+01,-1.056214220429999884e+01,-1.228190213440000095e-01,5.115660667420000252e+00,-7.181367874149999331e+00,0.000000000000000000e+00
2.789899430999999819e+00,-2.757134340980000076e+01,-1.692581798880000221e+01,-1.092252566829999871e+01,-5.741648674009999231e-01,4.856060028079999924e+00,-6.953796863560000929e+00,0.000000000000000000e+00
2.795066375999999853e+00,-2.916825019810000086e+01,-1.436202080950000060e+01,-1.078564583930000076e+01,-7.835820317270000279e-01,4.581623554230000117e+00,-6.700940132139999506e+00,0.000000000000000000e+00
2.800083134999999945e+00,-3.089047146540000099e+01,-1.268047525150000077e+01,-1.075756540769999958e+01,-6.887714266779999539e-01,4.332071304319999427e+00,-6.364590644839999811e+00,0.000000000000000000e+00
2.805034122999999990e+00,-3.266473856169999834e+01,-1.163328558140000091e+01,-1.046694696940000036e+01,-3.921715915199999736e-01,4.119639396670000231e+00,-6.040305137629999876e+00,0.000000000000000000e+00
2.809882737000000130e+00,-3.462376835110000428e+01,-1.099942887519999957e+01,-9.971625458150001009e+00,-1.067854836579999918e-02,3.964748144150000098e+00,-5.635539054869999731e+00,0.000000000000000000e+00
2.815003883000000151e+00,-3.576833469190000159e+01,-1.067955511629999954e+01,-9.041441872820000114e+00,2.982472181320000026e-01,3.826452016830000247e+00,-5.204152107240000547e+00,0.000000000000000000e+00
2.820035650999999977e+00,-3.608839315969999717e+01,-1.114584693239999957e+01,-7.566040818710000337e+00,4.504192471500000350e-01,3.697535037990000273e+00,-4.677395820620000144e+00,0.000000000000000000e+00
2.824998276000000086e+00,-3.603465689329999577e+01,-1.185535246160000078e+01,-5.736433527980000058e+00,4.184458851810000102e-01,3.506495237350000238e+00,-4.073433876040000179e+00,0.000000000000000000e+00
2.830033359000000193e+00,-3.549293603449999779e+01,-1.163485677630000126e+01,-4.172037554860000164e+00,2.318325638769999919e-01,3.235218286509999430e+00,-3.441372632980000290e+00,0.000000000000000000e+00
2.835130989000000046e+00,-3.460995492979999710e+01,-1.057904540830000073e+01,-2.711372297590000091e+00,4.017787985500000277e-03,2.924629449840000284e+00,-2.787615776059999995e+00,0.000000000000000000e+00
2.839992971000000033e+00,-3.392060254639999783e+01,-9.023528030459999627e+00,-1.051043715150000057e+00,-1.953432261939999914e-01,2.558260440830000260e+00,-2.120913505549999911e+00,0.000000000000000000e+00
2.844963481000000183e+00,-3.305365370810000059e+01,-7.503805019550000566e+00,4.948773841949999919e-01,-2.311092019079999949e-01,2.221649885180000172e+00,-1.478444576260000254e+00,0.000000000000000000e+00
2.849904686999999992e+00,-3.233518745840000008e+01,-6.062998893480000540e+00,1.835235944270000141e+00,-3.734622150659999695e-02,1.940442800520000066e+00,-8.015279769900000018e-01,0.000000000000000000e+00
2.855003293999999858e+00,-3.158592158119999738e+01,-3.859001240750000061e+00,3.024519378599999975e+00,3.408056497570000065e-01,1.737909078600000212e+00,-2.223516553640000060e-01,0.000000000000000000e+00
2.860012806999999935e+00,-3.056125003239999671e+01,-1.535670960020000031e+00,3.675903558199999921e+00,7.976573705670000347e-01,1.544618368149999865e+00,2.504554688930000217e-01,0.000000000000000000e+00
2.865027699000000094e+00,-2.859750665840000039e+01,5.729735637770000389e-01,3.756235278280000145e+00,1.217237830159999978e+00,1.310275316240000043e+00,5.327453017230000532e-01,0.000000000000000000e+00
2.869998101000000190e+00,-2.602352944590000305e+01,1.560993763460000183e+00,3.365208838780000100e+00,1.417148590090000049e+00,9.829884171489999822e-01,5.984432101250000136e-01,0.000000000000000000e+00
2.875032914999999800e+00,-2.365359713460000179e+01,5.534064012589999804e-01,2.660766145949999828e+00,1.316925883289999932e+00,5.360886454580000571e-01,4.601573944089999979e-01,0.000000000000000000e+00
2.880004748999999808e+00,-2.168674410409999709e+01,-1.333205875310000010e+00,1.846168111040000115e+00,8.856772184370000911e-01,8.677955716850000584e-03,1.927025318149999944e-01,0.000000000000000000e+00
2.885029659999999829e+00,-1.936800772710000018e+01,-2.058457401290000099e+00,1.281331165029999886e+00,1.095197498800000030e-01,-5.811628103260000344e-01,-1.339681744579999945e-01,0.000000000000000000e+00
2.890029927000000054e+00,1.031229650590000091e+01,-8.011465203350001119e+00,-5.086140066219999589e+00,-8.305970430369999935e-01,-8.372351527210000199e-01,-2.663215398789999799e-01,0.000000000000000000e+00
2.895020369000000038e+00,-3.045100452780000211e+01,-1.348856595039999995e+00,-1.322000298420000108e+00,-3.008732318879999923e+00,-3.490488529209999857e+00,-1.345469832420000067e+00,0.000000000000000000e+00
2.900064974999999823e+00,-8.390561551080001124e+00,4.376502727350000121e+00,5.128888490099999586e+00,-4.249538421630000506e+00,-4.240760326390000223e+00,-1.330554485319999980e+00,0.000000000000000000e+00
2.905005506000000182e+00,1.307191436349999947e+01,8.038187206059999923e+00,-1.630316306010000105e+01,-4.642225742339999961e+00,-4.356466770169999947e+00,-1.658364295960000234e+00,0.000000000000000000e+00
2.909978945000000206e+00,8.724735053499999893e+00,1.122260517790000023e+01,-1.291428283839999835e+01,-3.727314233780000041e+00,-6.285485744480000747e+00,-1.607852339739999969e+00,0.000000000000000000e+00
2.914998288000000048e+00,1.216020166989999929e+01,2.751311100099999862e+01,-4.451201526890000082e+01,-2.323881149290000003e+00,-6.591823577879999618e+00,-2.120517492289999861e+00,0.000000000000000000e+00
2.920000508000000217e+00,-2.966628155280000101e+01,3.278561067420000086e+01,-2.310375609769999983e+01,-1.321395158770000133e+00,-7.685451030730000355e+00,-2.555441617970000134e+00,0.000000000000000000e+00
