t,ax,ay,az,wx,wy,wz,zv
4.976569000000000131e-03,-2.582195005800000054e+00,3.100008919339999891e-01,-9.471189964900000646e+00,-5.463048815729999903e-03,5.444069392980000486e-04,4.430031403899999456e-03,1.000000000000000000e+00
1.003260100000000037e-02,-2.563272278659999959e+00,2.778006587440000064e-01,-9.480520103299999946e+00,1.029802951959999996e-03,-5.780621431769999421e-04,2.094604307789999995e-03,1.000000000000000000e+00
1.500545499999999914e-02,-2.576173845809999641e+00,2.803834417789999867e-01,-9.458929618260000893e+00,1.527745509519999817e-03,7.429718971250000596e-05,3.949011676010000249e-03,1.000000000000000000e+00
2.020199699999999932e-02,-2.584506789870000265e+00,2.875403460619999629e-01,-9.461056108899999373e+00,8.100724779069999604e-03,-7.205267902460000184e-04,4.617501981560000364e-03,1.000000000000000000e+00
2.522679599999999925e-02,-2.530531746309999885e+00,2.874095958219999858e-01,-9.459821598670000498e+00,9.554234333340001425e-03,-7.987974211569999483e-03,-2.102337777609999958e-03,1.000000000000000000e+00
3.005446800000000085e-02,-2.563293321450000217e+00,2.708432042889999947e-01,-9.456820078759999859e+00,6.311499513689999320e-03,-7.286916952579999308e-03,-7.906609680499999656e-04,1.000000000000000000e+00
3.516394400000000253e-02,-2.584134741690000237e+00,3.028910051300000017e-01,-9.476505606960001771e+00,7.451950106770000547e-03,3.735404927280000509e-03,-3.257398726420000432e-03,1.000000000000000000e+00
4.029756300000000152e-02,-2.589753166090000391e+00,2.672968917179999737e-01,-9.453283721330000944e+00,-6.737013813109999499e-03,-1.463846070690000278e-03,1.274195034059999974e-02,1.000000000000000000e+00
4.515013200000000254e-02,-2.506853056820000258e+00,2.588772374889999894e-01,-9.460620640089999256e+00,2.505374839530000088e-03,-1.156729459759999953e-02,-9.335977025330000761e-03,1.000000000000000000e+00
5.015958300000000064e-02,-2.599914202359999926e+00,2.898480019499999893e-01,-9.463843109269999943e+00,8.575271815059999289e-03,-5.666446872060000930e-03,5.913408473129999794e-03,1.000000000000000000e+00
5.517487399999999875e-02,-2.523595809570000181e+00,3.100031569570000367e-01,-9.464487252389998773e+00,1.801965758200000170e-02,-4.068313166500000036e-03,-9.043382480740000742e-03,1.000000000000000000e+00
6.017646299999999948e-02,-2.596920281240000072e+00,2.875598179480000072e-01,-9.455336562210000295e+00,-1.501895021649999934e-04,4.755798261609999605e-03,2.232834929600000223e-03,1.000000000000000000e+00
6.525404299999999769e-02,-2.537009125640000029e+00,2.792089729050000191e-01,-9.453235206010001335e+00,-4.093804862349999935e-03,-1.145563274619999967e-02,-1.100224908439999955e-02,1.000000000000000000e+00
7.027016899999999344e-02,-2.614879716299999934e+00,2.410882453579999973e-01,-9.458977549060000101e+00,4.538608249279999819e-03,2.928112633530000671e-03,1.636532880370000081e-02,1.000000000000000000e+00
7.523367699999999880e-02,-2.543421038500000009e+00,3.115479021809999804e-01,-9.437278927470000411e+00,2.034101402390000191e-03,6.162290461359999638e-03,-5.512843839819999044e-03,1.000000000000000000e+00
8.008764000000000161e-02,-2.620190974449999821e+00,2.913148048329999851e-01,-9.441685637999999159e+00,1.998003944750000038e-02,1.491125300529999934e-02,7.921191863720001072e-03,1.000000000000000000e+00
8.507653900000000657e-02,-2.549223295040000004e+00,3.147194083559999855e-01,-9.469294360410000166e+00,3.527053631840000071e-03,5.887145176529999697e-03,6.063683889810000255e-03,1.000000000000000000e+00
9.025206299999999349e-02,-2.593244515339999889e+00,3.248029224100000278e-01,-9.411558795279999501e+00,5.462823435659999727e-03,9.379253722729999701e-03,1.705694943670000088e-02,1.000000000000000000e+00
9.507600300000000615e-02,-2.537762866610000057e+00,2.339772443089999931e-01,-9.460959078260000155e+00,-3.856826224360000244e-04,5.304006859659999434e-03,-1.057618297639999856e-03,1.000000000000000000e+00
1.001486469999999934e-01,-2.608778769079999726e+00,2.767236406290000117e-01,-9.468513439169999657e+00,1.249251421539999962e-02,1.347458921369999773e-03,1.859929226339999964e-02,1.000000000000000000e+00
1.051460709999999937e-01,-2.507707043309999495e+00,3.221101396620000279e-01,-9.447356084850000002e+00,-6.509282626210000436e-03,1.485896296799999947e-02,-1.348374970260000048e-02,1.000000000000000000e+00
1.099831260000000005e-01,-2.565830730970000140e+00,2.741442733939999932e-01,-9.486735324560001459e+00,-1.120752748100000036e-02,-6.551065482199999561e-03,-9.672974236310000196e-03,1.000000000000000000e+00
1.150010169999999970e-01,-2.610069101150000126e+00,2.590641383630000183e-01,-9.451399807279999621e+00,6.782198324799999962e-03,-4.345676396039999979e-03,5.637888796629999567e-03,1.000000000000000000e+00
1.199434939999999977e-01,-2.559948102670000392e+00,2.769059018610000034e-01,-9.445956739439999694e+00,1.767876558009999792e-03,-1.138855982569999918e-02,2.259204396979999988e-03,1.000000000000000000e+00
1.249760540000000031e-01,-2.559851656559999800e+00,2.983352597879999624e-01,-9.443734971739999651e+00,1.227299217130000016e-02,-3.150360193100000018e-03,-9.894402464850000131e-04,1.000000000000000000e+00
1.300665480000000040e-01,-2.566415252859999718e+00,3.172803814180000237e-01,-9.451212175750001165e+00,9.981570765379999335e-03,2.224253024909999665e-03,2.304451307280000385e-03,1.000000000000000000e+00
1.349800989999999923e-01,-2.549221833740000331e+00,3.354442530099999709e-01,-9.415463401500000273e+00,2.944316947830000024e-03,2.961485180999999956e-03,-4.798330832270000269e-03,1.000000000000000000e+00
1.399788499999999880e-01,-2.614315652680000213e+00,2.470271156219999986e-01,-9.471340187030000024e+00,1.668566279109999842e-02,-3.652641549709999616e-03,8.280515670779999698e-03,1.000000000000000000e+00
1.450749749999999949e-01,-2.562444595659999713e+00,2.587007484109999922e-01,-9.490933360770000604e+00,7.605012971909999933e-03,1.073848642410000012e-02,2.302298555150000120e-03,1.000000000000000000e+00
1.501410300000000086e-01,-2.539923259520000087e+00,2.886115920230000187e-01,-9.456392208739998750e+00,-2.367255091670000117e-02,9.527343325319998987e-03,2.825265051800000468e-03,1.000000000000000000e+00
1.551042250000000122e-01,-2.561705175470000206e+00,2.709785211059999588e-01,-9.449105558860001253e+00,-5.459101870659999883e-03,-8.003526367249999898e-03,-6.421224679800000695e-03,1.000000000000000000e+00
1.599873870000000087e-01,-2.563757139570000287e+00,2.529946091910000305e-01,-9.460086387080000492e+00,3.294188296420000068e-03,-3.120514564219999728e-03,-8.074849843979998998e-03,1.000000000000000000e+00
1.649482160000000086e-01,-2.606142575349999824e+00,3.021624533939999968e-01,-9.421735321379999917e+00,-6.255371961739999292e-03,-1.110037788750000125e-03,2.580566098909999832e-03,1.000000000000000000e+00
1.698559149999999962e-01,-2.532810504900000037e+00,2.253913484020000080e-01,-9.475131980519998720e+00,-1.642637886110000223e-02,-2.720491029320000215e-03,1.371270278469999835e-03,1.000000000000000000e+00
1.749121040000000127e-01,-2.604192902589999914e+00,2.778442604230000335e-01,-9.482416876830001229e+00,-6.796535570170000005e-03,-1.883832924070000248e-02,1.135932933539999905e-02,1.000000000000000000e+00
1.798154809999999992e-01,-2.566752521989999813e+00,2.783382910180000058e-01,-9.426289331419999584e+00,-5.982262082399999494e-03,1.002663467080000016e-02,1.119103049859999791e-03,1.000000000000000000e+00
1.848228329999999919e-01,-2.560905841790000359e+00,2.853564444180000104e-01,-9.426128003380000564e+00,1.731598749759999953e-03,1.947445981200000148e-02,5.039636977020000609e-03,1.000000000000000000e+00
1.898776650000000010e-01,-2.544524615829999892e+00,2.994214110569999865e-01,-9.451214513840000109e+00,-7.394793909040000592e-03,-1.107517071070000109e-02,-5.343421362340000343e-04,1.000000000000000000e+00
1.948962559999999899e-01,-2.558006905479999649e+00,2.374845948429999964e-01,-9.467019985739998589e+00,4.662535153329999509e-03,-1.581895165150000058e-03,-7.087260484700000363e-03,1.000000000000000000e+00
1.999143029999999877e-01,-2.572400464749999838e+00,2.554169044350000362e-01,-9.453087906500000415e+00,-4.737137816850000606e-03,-2.409670036289999692e-03,-1.864112797190000228e-03,1.000000000000000000e+00
2.049389000000000072e-01,-2.559208097959999595e+00,2.482141699819999936e-01,-9.460224334250000311e+00,1.072765141729999962e-02,-7.539068348710000443e-03,-2.826477633790000065e-03,1.000000000000000000e+00
2.098915160000000002e-01,-2.528951783650000174e+00,3.136915996779999771e-01,-9.444656178239998923e+00,7.623803336170000000e-03,-5.905908532439999720e-03,-7.673694752160000083e-03,1.000000000000000000e+00
2.150094310000000009e-01,-2.554879128850000125e+00,2.789590349989999885e-01,-9.470735791390000102e+00,4.313215613370000208e-03,9.742595721039999136e-04,2.206023549659999906e-03,1.000000000000000000e+00
2.199683659999999985e-01,-2.606638249920000039e+00,2.600196672560000088e-01,-9.479929736189999900e+00,-1.072500273589999803e-02,3.567828796799999997e-03,1.390630844979999850e-02,1.000000000000000000e+00
2.250893379999999999e-01,-2.538563953859999778e+00,2.422593349639999838e-01,-9.468039391910000546e+00,-8.683695341460000204e-05,-5.463367793709999858e-03,-6.182170938699999528e-03,1.000000000000000000e+00
2.299198329999999901e-01,-2.578876090510000108e+00,2.519015532580000105e-01,-9.454888233920000218e+00,-4.260353744030000406e-04,-1.261574868109999886e-02,-7.448763586580000456e-03,1.000000000000000000e+00
2.349400719999999998e-01,-2.563651925629999884e+00,3.019766850310000028e-01,-9.429833872160001462e+00,-4.594500642270000698e-03,-6.149669177830000694e-03,-1.999724190680000034e-03,1.000000000000000000e+00
2.399671180000000070e-01,-2.552417414909999849e+00,2.695816051209999897e-01,-9.456246662789999036e+00,-9.029602631929999068e-03,1.568399835380000036e-03,4.737871699039999766e-03,1.000000000000000000e+00
2.448900579999999938e-01,-2.574612880100000112e+00,2.839103189970000329e-01,-9.463727958460001588e+00,1.126329414549999929e-03,-2.435924252499999977e-03,5.818629637360000356e-03,1.000000000000000000e+00
2.499108830000000003e-01,-2.571218269229999631e+00,2.435507082149999947e-01,-9.457244441660000334e+00,-1.076540816579999935e-02,-1.315308385530000127e-03,1.184816239400000035e-03,1.000000000000000000e+00
2.550961110000000143e-01,-2.588460495930000160e+00,2.494173169599999962e-01,-9.464586036589999196e+00,-2.384639577940000140e-03,8.034009486439999334e-03,7.821380160750001156e-03,1.000000000000000000e+00
2.601755539999999756e-01,-2.511208037159999851e+00,2.577359950320000093e-01,-9.449102636250000131e+00,1.024343445900000038e-02,1.745254732669999876e-03,-4.709010943770000970e-03,1.000000000000000000e+00
2.651661180000000062e-01,-2.574495391200000149e+00,2.591970805609999928e-01,-9.428103102839999750e+00,-4.615662619470000880e-03,6.950190290810000400e-03,2.259266795589999922e-03,1.000000000000000000e+00
2.702424019999999927e-01,-2.591193428029999968e+00,2.589388680160000233e-01,-9.472869296289999852e+00,-1.014773454520000000e-02,-5.299608223140000324e-03,7.915308699010000296e-03,1.000000000000000000e+00
2.751860740000000027e-01,-2.534811615590000233e+00,2.625344082900000209e-01,-9.454859592350000952e+00,7.915880531069998879e-03,9.126814547930000654e-04,3.180684754620000197e-03,1.000000000000000000e+00
2.801901540000000246e-01,-2.577182146069999735e+00,2.506336156810000104e-01,-9.464501280920000426e+00,4.696918185799999531e-04,2.787127159540000055e-03,8.957163430750000530e-03,1.000000000000000000e+00
2.851947280000000084e-01,-2.517460375559999797e+00,2.684512676509999696e-01,-9.455900041310000503e+00,1.104344613849999853e-03,1.481055282060000054e-02,-1.525545259939999976e-03,1.000000000000000000e+00
2.901143469999999946e-01,-2.559882928479999986e+00,2.553658866340000055e-01,-9.466959195459999421e+00,-1.674855593589999957e-05,5.976468324659999810e-03,-3.924157470460000116e-03,1.000000000000000000e+00
2.950469299999999850e-01,-2.554374686460000099e+00,2.207880741240000055e-01,-9.475147762609999802e+00,-2.214666921650000359e-03,-5.686474032700000215e-03,-7.597378455100000337e-03,1.000000000000000000e+00
3.002176100000000236e-01,-2.602500127199999902e+00,2.529327412029999667e-01,-9.485186926069999913e+00,2.087699249390000122e-02,1.225800998510000010e-02,-2.951580099759999829e-03,1.000000000000000000e+00
3.053355150000000018e-01,-2.544840257649999771e+00,2.900119603400000412e-01,-9.450455804430001550e+00,-7.263174629769999233e-04,4.748213104899999537e-03,-1.393098291010000031e-02,1.000000000000000000e+00
3.101596739999999963e-01,-2.549823306760000019e+00,2.732645496839999910e-01,-9.455497305730000690e+00,-2.990307984870000052e-05,-7.166339550169999704e-03,-1.519412640479999785e-02,1.000000000000000000e+00
3.151582070000000235e-01,-2.602521754509999674e+00,3.202566207499999984e-01,-9.392185986290000344e+00,1.319881994280000004e-05,4.110205918550000189e-04,2.956283511590000052e-03,1.000000000000000000e+00
3.202003740000000098e-01,-2.557161102299999822e+00,2.674070923599999872e-01,-9.443629173280001510e+00,-1.745928265149999936e-02,2.413219306620000091e-03,7.232335396110000161e-03,1.000000000000000000e+00
3.251542190000000221e-01,-2.523551970429999791e+00,2.721015155199999480e-01,-9.451945166199999804e+00,4.081566818059999963e-03,6.764758378270000448e-03,-6.820113398130000365e-03,1.000000000000000000e+00
3.300670840000000106e-01,-2.564792912359999733e+00,2.602662441620000044e-01,-9.448066278939998952e+00,-2.401934470979999892e-03,-2.655699150640000120e-03,-3.598465584219999545e-03,1.000000000000000000e+00
3.351994329999999911e-01,-2.585681094349999931e+00,2.995718158460000113e-01,-9.446825923489999610e+00,-1.024752296510000014e-02,-1.223516277970000156e-02,4.498928785319999263e-03,1.000000000000000000e+00
3.401779620000000004e-01,-2.554244922599999690e+00,2.947925456800000177e-01,-9.445841004110000938e+00,3.670070786030000306e-03,-6.024962291119999661e-03,7.997900247569999285e-04,1.000000000000000000e+00
3.450805900000000204e-01,-2.534215110999999965e+00,2.792584015379999673e-01,-9.445157113500000534e+00,-1.233992911880000057e-02,5.583332851529999169e-03,-2.258223714310000213e-03,1.000000000000000000e+00
3.500917570000000034e-01,-2.554823891529999891e+00,2.707494067919999914e-01,-9.473230530820000439e+00,7.196344085970000134e-04,-1.046222075820000055e-02,-3.458385821429999993e-03,1.000000000000000000e+00
3.552947679999999830e-01,-2.559459442370000115e+00,3.030585071840000144e-01,-9.446358890499999106e+00,2.858287654820000027e-03,3.246242646130000509e-03,3.499170532449999687e-03,1.000000000000000000e+00
3.601868579999999986e-01,-2.561170630209999910e+00,3.044921019179999688e-01,-9.425568031410000103e+00,1.503084786239999827e-04,8.210211992260000105e-03,2.220129827039999792e-03,1.000000000000000000e+00
3.651584580000000191e-01,-2.583494397959999578e+00,2.744069794509999549e-01,-9.470349422419999996e+00,-1.674365485089999777e-03,1.037759892640000015e-02,6.522403098640001083e-03,1.000000000000000000e+00
3.701987090000000147e-01,-2.548478906420000190e+00,2.805326227250000137e-01,-9.446749935650000651e+00,-4.632995929569999963e-03,-6.248201243580000022e-03,-3.285368438809999937e-03,1.000000000000000000e+00
3.752015189999999834e-01,-2.550312843840000010e+00,2.592178310880000058e-01,-9.430271094530001008e+00,1.201517973100000095e-02,8.964100852610000850e-03,-5.598490126429999519e-03,1.000000000000000000e+00
3.801838169999999795e-01,-2.625359901519999983e+00,2.768361610929999661e-01,-9.465526532310001073e+00,-1.069271587770000099e-03,-3.017398528749999642e-03,1.885698176920000066e-02,1.000000000000000000e+00
3.852872219999999848e-01,-2.526636492440000215e+00,2.899559375699999886e-01,-9.456434294319999267e+00,-1.038294564929999851e-02,-8.737686090169999656e-03,-8.030280005189998922e-04,1.000000000000000000e+00
3.902535160000000225e-01,-2.564913323869999928e+00,2.934151198470000277e-01,-9.460633499570000993e+00,-2.222828799860000325e-03,-1.333761680870000112e-02,9.446887299420000245e-03,1.000000000000000000e+00
3.951255790000000045e-01,-2.525486153360000152e+00,3.018118681239999601e-01,-9.457927747739999447e+00,-2.486285287889999571e-03,2.361042890699999695e-03,-7.044355385009999984e-03,1.000000000000000000e+00
4.001952730000000180e-01,-2.595955820119999924e+00,2.744161308720000081e-01,-9.465822300389998389e+00,7.894166745249999936e-03,7.085645571350000088e-03,7.888367399570000646e-03,1.000000000000000000e+00
4.052424070000000267e-01,-2.525184832329999907e+00,2.612813942880000129e-01,-9.467228660049999078e+00,1.195086911320000257e-02,7.315166294569999152e-03,-7.882021367550000324e-03,1.000000000000000000e+00
4.102731649999999952e-01,-2.576054895610000006e+00,2.612585066030000402e-01,-9.480773785800000297e+00,-3.948167897759999843e-03,-6.699159741399999222e-03,-1.115664467219999907e-02,1.000000000000000000e+00
4.151299880000000053e-01,-2.571942199590000033e+00,2.908690338270000231e-01,-9.477487019219999809e+00,3.341164439919999934e-03,-1.209927350279999848e-02,5.681457929309999613e-03,1.000000000000000000e+00
4.202388300000000076e-01,-2.530136609520000412e+00,2.849702763779999870e-01,-9.474846149319999355e+00,-1.875221543009999992e-02,8.234083652499999892e-03,-2.501490060239999931e-03,1.000000000000000000e+00
4.251757360000000263e-01,-2.562560915520000204e+00,2.516540265040000390e-01,-9.483609301489998700e+00,-1.368700060989999981e-03,-8.857048116620001160e-03,-3.589004511010000179e-03,1.000000000000000000e+00
4.301288659999999986e-01,-2.565615334659999913e+00,3.005651559990000221e-01,-9.465039041049999824e+00,1.004906557500000013e-02,-5.751674994830000519e-03,-2.505639567970000068e-04,1.000000000000000000e+00
4.351908840000000001e-01,-2.540484108270000263e+00,2.996520414750000194e-01,-9.430616546970000513e+00,8.520752191540000367e-03,-2.337196655570000087e-02,-6.632965058090000039e-03,1.000000000000000000e+00
4.402252680000000029e-01,-2.578430100299999861e+00,3.042238794350000108e-01,-9.456578671219999066e+00,-4.217858891930000020e-03,1.235963776709999998e-03,8.412338793279999956e-04,1.000000000000000000e+00
4.451685269999999806e-01,-2.581837278400000102e+00,2.993517616209999677e-01,-9.475241870639999675e+00,-6.531280931089999790e-03,7.649520412090000075e-03,3.275883151219999897e-03,1.000000000000000000e+00
4.501589109999999949e-01,-2.530389707499999918e+00,2.814800779089999816e-01,-9.465312597300000519e+00,1.784736849370000336e-02,-2.365276683119999727e-03,-4.182601347569999892e-03,1.000000000000000000e+00
4.552029140000000140e-01,-2.603930744520000395e+00,2.996647182939999876e-01,-9.445005722330000353e+00,2.219370799139999857e-03,-5.053812637930000032e-03,2.241349080579999823e-03,1.000000000000000000e+00
4.601319560000000086e-01,-2.573447927979999772e+00,2.447539099929999795e-01,-9.457245026180000735e+00,6.935542449360000000e-03,6.026003509760000966e-03,5.465896800159999493e-03,1.000000000000000000e+00
4.651925829999999928e-01,-2.570373635099999721e+00,2.556956300450000108e-01,-9.438808621250000641e+00,2.023264951999999978e-02,-1.218793913720000142e-02,-3.743271809070000504e-03,1.000000000000000000e+00
4.701760260000000247e-01,-2.549303374540000444e+00,2.718126521090000192e-01,-9.485341239849999440e+00,1.068742014469999980e-02,3.901798278090000405e-03,-4.715931601819999680e-03,1.000000000000000000e+00
4.750921559999999877e-01,-2.587927704229999737e+00,2.707494433240000276e-01,-9.486600884519999610e+00,6.191513966770000911e-03,2.242161426690000500e-04,-5.527751520279999657e-03,1.000000000000000000e+00
4.800620210000000054e-01,-2.549131232840000205e+00,2.638664058119999933e-01,-9.438936047030001220e+00,2.241210313510000069e-03,1.472875848410000119e-02,-3.536814125249999712e-03,1.000000000000000000e+00
4.852985260000000078e-01,-2.599559397570000208e+00,2.779429898240000085e-01,-9.475077619989999533e+00,9.220918640489999402e-03,-1.271914807150000123e-03,7.757912389930000235e-03,1.000000000000000000e+00
4.901453259999999923e-01,-2.565426826349999967e+00,3.031250513479999964e-01,-9.452537871400000569e+00,2.154651097949999983e-02,-6.881196983159999607e-03,6.680297665299999525e-04,1.000000000000000000e+00
4.951814170000000126e-01,-2.585730194179999941e+00,2.782937577569999932e-01,-9.438982224260001885e+00,3.208910115060000304e-03,1.001073792579999962e-02,-5.239888560030000076e-04,1.000000000000000000e+00
5.001180809999999921e-01,-2.557246150240000127e+00,2.402359759109999882e-01,-9.423073291980001542e+00,1.713839545850000257e-02,6.052859127520000479e-03,2.381930360570000058e-03,1.000000000000000000e+00
5.053268829999999490e-01,-2.605079330040000141e+00,2.425162140690000079e-01,-9.448354448239998149e+00,-2.130979904899999843e-03,-6.100866012279999862e-03,1.257788669320000080e-02,1.000000000000000000e+00
5.100540620000000303e-01,-2.490884211059999576e+00,2.434716516300000355e-01,-9.459057044039999695e+00,-6.423631682990000452e-03,7.000268436970000577e-03,-1.532589271660000051e-02,1.000000000000000000e+00
5.151532930000000121e-01,-2.566708098329999910e+00,2.721714389509999887e-01,-9.445842173149999965e+00,2.510514575989999768e-03,4.289965610949999543e-03,-9.806128218770001140e-03,1.000000000000000000e+00
5.202867439999999677e-01,-2.592145906450000314e+00,2.639925529430000029e-01,-9.435748064640000266e+00,2.351969014850000277e-04,2.379996236409999757e-03,8.930475451050000140e-05,1.000000000000000000e+00
5.252445890000000395e-01,-2.567634857779999891e+00,2.901049358530000122e-01,-9.435244206769999309e+00,2.918238984420000459e-03,-6.929074879739999075e-03,6.243961863219999950e-03,1.000000000000000000e+00
5.302422270000000104e-01,-2.562858437160000058e+00,2.506411961989999937e-01,-9.471114561580000313e+00,-4.212240688499999976e-03,-1.603038283059999907e-03,-4.443444777279999432e-03,1.000000000000000000e+00
5.351984560000000446e-01,-2.559915661709999846e+00,2.768132003429999988e-01,-9.461244909470000408e+00,-1.078438386320000088e-02,-7.011121138930000683e-03,-4.810822661970000705e-03,1.000000000000000000e+00
5.401824410000000132e-01,-2.594309514220000334e+00,2.936719258859999959e-01,-9.436395130370000217e+00,-7.905135862529999446e-03,-1.777213299650000052e-03,1.375278364870000103e-02,1.000000000000000000e+00
5.452060290000000364e-01,-2.567948161519999939e+00,2.759654792060000084e-01,-9.438579488669999407e+00,2.458317577839999948e-02,2.887130249290000114e-04,-3.235207404940000295e-03,1.000000000000000000e+00
5.501758740000000092e-01,-2.554038001849999961e+00,3.079535674830000125e-01,-9.427520919039999114e+00,-8.415075135419999592e-04,-2.237607259300000272e-03,4.685035906729999831e-03,1.000000000000000000e+00
5.552794739999999951e-01,-2.538709499809999937e+00,2.664366033599999684e-01,-9.425240699149998846e+00,-9.698894806209999372e-03,-6.873104255649999106e-03,-8.969003334639999436e-03,1.000000000000000000e+00
5.602031779999999683e-01,-2.620359609020000313e+00,2.371763326119999959e-01,-9.506231467660001044e+00,1.207820046690000031e-02,-6.924954242999999121e-03,2.048395760360000040e-02,1.000000000000000000e+00
5.651617709999999795e-01,-2.518033499269999975e+00,2.446301009499999846e-01,-9.471557044649999924e+00,-2.592815551909999957e-03,-1.457266975189999876e-02,-4.566538147630000433e-03,1.000000000000000000e+00
5.703194759999999919e-01,-2.579266258870000161e+00,2.993540449089999722e-01,-9.477453116950000478e+00,5.853826645760000502e-03,-1.183526311069999989e-02,-6.496153771880000191e-03,1.000000000000000000e+00
5.752509789999999956e-01,-2.576602008090000062e+00,2.840732727399999935e-01,-9.451443061900000941e+00,6.517019588500000231e-03,-1.639953255650000025e-02,-3.772470634429999411e-03,1.000000000000000000e+00
5.801739500000000493e-01,-2.575888891390000435e+00,2.601389827870000393e-01,-9.461291086699999298e+00,-1.151574961840000008e-02,-3.527147928250000310e-03,6.917349994180000197e-03,1.000000000000000000e+00
5.851184839999999943e-01,-2.552931501909999845e+00,3.006030037909999675e-01,-9.468094336970001024e+00,-1.733895763749999930e-02,6.165143102410000284e-03,-5.366047378630000274e-03,1.000000000000000000e+00
5.901475349999999453e-01,-2.570416889720000153e+00,2.863006664659999978e-01,-9.461527233540000026e+00,-1.889192126690000112e-02,1.119956094770000084e-02,3.358226502309999764e-03,1.000000000000000000e+00
5.950298699999999608e-01,-2.555552498059999955e+00,2.459192639779999856e-01,-9.463008412010001535e+00,1.700113760309999913e-03,-3.460927866399999848e-03,-6.201290525500000213e-03,1.000000000000000000e+00
6.002622939999999740e-01,-2.546398885269999912e+00,2.480721128960000077e-01,-9.474772499560000227e+00,-3.868574509400000104e-03,-3.723499830809999696e-04,-2.735725371170000166e-03,1.000000000000000000e+00
6.051547600000000138e-01,-2.561362937909999804e+00,2.840606324539999838e-01,-9.450425409289998413e+00,-4.812509287149999496e-03,-1.486071851100000097e-04,-4.730644170190000108e-03,1.000000000000000000e+00
6.102319830000000334e-01,-2.602426769700000087e+00,2.724053573050000399e-01,-9.435149514229999923e+00,1.196215488020000058e-02,-8.469474501910000813e-03,-1.114352373410000064e-03,1.000000000000000000e+00
6.151705210000000257e-01,-2.535763217229999977e+00,2.900327108669999987e-01,-9.439137122560000037e+00,-1.279032905589999949e-03,-1.396680343899999940e-02,-5.725032649930001001e-03,1.000000000000000000e+00
6.202823600000000326e-01,-2.601900992259999601e+00,2.793570213400000113e-01,-9.446635369360000922e+00,1.419499795879999859e-02,-1.528372988099999889e-03,9.865888394419999874e-03,1.000000000000000000e+00
6.252651019999999615e-01,-2.565346746849999970e+00,2.555557831830000404e-01,-9.451014607350000318e+00,3.573023714129999751e-03,-9.266689419750000212e-03,2.956433454530000508e-03,1.000000000000000000e+00
6.301456579999999974e-01,-2.539054075470000171e+00,2.793054372830000021e-01,-9.448142851310000978e+00,-7.576812524350000529e-03,2.867487724869999689e-03,-8.008638396859999939e-03,1.000000000000000000e+00
6.350360969999999661e-01,-2.583546712670000023e+00,2.757349949179999649e-01,-9.445904132469999936e+00,1.247093454000000080e-02,-3.710492514070000240e-03,6.735635921359998946e-03,1.000000000000000000e+00
6.401260850000000113e-01,-2.559925890840000218e+00,2.697411247979999982e-01,-9.456243740179999691e+00,-7.123305927959999555e-03,1.024618465449999953e-02,3.272368339820000156e-03,1.000000000000000000e+00
6.452575900000000475e-01,-2.594335233179999811e+00,2.735465814959999742e-01,-9.433295410790000446e+00,-1.301613543180000013e-02,6.323291454459999128e-04,1.192674599590000037e-02,1.000000000000000000e+00
6.501360139999999843e-01,-2.570142456690000188e+00,3.032580118120000168e-01,-9.433698146370000259e+00,-2.734228270130000405e-03,8.771917782719998793e-03,1.154113747180000003e-02,1.000000000000000000e+00
6.551360349999999499e-01,-2.552046828029999936e+00,2.449934726359999926e-01,-9.432023491160000717e+00,-3.474050434309999651e-03,-6.407347973439999700e-04,8.405230473729999752e-04,1.000000000000000000e+00
6.601047740000000053e-01,-2.551128544140000010e+00,2.662383225750000193e-01,-9.445691366510001075e+00,-1.355458050970000062e-03,-2.956569194789999706e-03,-3.462500637400000268e-03,1.000000000000000000e+00
6.652593270000000114e-01,-2.564022804769999997e+00,2.651888317889999902e-01,-9.433476028050000295e+00,3.192093223330000340e-03,-6.500849034640001321e-03,-6.062672473489999665e-03,1.000000000000000000e+00
6.702534799999999571e-01,-2.543684657880000088e+00,2.982655007539999903e-01,-9.449934995419999595e+00,-1.302633667360000034e-03,-1.436903700229999817e-02,-6.582017056639999884e-03,1.000000000000000000e+00
6.751510120000000503e-01,-2.585259069540000176e+00,2.602295836799999873e-01,-9.457259054699999723e+00,-4.946282599119999901e-03,1.232573762540000069e-02,9.615821763869999463e-04,1.000000000000000000e+00
6.802151309999999729e-01,-2.584242878239999985e+00,2.807561840810000042e-01,-9.423878178629999880e+00,1.080101076510000049e-02,-9.277199394999999585e-03,5.762291140850000180e-03,1.000000000000000000e+00
6.852548969999999739e-01,-2.549783851529999978e+00,2.923163465590000176e-01,-9.452135135820000755e+00,-1.062547881160000145e-02,1.493473723529999825e-02,5.860744975509999365e-03,1.000000000000000000e+00
6.902449939999999451e-01,-2.521628601150000204e+00,2.815064727250000121e-01,-9.470683768939998970e+00,-8.247456513349999893e-03,2.014736644920000260e-03,-1.644188538190000104e-02,1.000000000000000000e+00
6.950814810000000010e-01,-2.574432555100000020e+00,3.007278905460000207e-01,-9.434830949800000255e+00,1.094369683410000016e-02,-7.399099878970000210e-03,5.467083305119999764e-03,1.000000000000000000e+00
7.000941809999999821e-01,-2.544491298080000075e+00,3.160144166030000035e-01,-9.464140046389999839e+00,3.241463564340000061e-03,8.748744148760000767e-04,1.214170129969999916e-03,1.000000000000000000e+00
7.052978579999999997e-01,-2.540893565850000257e+00,2.900167095800000316e-01,-9.445944464480000136e+00,-4.416570533069999471e-03,4.099302925169999619e-03,-6.891510449349999914e-03,1.000000000000000000e+00
7.102054190000000045e-01,-2.564958332050000234e+00,2.781928546649999889e-01,-9.444206680910001594e+00,-5.260022357109999172e-03,6.257780827580000302e-03,-1.075254939500000159e-02,1.000000000000000000e+00
7.151077890000000492e-01,-2.594615219170000042e+00,2.411342216580000253e-01,-9.467638409899999274e+00,-1.292768493289999862e-02,1.365393958989999899e-02,-2.271282952280000416e-03,1.000000000000000000e+00
7.202735359999999920e-01,-2.606661338529999927e+00,2.338661851500000166e-01,-9.485300323320000615e+00,5.384443327779999365e-03,-8.605280891060000832e-04,9.217342361809998524e-03,1.000000000000000000e+00
7.251706949999999763e-01,-2.560407829139999869e+00,2.721829101939999829e-01,-9.447983861360000901e+00,-1.449883449819999899e-02,-1.373808365320000092e-02,7.253007963300000215e-03,1.000000000000000000e+00
7.301729489999999601e-01,-2.576695823859999734e+00,2.829217828830000170e-01,-9.454488420949999750e+00,-1.256273710170000089e-03,-1.419455558059999969e-02,8.606195915489998557e-04,1.000000000000000000e+00
7.351389280000000248e-01,-2.549254859220000391e+00,2.724832448470000390e-01,-9.412271327460000947e+00,2.032933756710000005e-03,7.313590496779999103e-03,-5.518360994760000866e-03,1.000000000000000000e+00
7.402264090000000296e-01,-2.549376732040000260e+00,3.003244060449999919e-01,-9.486927632260000465e+00,-6.697697564959999642e-03,1.060940884050000019e-02,-3.171146847310000062e-03,1.000000000000000000e+00
7.451282820000000306e-01,-2.618798058789999939e+00,2.555615370700000111e-01,-9.458771212829999442e+00,3.835965413599999943e-03,1.686405390499999936e-03,6.790871731939999469e-03,1.000000000000000000e+00
7.501479899999999867e-01,-2.559158705859999827e+00,2.707207469530000243e-01,-9.483476030500000320e+00,2.037743688559999608e-04,-2.631783718239999546e-03,-7.547833956779999949e-04,1.000000000000000000e+00
7.551279669999999555e-01,-2.601234637309999709e+00,2.827337494980000088e-01,-9.469290268760000018e+00,-9.084377437830000804e-03,7.443366572259999675e-03,1.388277951630000062e-02,1.000000000000000000e+00
7.602572090000000449e-01,-2.556080905850000029e+00,2.627206698429999654e-01,-9.445281032140000477e+00,-1.401659916160000055e-03,1.315238326789999919e-02,5.367808043959999657e-03,1.000000000000000000e+00
7.651619459999999817e-01,-2.563354111729999829e+00,2.780392532729999977e-01,-9.460974860360000349e+00,8.032316341999998915e-03,4.846541211009999621e-03,1.884155673910000274e-03,1.000000000000000000e+00
7.701630940000000480e-01,-2.555944712250000084e+00,2.516620088809999878e-01,-9.471292840750001218e+00,-6.339386571200000299e-03,-1.035272516310000064e-02,1.147296838459999947e-02,1.000000000000000000e+00
7.751341470000000511e-01,-2.512975339100000038e+00,2.413370507539999987e-01,-9.424868358710000393e+00,6.845934316520000881e-03,1.820077188309999995e-03,2.183219185099999696e-03,1.000000000000000000e+00
7.800191060000000176e-01,-2.565003924759999610e+00,2.267814510539999939e-01,-9.470368127120000423e+00,2.399069024250000213e-03,-2.217833651229999831e-03,3.375409403819999796e-03,1.000000000000000000e+00
7.851354879999999925e-01,-2.572140937029999908e+00,2.770230071679999906e-01,-9.442934176749998798e+00,-1.646172022449999975e-03,8.233955129979998386e-03,1.948745222760000107e-03,1.000000000000000000e+00
7.901285439999999882e-01,-2.604639185049999917e+00,2.719846659409999590e-01,-9.481804297889999233e+00,-1.160798501219999918e-02,-2.447716891769999813e-03,9.064645506440000694e-03,1.000000000000000000e+00
7.951423309999999800e-01,-2.525408119690000230e+00,2.898791277409999978e-01,-9.455904132960000652e+00,-1.392988488080000066e-02,-9.759915061299999015e-03,3.693157341329999935e-04,1.000000000000000000e+00
8.001704179999999944e-01,-2.556263568940000397e+00,2.782077599739999907e-01,-9.442978600420000035e+00,-1.384790707380000041e-02,3.368572331959999652e-03,-8.533773012459999752e-03,1.000000000000000000e+00
8.052106799999999565e-01,-2.585630533199999803e+00,2.724809615580000011e-01,-9.418974624489999670e+00,-1.975776860490000269e-03,-6.232096813619999835e-03,-4.306948278100000173e-03,1.000000000000000000e+00
8.102600490000000377e-01,-2.553322839320000259e+00,2.886576413879999858e-01,-9.465052485060001075e+00,2.065007761120000312e-02,2.411297988150000373e-03,-5.503042601050000225e-03,1.000000000000000000e+00
8.151106550000000173e-01,-2.597912214890000016e+00,2.791736275969999848e-01,-9.465858540739999327e+00,-1.200269348920000000e-02,9.313506074250001154e-03,1.046572718770000070e-02,1.000000000000000000e+00
8.201367859999999510e-01,-2.533464877160000128e+00,2.817460353690000030e-01,-9.441004669989998987e+00,-1.656459085640000009e-02,-1.450469624250000193e-02,-3.317300695929999849e-03,1.000000000000000000e+00
8.252374879999999635e-01,-2.562279175970000100e+00,2.600897002850000028e-01,-9.465008061389999838e+00,-8.780107833450000523e-03,5.232065916060000578e-03,2.867557806889999873e-03,1.000000000000000000e+00
8.301486289999999713e-01,-2.554455058219999852e+00,2.768017473669999728e-01,-9.463559616150000409e+00,-1.797873340550000185e-02,9.490697644649999376e-03,-1.508027082310000070e-03,1.000000000000000000e+00
8.350844680000000242e-01,-2.557173377259999825e+00,2.686091068270000104e-01,-9.453570721580000225e+00,-1.154006924479999800e-02,1.332340762020000106e-04,-1.126090437170000104e-02,1.000000000000000000e+00
8.402169489999999907e-01,-2.600624688719999966e+00,2.794361327250000082e-01,-9.440462233679999926e+00,-8.416374213990000103e-03,-3.452938050030000122e-03,2.750335261229999918e-05,1.000000000000000000e+00
8.450925569999999665e-01,-2.565252054300000140e+00,2.651086061590000043e-01,-9.445229009689999344e+00,-9.869002737100000811e-03,1.343805529179999819e-02,-5.012997426090000028e-03,1.000000000000000000e+00
8.501825290000000201e-01,-2.539438398609999759e+00,2.812828931029999757e-01,-9.480184003219999767e+00,-9.259762242439999874e-03,6.603731308129999868e-04,1.879979623479999988e-03,1.000000000000000000e+00
8.552449629999999692e-01,-2.532097388199999966e+00,3.030619412500000220e-01,-9.447446685739999239e+00,-1.336929667739999994e-02,-4.468271043149999421e-03,-6.945054046810000305e-03,1.000000000000000000e+00
8.602115689999999537e-01,-2.590648361359999985e+00,2.433295580119999857e-01,-9.486879701459999481e+00,-3.110827528870000456e-04,6.061765365300000527e-03,1.945001306010000130e-03,1.000000000000000000e+00
8.652030219999999883e-01,-2.589451552789999944e+00,2.515944418039999797e-01,-9.488519869880001067e+00,-6.170680746439998789e-03,9.325754828749999517e-03,1.700282841919999871e-02,1.000000000000000000e+00
8.701510139999999449e-01,-2.503857966659999601e+00,2.766745225239999884e-01,-9.476784423910000754e+00,1.484863460059999973e-02,1.461339555679999971e-02,-1.135617122049999844e-02,1.000000000000000000e+00
8.751087450000000212e-01,-2.565304369010000141e+00,2.878602621990000165e-01,-9.415264079539999997e+00,-1.285710488449999869e-03,-2.758751157670000145e-03,-8.899758104229999649e-04,1.000000000000000000e+00
8.801438820000000440e-01,-2.573096338060000043e+00,2.328578666239999873e-01,-9.459399573860000743e+00,8.409323170779999315e-03,-3.285176586359999946e-03,-3.868264611809999636e-04,1.000000000000000000e+00
8.851276540000000415e-01,-2.554752579859999706e+00,3.231954141480000153e-01,-9.460512503540000395e+00,-7.531641516830000181e-03,1.515600271520000167e-02,-1.173174125140000060e-03,1.000000000000000000e+00
8.901224559999999508e-01,-2.542503923659999998e+00,3.019253384360000014e-01,-9.444807569410000880e+00,8.778371848170001338e-03,-6.012687459589999804e-03,-8.968350477520000905e-03,1.000000000000000000e+00
8.951651440000000237e-01,-2.559220665180000243e+00,2.948613183339999777e-01,-9.440860293089999189e+00,-2.060647588220000138e-03,6.482094526289999305e-03,-1.378229912369999949e-02,1.000000000000000000e+00
9.001273010000000463e-01,-2.624154909650000089e+00,2.459776978999999864e-01,-9.445850940979999777e+00,-5.543952342120000293e-03,-5.771293770520000491e-03,2.447523549199999773e-02,1.000000000000000000e+00
9.051872399999999486e-01,-2.534867729690000182e+00,2.579425321889999845e-01,-9.447629641089999808e+00,-1.121089793739999969e-03,4.951400682329999692e-03,5.100804381069999789e-03,1.000000000000000000e+00
9.101261980000000529e-01,-2.504832949169999878e+00,3.055599503449999976e-01,-9.433187274239999809e+00,9.936555288729999671e-03,1.499320566650000006e-02,-1.697091199460000130e-02,1.000000000000000000e+00
9.152546000000000292e-01,-2.637281517719999968e+00,2.948097708099999825e-01,-9.451281149339999743e+00,-5.399360321459999862e-03,2.999185584489999935e-03,1.250954158599999928e-02,1.000000000000000000e+00
9.202754749999999540e-01,-2.496304190280000057e+00,2.756719578860000186e-01,-9.454183300519998667e+00,-1.188972312960000048e-02,-9.261963889000000144e-03,-1.845844276250000263e-02,1.000000000000000000e+00
9.251614150000000425e-01,-2.596803961380000025e+00,2.910811239420000307e-01,-9.465845096739998965e+00,-2.445155289019999845e-03,-1.168556977060000029e-02,-4.787314683200000025e-03,1.000000000000000000e+00
9.302347450000000295e-01,-2.547755852839999946e+00,2.861699527580000013e-01,-9.469206097609999873e+00,-8.672802709040000613e-03,2.372236922379999968e-04,1.521679805589999830e-03,1.000000000000000000e+00
9.351622840000000103e-01,-2.541324650750000025e+00,2.626507464119999802e-01,-9.451384025189998539e+00,7.800895837140000731e-04,-2.067213132979999965e-02,-1.208584196870000037e-02,1.000000000000000000e+00
9.402258820000000128e-01,-2.561210377690000151e+00,2.779165584750000195e-01,-9.465250053460000146e+00,1.326099038119999849e-03,1.865572109820000032e-02,-4.467103164640000464e-03,1.000000000000000000e+00
9.451454980000000283e-01,-2.548332191420000115e+00,2.946698691490000077e-01,-9.454573761139998922e+00,-9.423826821150000158e-03,1.318169292059999994e-03,-4.483840893949999316e-03,1.000000000000000000e+00
9.502002649999999884e-01,-2.601513161989999823e+00,3.090879783400000136e-01,-9.450233101589999407e+00,-6.563407834619999250e-03,1.139165367929999978e-02,7.488917559390000783e-03,1.000000000000000000e+00
9.552340409999999782e-01,-2.563256788829999966e+00,2.364019507059999803e-01,-9.465181079869999792e+00,-1.434356556270000027e-03,-4.493149928749999751e-03,-6.638292688880000850e-04,1.000000000000000000e+00
9.601570139999999753e-01,-2.522543962429999898e+00,2.623079243240000191e-01,-9.475161791139999679e+00,-8.818181231620000546e-03,7.931129075590001576e-03,-4.363540560010000131e-03,1.000000000000000000e+00
9.651201590000000330e-01,-2.585321028859999704e+00,2.780748543089999747e-01,-9.470731699739999954e+00,-1.339586731050000125e-02,-1.348216086630000220e-03,-1.374202128500000113e-02,1.000000000000000000e+00
9.701921169999999650e-01,-2.567033677020000404e+00,3.004997808780000002e-01,-9.466651152429999883e+00,-1.191782066599999992e-03,-1.336577069010000049e-02,-2.362144179639999973e-03,1.000000000000000000e+00
9.751858570000000448e-01,-2.574381993959999892e+00,2.710038564769999825e-01,-9.446781499830001039e+00,1.118707098070000072e-02,5.653982050720000353e-03,2.789575373750000000e-03,1.000000000000000000e+00
9.801714599999999944e-01,-2.529405957149999828e+00,2.566625205820000089e-01,-9.442738361919998269e+00,3.658434376119999634e-03,1.144140772520000141e-02,-4.613830242310000161e-04,1.000000000000000000e+00
9.851694770000000156e-01,-2.539299574659999781e+00,2.613558842959999851e-01,-9.452176636869999982e+00,-5.599434953180000779e-04,-1.197536196560000134e-02,-1.083584269510000104e-03,1.000000000000000000e+00
9.902532670000000481e-01,-2.592548642029999684e+00,2.578726087579999993e-01,-9.453732634139999647e+00,9.625217877330000463e-03,6.806351244449999720e-03,1.138332858679999907e-02,1.000000000000000000e+00
9.950972169999999783e-01,-2.536175889679999962e+00,2.850103709269999896e-01,-9.466741753320000896e+00,8.989733643829999482e-03,-6.842216942460000589e-03,1.056298613549999828e-02,1.000000000000000000e+00
1.000100629000000074e+00,-2.576514622070000371e+00,2.698087466740000107e-01,-9.447930085339999451e+00,3.033147659150000133e-03,-3.532737027849999854e-03,1.618121750649999940e-02,1.000000000000000000e+00
1.005144346000000022e+00,-2.533894500749999779e+00,3.020904293369999771e-01,-9.430181078160000396e+00,1.076539978379999901e-02,-4.992938600479999642e-03,-1.471877680160000061e-03,1.000000000000000000e+00
1.010169802999999922e+00,-2.556455584380000090e+00,2.658955735519999974e-01,-9.487297050089999573e+00,1.272347290069999765e-03,-3.132810816169999944e-04,-5.560318473730000398e-03,1.000000000000000000e+00
1.015170574999999964e+00,-2.540192724109999745e+00,3.100503570989999735e-01,-9.458654308450000769e+00,-8.796005509790000981e-03,-6.375159136949999986e-03,-2.895799698309999785e-03,1.000000000000000000e+00
1.020279761000000063e+00,-2.517492231999999941e+00,2.707011654690000269e-01,-9.462455454299998792e+00,-1.847633533180000065e-02,3.272872418170000167e-04,-2.984175691380000061e-03,1.000000000000000000e+00
1.025276384000000096e+00,-2.590893860560000039e+00,2.945965116509999815e-01,-9.468502333250000902e+00,-4.985740873959999646e-03,-1.138697378340000101e-02,1.197029743340000119e-02,1.000000000000000000e+00
1.030308031999999985e+00,-2.513541448549999835e+00,2.768236669379999793e-01,-9.453364385349999566e+00,-5.968006327749999541e-03,1.033923029899999971e-02,-3.818379482250000134e-03,1.000000000000000000e+00
1.035198387999999969e+00,-2.605098619260000081e+00,2.649711887160000057e-01,-9.452959311679999033e+00,-8.445450221189999222e-04,1.927881967280000016e-03,2.148955129090000110e-02,1.000000000000000000e+00
1.040127546999999986e+00,-2.506350952520000064e+00,2.611130702499999678e-01,-9.487451363869999099e+00,-1.495724543930000011e-02,-5.105670541520000369e-03,-4.853079561140000511e-03,1.000000000000000000e+00
1.045156195999999982e+00,-2.559997202509999958e+00,2.839920607300000510e-01,-9.462088959080000805e+00,-1.187499240040000049e-02,-1.020107790829999882e-02,-1.215929631139999953e-02,1.000000000000000000e+00
1.050119561999999895e+00,-2.584572840840000385e+00,2.246424479970000054e-01,-9.442897936389998748e+00,6.289727753030000174e-05,1.354592666030000024e-02,-1.295925234440000037e-03,1.000000000000000000e+00
1.055244107000000042e+00,-2.548330730119999998e+00,2.874809988239999670e-01,-9.454919213580000203e+00,-5.868000444020000407e-03,1.162160467360000109e-02,5.619754083449999757e-03,1.000000000000000000e+00
1.060143488000000023e+00,-2.566994806319999878e+00,2.895664085299999857e-01,-9.501739416939999572e+00,1.889017643409999971e-03,9.670467115940000954e-03,6.141759455199999329e-03,1.000000000000000000e+00
1.065192426000000081e+00,-2.559824768559999963e+00,2.554596475979999948e-01,-9.458431605610000403e+00,-7.353289052839999569e-03,-5.769860930739999748e-03,9.573362767699999682e-04,1.000000000000000000e+00
1.070264773999999974e+00,-2.571337803960000112e+00,2.863249241240000131e-01,-9.462456038819999193e+00,-1.436744537199999977e-02,8.525074459609999905e-03,5.551452748479999456e-03,1.000000000000000000e+00
1.075247955999999894e+00,-2.561688224340000097e+00,2.685771773189999934e-01,-9.456042080130000471e+00,2.593179699030000260e-03,-7.240978069600000587e-03,-4.017008468510000299e-04,1.000000000000000000e+00
1.080118467999999998e+00,-2.596659876740000428e+00,2.674680835659999922e-01,-9.453193704960000332e+00,-9.069714695219999179e-03,-3.108929842710000165e-03,3.540196688849999839e-03,1.000000000000000000e+00
1.085142379000000101e+00,-2.522905196959999596e+00,2.710085874509999826e-01,-9.435603103210000953e+00,4.266983014530000267e-04,1.250004582110000005e-02,-4.445617087189998942e-03,1.000000000000000000e+00
1.090121327000000084e+00,-2.562915720309999923e+00,2.805889560220000134e-01,-9.434064057080000509e+00,4.033706500190000063e-04,4.256567452099999961e-03,7.276742253450000242e-04,1.000000000000000000e+00
1.095194567000000063e+00,-2.589528709680000151e+00,2.829459857430000058e-01,-9.446505020980000111e+00,9.946504607799999675e-03,-8.142533712090000222e-03,7.270986214279999242e-03,1.000000000000000000e+00
1.100114413000000013e+00,-2.584105515590000124e+00,2.697528517689999905e-01,-9.473982810489999906e+00,-3.236726624890000088e-03,6.155603565279999835e-03,-7.399336434899999107e-03,1.000000000000000000e+00
1.105271383999999912e+00,-2.588753633660000109e+00,2.828004032599999995e-01,-9.459868944940000191e+00,9.157482418230001838e-04,1.007740292700000026e-02,2.999705960969999835e-03,1.000000000000000000e+00
1.110240976000000046e+00,-2.567033969280000161e+00,2.720237558429999813e-01,-9.463679443139998426e+00,-1.387685071679999743e-02,-1.923039904799999983e-03,7.720533758399999828e-03,1.000000000000000000e+00
1.115068320000000002e+00,-2.579111068309999588e+00,2.696003098220000060e-01,-9.471799621229999744e+00,-9.332567453379998421e-03,2.601441182200000049e-02,1.491131354120000044e-02,1.000000000000000000e+00
1.120134076999999895e+00,-2.550851773030000214e+00,3.080615944350000301e-01,-9.431156060669998453e+00,-4.058104939759999731e-03,-2.352142473679999946e-03,1.352823572229999889e-03,1.000000000000000000e+00
1.125309125000000021e+00,-2.548350019339999939e+00,3.077738270020000111e-01,-9.454515893470000876e+00,-7.123891264199999802e-03,-1.346915215249999860e-02,-1.314935274420000111e-03,1.000000000000000000e+00
1.130028746000000028e+00,-2.539925013079999960e+00,2.862286424089999781e-01,-9.467646008680000946e+00,-1.378424558790000004e-02,-9.529747068879998798e-03,-5.423990078269999918e-03,1.000000000000000000e+00
1.135166984000000046e+00,-2.588660986939999908e+00,2.837478401779999770e-01,-9.473975211699999122e+00,-7.255910430099999850e-03,-1.082782633600000086e-02,2.199928089979999793e-02,1.000000000000000000e+00
1.140109204000000043e+00,-2.536678286249999914e+00,3.219649590379999871e-01,-9.467501631779999371e+00,1.403535436839999789e-02,4.572011530399999052e-03,9.209488518540000918e-03,1.000000000000000000e+00
1.145266018000000052e+00,-2.537268653349999958e+00,3.160031280239999907e-01,-9.464225971110000302e+00,-9.513610973950000979e-03,1.592679694290000114e-02,2.776206238199999902e-03,1.000000000000000000e+00
1.150076659000000001e+00,-2.570123459730000004e+00,3.377924601039999919e-01,-9.425839834089998703e+00,-4.614636418409999956e-05,-3.000354394320000478e-03,6.616620346900000185e-03,1.000000000000000000e+00
1.155283403999999958e+00,-2.570596045679999886e+00,2.924357899539999917e-01,-9.453454986239998803e+00,5.413071718069999497e-03,2.273305784910000047e-03,-1.305160345510000038e-03,1.000000000000000000e+00
1.160167795000000002e+00,-2.541935476120000370e+00,3.062588558619999679e-01,-9.488181431710000169e+00,2.992271212859999932e-03,-1.560293836519999894e-03,-2.423983765769999708e-03,1.000000000000000000e+00
1.165108449000000101e+00,-2.565107677390000340e+00,2.898288953909999854e-01,-9.467429151060001047e+00,-7.753216195849999904e-04,-1.147783547639999978e-02,2.066025277599999824e-03,1.000000000000000000e+00
1.170107071999999970e+00,-2.570825762780000190e+00,3.026620734789999823e-01,-9.489487253610001005e+00,-6.544484058400000265e-04,-1.131982821970000178e-02,1.808822341259999980e-02,1.000000000000000000e+00
1.175214479999999950e+00,-2.540991181009999877e+00,2.898850460249999816e-01,-9.461431371950000724e+00,7.791059557350000706e-03,5.900851450859999868e-03,9.682084433729998621e-03,1.000000000000000000e+00
1.180155763999999996e+00,-2.550429455959999814e+00,2.710762641259999994e-01,-9.440659217560000371e+00,6.769128143789999996e-03,-1.059500873089999975e-02,-1.391510013489999961e-04,1.000000000000000000e+00
1.185207671999999990e+00,-2.558931326850000243e+00,2.673373515920000054e-01,-9.451959194729999680e+00,7.632788037880000186e-05,1.794375292959999799e-02,4.700921475890000416e-03,1.000000000000000000e+00
1.190219877999999953e+00,-2.553068864550000150e+00,2.996763356659999933e-01,-9.436003500710000935e+00,1.260698214169999991e-02,4.856160376219999914e-04,-5.362573079760000506e-03,1.000000000000000000e+00
1.195113767000000049e+00,-2.588761232440000004e+00,2.758464011369999858e-01,-9.441713695049999799e+00,1.174896117300000022e-02,8.178129792209999985e-03,1.348823076109999892e-03,1.000000000000000000e+00
1.200120810999999899e+00,-2.557844116130000067e+00,2.700553783790000106e-01,-9.418197794899999309e+00,3.634606022389999871e-03,2.276621293280000052e-03,-1.008202554659999930e-03,1.000000000000000000e+00
1.205178045999999892e+00,-2.550086049349999939e+00,2.946390904180000159e-01,-9.455921668620000275e+00,1.625517569479999896e-02,1.169657707210000099e-02,2.591020660469999740e-03,1.000000000000000000e+00
1.210231142000000037e+00,-2.539946348129999976e+00,2.709226262000000163e-01,-9.448514022710000404e+00,1.245217025279999994e-02,1.168693508950000015e-02,-3.846788313239999876e-04,1.000000000000000000e+00
1.215092244000000044e+00,-2.550273388619999970e+00,2.612953680139999957e-01,-9.473807453919999233e+00,8.209468796850000194e-03,-7.550094276669999660e-03,-1.346269436180000043e-02,1.000000000000000000e+00
1.220108521000000001e+00,-2.624713128050000233e+00,3.245683830020000271e-01,-9.452439087200000145e+00,6.189318373800000578e-03,8.518544957040000490e-03,5.254406481979998975e-03,1.000000000000000000e+00
1.225215343999999984e+00,-2.536560797349999952e+00,2.922259831280000220e-01,-9.467308155030000449e+00,-1.910168910400000244e-03,-9.127974510190000126e-03,-7.230923511090000394e-03,1.000000000000000000e+00
1.230127940999999892e+00,-2.603034380209999998e+00,2.744781997900000436e-01,-9.460893611810000436e+00,1.013204734770000066e-02,-4.877386149020000380e-03,8.548735640939999006e-03,1.000000000000000000e+00
1.235114491999999897e+00,-2.525032564380000011e+00,2.649390765449999852e-01,-9.453203641830000947e+00,1.566875167189999904e-02,1.116601936519999970e-02,-2.696717856449999846e-03,1.000000000000000000e+00
1.240119881000000035e+00,-2.569010530049999907e+00,2.648726054459999979e-01,-9.464851409530000481e+00,5.231081508099999847e-03,-6.394295021890000590e-03,3.581074764950000107e-03,1.000000000000000000e+00
1.245120153000000007e+00,-2.558711254359999909e+00,2.911260042630000044e-01,-9.455475678420000918e+00,-4.585492424670000594e-03,-6.194509565829999995e-03,4.227187484500000321e-03,1.000000000000000000e+00
1.250060691000000057e+00,-2.550157361020000124e+00,2.673545584550000020e-01,-9.452942360549998924e+00,-1.031042262910000090e-02,1.297412998969999995e-02,9.301041718570000503e-04,1.000000000000000000e+00
1.255240930000000033e+00,-2.535439684360000001e+00,2.756709349720000146e-01,-9.444162257240000358e+00,4.767594859000000469e-03,4.017540719360000387e-03,2.410725457590000460e-03,1.000000000000000000e+00
1.260242537999999968e+00,-2.552428520820000379e+00,2.910124974180000046e-01,-9.468595856749999484e+00,3.958399407569999917e-03,7.714768871669999521e-03,-1.655328087510000079e-04,1.000000000000000000e+00
1.264965118000000110e+00,-2.563078509649999948e+00,2.744575953939999979e-01,-9.467735440529999380e+00,1.585529651489999987e-03,-1.005674246699999989e-02,-1.025790721179999955e-02,1.000000000000000000e+00
1.270155538000000028e+00,-2.599151109030000129e+00,2.555329868289999973e-01,-9.444502448979999798e+00,2.746467944230000010e-03,-1.211683824659999867e-02,1.134028844540000032e-02,1.000000000000000000e+00
1.275246835999999995e+00,-2.528494687529999840e+00,2.898976497779999772e-01,-9.457992045150000138e+00,1.898577436799999893e-02,6.472466513510000650e-03,-9.922333993019998022e-04,1.000000000000000000e+00
1.280080756000000042e+00,-2.568977212300000090e+00,2.899962330479999850e-01,-9.446099947310001355e+00,7.013715803620000633e-03,1.575990021229999732e-02,7.944762706760000529e-03,1.000000000000000000e+00
1.285121213999999901e+00,-2.532174252819999971e+00,2.912600789710000360e-01,-9.435513671360000743e+00,2.479986287650000169e-03,-2.191981766369999868e-04,5.800097715110000881e-04,1.000000000000000000e+00
1.290240017999999989e+00,-2.574391346309999662e+00,2.567006058360000176e-01,-9.456934060529999186e+00,-5.499587394300000862e-03,3.126399125900000252e-03,-2.655793912710000503e-03,1.000000000000000000e+00
1.295112817999999999e+00,-2.571817111900000175e+00,2.972219099850000323e-01,-9.443245726919998972e+00,1.449463982140000023e-02,-3.413563594219999695e-03,-1.360829803159999910e-03,1.000000000000000000e+00
1.300100070999999913e+00,-2.548816760069999798e+00,3.273689735060000272e-01,-9.395765013820000178e+00,6.789592094719999749e-03,2.474411856380000045e-03,-1.147696934639999902e-02,1.000000000000000000e+00
1.305160032000000081e+00,-2.601988086019999979e+00,2.839381568519999677e-01,-9.461385779239998683e+00,6.467398721719999806e-03,-1.127670239659999893e-02,1.116731576620000159e-02,1.000000000000000000e+00
1.310106226000000040e+00,-2.502031335759999919e+00,2.741514703199999792e-01,-9.486777994649999712e+00,-1.389763085169999982e-03,-1.134313177319999991e-02,-9.948542341590000532e-03,1.000000000000000000e+00
1.315265225000000093e+00,-2.631535375289999923e+00,3.032880416239999710e-01,-9.442384141649998952e+00,-8.565096184609998636e-03,-9.245101362469998821e-03,5.985241383309999712e-03,1.000000000000000000e+00
1.320244278999999965e+00,-2.555871647020000026e+00,2.837112527610000101e-01,-9.500995905099999916e+00,-1.677144318820000118e-02,-7.279442623260000585e-03,-1.141228619960000037e-02,1.000000000000000000e+00
1.325205616999999947e+00,-2.591381936339999914e+00,2.685233099739999796e-01,-9.464251105549999821e+00,1.337978430089999983e-02,9.958908893170000456e-03,-4.676601849500000574e-03,1.000000000000000000e+00
1.330102386000000081e+00,-2.582293497729999832e+00,2.933396799910000241e-01,-9.474577853770000502e+00,-9.257317520680000134e-03,-6.865253671999999897e-03,7.984704338010000652e-03,1.000000000000000000e+00
1.335075695000000007e+00,-2.579989312439999960e+00,2.587904907870000049e-01,-9.490348838879999249e+00,-4.492549342099999999e-04,1.583225652580000017e-02,7.575135678050000029e-03,1.000000000000000000e+00
1.340081649999999902e+00,-2.503433896029999772e+00,2.766952913179999696e-01,-9.467712644180000581e+00,2.598149701949999547e-03,1.867689006029999918e-02,-1.277530565859999988e-02,1.000000000000000000e+00
1.345119123999999999e+00,-2.585627318330000257e+00,2.934932813839999932e-01,-9.457810258839998596e+00,6.653867196289999821e-03,6.090486422180000151e-03,3.904837649319999656e-04,1.000000000000000000e+00
1.350093428999999956e+00,-2.537977093879999924e+00,2.826169729840000144e-01,-9.474634552399999521e+00,-1.098506804560000008e-02,2.317966427649999911e-03,-7.192243821920000883e-03,1.000000000000000000e+00
1.355268581000000028e+00,-2.609843475699999971e+00,2.518869402099999655e-01,-9.462895599279999459e+00,2.210563514379999990e-03,-1.675457507370000168e-02,8.210898377000000123e-03,1.000000000000000000e+00
1.360107214999999981e+00,-2.545357267260000000e+00,2.733472960640000449e-01,-9.461552952499999947e+00,1.729175634680000032e-02,9.122265502809999427e-03,-1.457536220550000039e-02,1.000000000000000000e+00
1.365040671999999899e+00,-2.592721952770000282e+00,2.849131758960000149e-01,-9.488651971830000420e+00,5.899123381820000137e-03,2.644052263350000261e-03,2.630057279019999803e-04,1.000000000000000000e+00
1.370112390000000069e+00,-2.589773332100000047e+00,2.677397401139999800e-01,-9.418814465499998789e+00,8.984697982670000749e-03,-3.569616936149999815e-03,4.404705949130000367e-03,1.000000000000000000e+00
1.374961268999999930e+00,-2.566551446460000108e+00,2.805099177020000112e-01,-9.458065110389998864e+00,7.502496708179999876e-03,3.460126463320000421e-03,-6.903700530529999733e-03,1.000000000000000000e+00
1.380150943999999935e+00,-2.582999015650000008e+00,2.875819384480000074e-01,-9.458608131220000104e+00,-5.906095262619999627e-03,5.527343600989999620e-03,-1.228776411150000114e-03,1.000000000000000000e+00
1.385203302999999941e+00,-2.536041449649999890e+00,3.114462684370000178e-01,-9.441492745770000639e+00,4.478566348550000291e-03,9.600237011910000076e-03,-8.902954868969999505e-03,1.000000000000000000e+00
1.390035147000000082e+00,-2.605724057680000261e+00,2.986119578379999862e-01,-9.429472053110000473e+00,8.221842348579999973e-03,-4.927773028609999661e-03,-1.880173571410000220e-03,1.000000000000000000e+00
1.395217045000000100e+00,-2.587147952029999587e+00,2.615956844010000060e-01,-9.438096673589999597e+00,8.706968277690000160e-03,-1.145408255979999887e-03,5.115675739939999980e-03,1.000000000000000000e+00
1.400025571000000024e+00,-2.557270992420000333e+00,3.042137598999999915e-01,-9.459998708800000600e+00,-3.658613422889999724e-03,9.964433498680000043e-03,-9.712950559330001512e-04,1.000000000000000000e+00
1.405127301999999911e+00,-2.543800977730000135e+00,3.302102978790000254e-01,-9.470404367480000474e+00,2.703706966709999975e-03,-1.135193277150000051e-03,-2.136934548619999746e-03,1.000000000000000000e+00
1.410112478999999919e+00,-2.526028881939999859e+00,3.040417460679999961e-01,-9.463534481710000890e+00,9.646978229280001732e-03,-9.621242061260000880e-03,-4.029065370559999429e-03,1.000000000000000000e+00
1.415177203000000050e+00,-2.562941439270000288e+00,2.745595579310000089e-01,-9.443560199700000268e+00,6.974615156649999377e-03,8.943334221840000195e-03,1.095151761549999865e-03,1.000000000000000000e+00
1.420178307999999889e+00,-2.589739429829999828e+00,2.853040931760000287e-01,-9.453364969869999968e+00,4.321466665710000515e-03,7.773436605930000506e-03,2.265831222759999951e-03,1.000000000000000000e+00
1.425108373000000039e+00,-2.530863462490000160e+00,2.587377011540000216e-01,-9.479607664630000485e+00,4.037220962350000254e-03,1.597187947480000131e-04,-2.436955692250000142e-03,1.000000000000000000e+00
1.430107916999999951e+00,-2.623111245809999659e+00,2.770874141740000129e-01,-9.444673713900000322e+00,-5.749424453819999316e-03,-3.388274228199999842e-03,1.081301923840000123e-02,1.000000000000000000e+00
1.435089819000000100e+00,-2.542765497200000002e+00,2.959729145710000009e-01,-9.448146942959999350e+00,-2.144024241719999935e-03,1.453639939430000083e-02,-2.798798959700000370e-04,1.000000000000000000e+00
1.440126422000000073e+00,-2.553708331500000206e+00,2.767400437749999997e-01,-9.472942946050000756e+00,-6.818035617469999678e-03,1.109188143160000015e-02,-7.817665115000000525e-03,1.000000000000000000e+00
1.445097716000000032e+00,-2.551889883899999933e+00,2.480952015109999798e-01,-9.472368361030000017e+00,5.245930515230000368e-03,1.426819246259999983e-03,-1.877268077809999842e-03,1.000000000000000000e+00
1.450093748000000016e+00,-2.522478788239999936e+00,2.729987200880000242e-01,-9.473118302610000541e+00,1.451746560630000002e-02,8.664387278260000935e-03,-9.662358788769998983e-04,1.000000000000000000e+00
1.455191369000000012e+00,-2.512749713649999883e+00,2.362575737990000035e-01,-9.452908458280001369e+00,7.854597643019999714e-03,4.766987171020000552e-03,8.098522666839998727e-04,1.000000000000000000e+00
1.460150009999999998e+00,-2.496135263449999808e+00,2.575035927820000237e-01,-9.478823820780000631e+00,4.457173403350000139e-03,-1.123900990929999934e-02,-1.428697071970000225e-02,1.000000000000000000e+00
1.465042568999999961e+00,-2.592660870230000025e+00,2.924288670219999942e-01,-9.442365436950000301e+00,6.139094010000000282e-03,9.394264779980000552e-04,3.697903128340000300e-03,1.000000000000000000e+00
1.470052614000000091e+00,-2.523215870340000055e+00,2.990801964040000205e-01,-9.489564410499999880e+00,6.122611463069999906e-03,6.489926949140000130e-03,-2.755330642690000456e-03,1.000000000000000000e+00
1.475283311000000097e+00,-2.565389416940000000e+00,3.101537444079999761e-01,-9.457868126510000195e+00,2.140596741809999964e-03,5.586666520680001616e-04,-9.915258269760000940e-04,1.000000000000000000e+00
1.480272918999999909e+00,-2.540668524930000061e+00,2.806015597750000090e-01,-9.430625899319998950e+00,5.612156237479999730e-04,6.173149682579999638e-03,-4.715765826399999881e-03,1.000000000000000000e+00
1.485168613999999998e+00,-2.548165894940000342e+00,2.686104037350000029e-01,-9.445761509129999567e+00,5.795280449090000306e-03,5.582790821790000434e-03,-9.617381729189999548e-03,1.000000000000000000e+00
1.490280714000000062e+00,-2.563781981750000050e+00,2.863512641420000171e-01,-9.449999292830000286e+00,3.571147564800000382e-03,-6.064022425560000075e-03,2.732734894380000300e-03,1.000000000000000000e+00
1.495249516999999972e+00,-2.552441380309999897e+00,2.778101389579999969e-01,-9.473859476370000365e+00,2.226791717109999694e-02,9.646560065450001525e-03,1.041975058620000019e-02,1.000000000000000000e+00
1.500086421000000003e+00,-2.538552847949999691e+00,2.814447691329999834e-01,-9.480067098839999318e+00,8.261610753829999251e-03,-2.194087486709999941e-03,-6.037294864649999510e-03,1.000000000000000000e+00
1.505207296000000028e+00,-2.623198631829999794e+00,2.558815262720000039e-01,-9.419566160650001407e+00,1.268375758079999874e-02,-5.888123996559999985e-04,8.948273956780000357e-03,1.000000000000000000e+00
1.510158392999999988e+00,-2.540005677099999915e+00,2.934416973270000395e-01,-9.468230530569998749e+00,1.242383942010000068e-02,1.970844808970000171e-03,-6.652181036770000305e-03,1.000000000000000000e+00
1.515150060999999937e+00,-2.585041042879999917e+00,2.852570939629999747e-01,-9.454836795989999487e+00,2.685241634030000480e-03,1.489483751359999822e-03,-2.999974880369999861e-03,1.000000000000000000e+00
1.520151531000000000e+00,-2.550808810669999982e+00,2.743555415250000240e-01,-9.469626368840000197e+00,-1.284639816730000000e-03,1.304020173849999853e-02,-7.150111719970000078e-03,1.000000000000000000e+00
1.525263223000000057e+00,-2.606957691129999866e+00,2.711587913099999803e-01,-9.426661087339999412e+00,-2.000821521509999965e-03,-3.504508174960000409e-03,1.736292615529999930e-02,1.000000000000000000e+00
1.530146921999999909e+00,-2.521551151999999796e+00,3.112513669190000165e-01,-9.463031208360000335e+00,1.967515610159999845e-02,-1.269790809600000042e-02,3.487308742479999953e-03,1.000000000000000000e+00
1.535065002999999928e+00,-2.560148593680000140e+00,2.769899634149999845e-01,-9.450985965780001052e+00,2.277244068680000025e-02,-9.538349695500001127e-03,-9.275465272369999917e-03,1.000000000000000000e+00
1.540225391000000110e+00,-2.555620302599999949e+00,3.044728126949999836e-01,-9.429057627089999727e+00,5.818431265649999171e-03,1.527365297079999983e-02,-1.493599265810000021e-02,1.000000000000000000e+00
1.545268839000000005e+00,-2.580339733320000217e+00,2.935368282640000159e-01,-9.450793658080000270e+00,5.984978750350000189e-03,-2.028363291170000044e-03,-2.016229322180000151e-03,1.000000000000000000e+00
1.550100140000000071e+00,-2.563162680809999650e+00,2.733415421770000187e-01,-9.453797516070000739e+00,8.143343031410000404e-03,6.567541509870000044e-03,-5.344378761949999945e-03,1.000000000000000000e+00
1.555120929999999957e+00,-2.535446406359999738e+00,2.659209454560000352e-01,-9.473733219639999703e+00,1.253694668409999907e-02,-1.803533360359999699e-02,-7.032913155850001319e-03,1.000000000000000000e+00
1.560101474999999960e+00,-2.605610952700000205e+00,2.567132095890000132e-01,-9.453495318250000778e+00,1.280499156560000081e-02,-3.010289045050000382e-03,8.094519376750000661e-03,1.000000000000000000e+00
1.565225934999999957e+00,-2.523068278569999823e+00,2.649906240689999803e-01,-9.442783370099999019e+00,1.456685084850000041e-02,-2.071014372630000135e-03,1.350908307360000138e-03,1.000000000000000000e+00
1.570156236000000094e+00,-2.602056475089999932e+00,2.804892950400000307e-01,-9.464906939109999584e+00,-2.988151507450000077e-03,-6.149599328640001014e-03,2.644620137289999985e-03,1.000000000000000000e+00
1.575261883000000029e+00,-2.565849435670000123e+00,2.569470183450000000e-01,-9.424974741689998936e+00,7.824965752659999996e-03,9.142523631450001284e-03,-6.276292260740000059e-04,1.000000000000000000e+00
1.580090846999999910e+00,-2.552576697120000127e+00,2.567498152730000038e-01,-9.435389168200000398e+00,-1.202562078830000068e-02,-5.715782288460000658e-03,4.566822201010000207e-03,1.000000000000000000e+00
1.585066743999999916e+00,-2.560248546930000035e+00,2.590438262279999848e-01,-9.465022089919999715e+00,9.472827427090000155e-03,-7.941530086100000857e-03,-1.075191423299999907e-02,1.000000000000000000e+00
1.590272571000000079e+00,-2.588087278700000216e+00,2.436082836219999881e-01,-9.452446101459999639e+00,7.077219430360000285e-03,3.667008131739999365e-03,-3.951916005459999511e-04,1.000000000000000000e+00
1.595022632000000051e+00,-2.552412738729999742e+00,3.208385853560000167e-01,-9.454755547450000464e+00,1.591277308759999828e-02,-2.376202261080000069e-03,1.555204158650000173e-03,1.000000000000000000e+00
1.600257774999999993e+00,-2.557583419370000222e+00,2.354626057629999880e-01,-9.432070837430000410e+00,5.060026422140000493e-03,2.023574337359999864e-02,-4.286153241989999231e-03,1.000000000000000000e+00
1.605256876999999971e+00,-2.574287009149999861e+00,2.447219987510000083e-01,-9.464172779610001029e+00,4.077792982569999761e-04,2.715910319239999652e-03,-4.633581265810000210e-03,1.000000000000000000e+00
1.610087027000000059e+00,-2.587211957170000076e+00,2.400504998080000008e-01,-9.455683183689998828e+00,-1.347768213599999897e-02,7.425522431729999345e-03,-2.481620758770000093e-04,1.000000000000000000e+00
1.615161936000000020e+00,-2.537669050849999941e+00,2.495264764229999932e-01,-9.449367424669999238e+00,-2.651068149130000363e-03,1.691258978100000036e-03,-7.614409551020000395e-03,1.000000000000000000e+00
1.620136602999999953e+00,-2.620866389499999727e+00,3.041897031709999699e-01,-9.465752742280001186e+00,-1.604482904079999883e-02,1.684757880870000127e-02,1.505607645960000025e-02,1.000000000000000000e+00
1.625223716999999901e+00,-2.550057992299999743e+00,2.782824874439999707e-01,-9.443525128380001021e+00,-8.899243548510000915e-04,-5.927032791079999731e-03,-8.320062421260000438e-03,1.000000000000000000e+00
1.630124278000000038e+00,-2.542603000119999734e+00,2.668283426240000145e-01,-9.495943882409999759e+00,1.202298142020000182e-02,4.968775436279999902e-03,6.428289227189998810e-03,1.000000000000000000e+00
1.635105805000000023e+00,-2.511775023400000251e+00,2.683707680269999951e-01,-9.462069669850000864e+00,1.311830244959999968e-02,4.716158844529999561e-03,-3.021723823619999923e-03,1.000000000000000000e+00
1.640233245999999978e+00,-2.531607851109999530e+00,2.994893799930000156e-01,-9.436310374699999670e+00,3.867286723109999991e-03,2.879579551519999975e-03,2.202656352890000092e-03,1.000000000000000000e+00
1.645154267999999975e+00,-2.517773679290000288e+00,3.266731367290000021e-01,-9.462342057060000755e+00,-3.666640957820000053e-03,5.988359451289999684e-03,-6.760258227589999690e-03,1.000000000000000000e+00
1.650040082000000075e+00,-2.559651165550000051e+00,3.335469314880000202e-01,-9.496706683470000243e+00,7.546918001030000420e-03,-5.555334500970000172e-04,7.561303209510000832e-04,1.000000000000000000e+00
1.655132298999999918e+00,-2.521847504600000178e+00,2.647304204970000185e-01,-9.470390923480000112e+00,-2.403276041150000271e-03,-2.340882085260000307e-03,-3.600972006099999873e-03,1.000000000000000000e+00
1.660209100000000104e+00,-2.546031805520000191e+00,2.575322891540000048e-01,-9.481948674799999921e+00,1.793118566270000130e-02,3.030110150579999780e-03,-1.192605937829999867e-03,1.000000000000000000e+00
1.665082817999999909e+00,-2.542441672079999826e+00,2.449145439150000048e-01,-9.435966675830000483e+00,-1.960098743440000235e-02,-2.990015596150000232e-02,-1.040835306049999950e-02,1.000000000000000000e+00
1.670096546999999987e+00,-2.574557350520000121e+00,2.447632075439999944e-01,-9.450488537649999188e+00,2.316178288309999906e-03,-6.835338659579999823e-03,3.822955768559999773e-04,1.000000000000000000e+00
1.675074581000000062e+00,-2.534284961370000033e+00,2.554962898140000216e-01,-9.444781850449999183e+00,1.260122284289999983e-03,1.611205283549999772e-03,-6.213580258189999560e-03,1.000000000000000000e+00
1.680024755000000036e+00,-2.525148299709999655e+00,2.730801147620000036e-01,-9.469156413250001236e+00,3.368631238119999816e-03,-5.452451296150000008e-03,-1.064708270129999766e-02,1.000000000000000000e+00
1.685048048999999937e+00,-2.620454593819999900e+00,2.698983794529999924e-01,-9.447248532819999767e+00,8.278023451570000815e-03,6.478915922339999536e-03,5.456081591549999735e-03,1.000000000000000000e+00
1.690038342000000027e+00,-2.522103817450000118e+00,2.600737903300000542e-01,-9.456215098610000425e+00,1.962490379810000185e-03,-1.316202245649999991e-02,4.262256436049999785e-03,1.000000000000000000e+00
1.695229549000000002e+00,-2.548404087609999813e+00,2.350395945779999995e-01,-9.472058564430000160e+00,1.988735748450000049e-03,3.609412815419999854e-04,4.658394493159999546e-03,1.000000000000000000e+00
1.700114947000000098e+00,-2.501610772259999838e+00,2.350648020839999908e-01,-9.465181079869999792e+00,3.020124277099999529e-04,-6.033898331219999557e-03,-1.391288079319999947e-02,1.000000000000000000e+00
1.705186614000000045e+00,-2.539595050479999561e+00,2.373483647100000093e-01,-9.469266887879999928e+00,-4.971439018850000793e-03,-9.919639676809999598e-03,-4.564203787600000159e-03,1.000000000000000000e+00
1.710119267999999915e+00,-2.538530343849999760e+00,2.466960753030000009e-01,-9.495126136279999685e+00,6.822176743300000651e-03,-1.047697663310000020e-02,-3.648860380050000449e-03,1.000000000000000000e+00
1.715207469000000096e+00,-2.534454472720000240e+00,2.300975167990000070e-01,-9.487911382600000110e+00,1.011956203730000024e-02,6.059468723829999556e-03,-3.717015031729999867e-03,1.000000000000000000e+00
1.720154404999999942e+00,-2.565273681609999912e+00,2.589784876400000324e-01,-9.466633616769998483e+00,-8.199774660170000215e-03,6.398121826350001116e-03,-9.156082756820000182e-03,1.000000000000000000e+00
1.725264684000000104e+00,-2.570311968040000394e+00,2.672754470709999830e-01,-9.459115496219999031e+00,4.002728033810000474e-03,8.520892821250000693e-03,1.474289456380000135e-03,1.000000000000000000e+00
1.730078749000000027e+00,-2.523025316210000035e+00,2.326699611030000059e-01,-9.463056927330001145e+00,1.836397685110000011e-02,-6.473418325189998941e-03,-1.315831323149999977e-03,1.000000000000000000e+00
1.735175365999999997e+00,-2.554950440520000310e+00,2.458598436740000170e-01,-9.470146593329999973e+00,3.851203364319999607e-04,1.015635300429999950e-02,-1.152012124660000032e-02,1.000000000000000000e+00
1.740074259000000012e+00,-2.590418644260000125e+00,2.622405399100000145e-01,-9.494617017719999552e+00,-5.600884556770000314e-03,1.993282232430000026e-03,4.999222233890000464e-03,1.000000000000000000e+00
1.745112400000000008e+00,-2.564002346500000140e+00,2.674623296790000215e-01,-9.445437684010000723e+00,-1.186245703140000052e-03,3.625872544939999845e-03,2.672093687579999832e-03,1.000000000000000000e+00
1.750088579999999894e+00,-2.549676591769999945e+00,2.743715610779999814e-01,-9.462818442399999697e+00,1.089742966000000098e-02,-1.322432234879999946e-02,4.053534939890000161e-03,1.000000000000000000e+00
1.755124600000000035e+00,-2.534143214809999822e+00,2.588007381870000012e-01,-9.471328496589999091e+00,1.667853258549999856e-02,9.037882555280000053e-04,2.255671890449999651e-03,1.000000000000000000e+00
1.760161456999999929e+00,-2.534841426209999860e+00,2.662613381250000244e-01,-9.429916874269999028e+00,5.726708564910000347e-03,-1.598095893859999977e-02,5.814538337289999054e-03,1.000000000000000000e+00
1.765277259999999959e+00,-2.554379362629999761e+00,2.782893007769999816e-01,-9.427873385739998113e+00,6.004196475260000897e-04,-4.606527276340000379e-03,2.964968094600000260e-03,1.000000000000000000e+00
1.770102416000000067e+00,-2.527230074419999806e+00,2.507662290850000142e-01,-9.435621807909999603e+00,4.400612786409999547e-03,-2.233585575599999692e-03,6.651738658549999448e-05,1.000000000000000000e+00
1.775071483999999922e+00,-2.538539403940000216e+00,2.243581328970000177e-01,-9.462888585019999965e+00,1.535422634329999987e-02,-7.474055048079999465e-03,3.288238542149999992e-03,1.000000000000000000e+00
1.780240808000000063e+00,-2.584896081450000160e+00,2.268699513210000185e-01,-9.475265836040000167e+00,9.228742681440001497e-03,1.371346227820000215e-02,-4.011442884800000240e-03,1.000000000000000000e+00
1.784999769999999986e+00,-2.573390060309999949e+00,2.531473520679999867e-01,-9.446765133219999555e+00,8.645346388219999484e-03,2.973822876810000137e-03,2.598604420199999814e-03,1.000000000000000000e+00
1.790261855000000013e+00,-2.557660284000000228e+00,2.661880536930000263e-01,-9.452758820669998840e+00,7.073441054670000054e-03,-9.165482595559999723e-03,6.692297756670000032e-05,1.000000000000000000e+00
1.795179454999999979e+00,-2.550099201090000101e+00,2.782572616710000113e-01,-9.441488069600000088e+00,-4.539794754240000091e-03,1.898712012920000022e-03,-1.718425936999999973e-02,1.000000000000000000e+00
1.800101061999999974e+00,-2.565605397780000185e+00,2.615417257239999738e-01,-9.428478365900000213e+00,1.391965337099999866e-02,1.891894266010000006e-02,-1.634180080149999969e-03,1.000000000000000000e+00
1.805081119000000012e+00,-2.545279233590000079e+00,2.398269201859999922e-01,-9.465183417960000511e+00,4.589195828880000133e-03,1.170692034069999946e-03,1.488136360419999981e-03,1.000000000000000000e+00
1.809922057000000084e+00,-2.526669225670000074e+00,2.241139488780000133e-01,-9.488145191350000118e+00,-5.524917040020000183e-03,7.895061280580000082e-04,2.280549844729999696e-03,1.000000000000000000e+00
1.814987931000000110e+00,-2.566297179440000242e+00,2.635835154839999972e-01,-9.482314585499999282e+00,-3.759576939049999803e-04,-1.610120409170000006e-03,-1.809950917959999846e-04,1.000000000000000000e+00
1.819903575999999967e+00,-2.591165955500000173e+00,2.912085679799999993e-01,-9.454847317389999617e+00,-7.219209335739999907e-03,-5.515250377359999338e-03,6.033275276420000006e-03,1.000000000000000000e+00
1.825020400000000098e+00,-2.564832075320000015e+00,2.910446461219999836e-01,-9.472808506010000684e+00,-1.212373282760000059e-02,1.273319125180000060e-02,1.430627889929999995e-05,1.000000000000000000e+00
1.829922244999999892e+00,-2.573082017269999966e+00,2.696553462110000132e-01,-9.466924708669999688e+00,1.235293317589999940e-02,-4.101457539949999835e-03,2.303767250850000028e-03,1.000000000000000000e+00
1.835042346999999907e+00,-2.596253926290000180e+00,2.540891812290000384e-01,-9.488770629780001187e+00,-1.336834952239999985e-02,6.266535259780000623e-03,4.048112779859999906e-03,1.000000000000000000e+00
1.840077149999999939e+00,-2.567814013740000068e+00,2.696209507510000103e-01,-9.469414771919998586e+00,6.632281467319998958e-03,2.024848014119999973e-03,5.478701554240000132e-03,1.000000000000000000e+00
1.845045623999999940e+00,-2.537341426329999816e+00,2.643670305440000146e-01,-9.509924476960000206e+00,9.789865463969999598e-03,9.255737997590000182e-03,1.201518625020000196e-02,1.000000000000000000e+00
1.849968009999999996e+00,-2.536338386770000231e+00,3.257428336089999710e-01,-9.435848017879999716e+00,1.252660434690000026e-02,7.640424184500000174e-03,8.278680965299999722e-03,1.000000000000000000e+00
1.855200434999999981e+00,-2.555658881049999831e+00,2.896110879219999656e-01,-9.493598780580001062e+00,1.753624528649999972e-02,-1.273167785259999999e-03,6.692317314449999603e-03,1.000000000000000000e+00
1.860122524999999971e+00,-2.556762166109999512e+00,2.865049203339999906e-01,-9.446602051610000217e+00,1.072593685239999969e-02,-1.991366036240000206e-02,-2.221332397309999911e-03,1.000000000000000000e+00
1.865101349999999991e+00,-2.529802263000000107e+00,2.684521809659999869e-01,-9.462563590850001205e+00,1.050292514260000015e-03,1.213240530340000019e-02,-1.467966567720000240e-02,1.000000000000000000e+00
1.870115044000000060e+00,-2.623788414419999881e+00,2.471959511160000122e-01,-9.460125550049999887e+00,1.027520932260000096e-02,1.494594290849999944e-02,1.699539599940000150e-03,1.000000000000000000e+00
1.875112783999999921e+00,-2.587956638060000092e+00,2.449719183909999931e-01,-9.442215214830000036e+00,-9.646361577320000397e-04,2.285356167699999826e-03,-1.859187614169999843e-04,1.000000000000000000e+00
1.880107645000000050e+00,-2.544988726209999719e+00,2.271621757330000158e-01,-9.420672660580001079e+00,-8.169524371619999586e-03,5.363696254790000558e-04,-2.133671427150000445e-03,1.000000000000000000e+00
1.885134445999999908e+00,-2.518658937690000155e+00,2.410139562790000189e-01,-9.458525129119999875e+00,1.160694472490000038e-02,8.794639259579999785e-03,-4.023096524180000064e-03,1.000000000000000000e+00
1.890131395000000047e+00,-2.540488492180000168e+00,2.423764220050000084e-01,-9.440503734730000929e+00,-7.380013121290000117e-04,1.886780839410000287e-03,2.812866354359999915e-03,1.000000000000000000e+00
1.895129191000000102e+00,-2.517679571259999971e+00,2.199891788309999985e-01,-9.416440722100000826e+00,-3.418411826710000042e-03,-4.893126897510000160e-04,-2.741028089080000275e-03,1.000000000000000000e+00
1.899963834000000018e+00,-2.563495566019999838e+00,2.258203509369999806e-01,-9.445222579950000252e+00,-8.517058566209999987e-03,-2.137125236910000000e-03,-3.839162643999999725e-03,1.000000000000000000e+00
1.905241191000000001e+00,-2.586202780129999823e+00,2.721166217579999991e-01,-9.457401678039998316e+00,7.227499503640000440e-03,7.071425206959999592e-03,5.174997262660000277e-03,1.000000000000000000e+00
1.910192818999999931e+00,-2.555691614270000134e+00,2.518983749200000011e-01,-9.451666349260001709e+00,4.104426130649999928e-03,1.170316431670000157e-02,5.185516551140000215e-03,1.000000000000000000e+00
1.915094132999999976e+00,-2.594586285330000131e+00,2.986554864520000185e-01,-9.417998472939999033e+00,7.322966586800000281e-03,5.163837224249999761e-03,1.447886694220000200e-02,1.000000000000000000e+00
1.920123430000000075e+00,-2.526149001190000298e+00,3.031755942250000113e-01,-9.432096556399999443e+00,1.716931583359999946e-03,3.939858637749999587e-03,5.365546792749999877e-03,1.000000000000000000e+00
1.925218537999999979e+00,-2.515175771750000067e+00,2.598112304040000042e-01,-9.477154426260000264e+00,4.579123575239999779e-03,7.562234066430000533e-03,1.219964586199999944e-02,1.000000000000000000e+00
1.930026875999999891e+00,-2.523331313419999944e+00,2.504636476749999563e-01,-9.473579490380000578e+00,-3.092009108510000628e-03,1.109391823409999929e-02,3.597797127440000194e-03,1.000000000000000000e+00
1.935092487999999999e+00,-2.537739778000000168e+00,2.768591949089999615e-01,-9.449752040069999026e+00,1.018972229210000045e-02,-8.596807718280001162e-03,-4.580710083249999766e-04,1.000000000000000000e+00
1.939961886000000080e+00,-2.510664431809999986e+00,2.684727853630000105e-01,-9.451264782719999147e+00,1.155747473239999989e-02,9.927236475049998343e-03,-1.167720369989999965e-02,1.000000000000000000e+00
1.945049272000000107e+00,-2.594421450159999587e+00,2.342835703119999780e-01,-9.430869060430000062e+00,5.042431410399999571e-03,9.098434820770001305e-03,1.253382535649999983e-03,1.000000000000000000e+00
1.950006247999999998e+00,-2.590412799040000102e+00,2.433984767959999906e-01,-9.470756249660000847e+00,1.030521001669999943e-02,1.156482286749999956e-02,2.009259536859999903e-02,1.000000000000000000e+00
1.955012941999999976e+00,-2.498021223329999874e+00,2.400045783069999772e-01,-9.442661205029999394e+00,4.207807942289999974e-04,9.125291835519999109e-04,1.593305962160000049e-03,1.000000000000000000e+00
1.960010766999999987e+00,-2.558352065649999840e+00,2.271002712119999933e-01,-9.427829546599999944e+00,-1.080113230269999849e-03,8.820391260090000227e-03,6.449539214370000710e-03,1.000000000000000000e+00
1.965022089000000083e+00,-2.575077575009999897e+00,2.413327216389999919e-01,-9.444958376060000660e+00,2.688196673989999910e-02,5.205873399970000447e-03,4.675801843399999408e-03,1.000000000000000000e+00
1.969960351000000109e+00,-2.520331839340000268e+00,2.741529316250000403e-01,-9.475163544709999996e+00,2.288635354490000089e-03,1.396832242610000080e-02,-1.601636759010000065e-03,1.000000000000000000e+00
1.975197066000000001e+00,-2.564236739779999663e+00,2.515514063789999755e-01,-9.487273084689999081e+00,-9.760216809809998950e-03,4.805095493789999887e-03,-3.394761588420000054e-04,1.000000000000000000e+00
1.980027516999999904e+00,-2.532942314590000077e+00,3.187251368660000139e-01,-9.413608713549999507e+00,1.118993386629999788e-02,2.924830280240000094e-02,-3.998531028629999894e-03,1.000000000000000000e+00
1.985078573000000013e+00,-2.553410225339999950e+00,2.919296305300000394e-01,-9.486163662150000064e+00,-3.714384045449999928e-03,1.445075683299999920e-02,2.449625870209999959e-03,1.000000000000000000e+00
1.990084747000000043e+00,-2.556438925510000182e+00,2.505479466919999787e-01,-9.467255548060000692e+00,-5.189842544499999842e-03,-1.793781877500000115e-03,-2.074104966599999919e-03,1.000000000000000000e+00
1.995021313000000074e+00,-2.492071082759999889e+00,2.347386206029999922e-01,-9.477579958199999766e+00,1.297658868129999803e-02,7.736057043080000681e-03,-2.957277698439999755e-03,1.000000000000000000e+00
2.000116352000000042e+00,-2.525792735090000019e+00,2.195491617130000128e-01,-9.468699901649999973e+00,-3.141789697110000234e-03,-2.806291915479999788e-03,-1.482195314020000147e-02,1.000000000000000000e+00
2.005231404999999967e+00,-2.550345284809999669e+00,2.423570414510000104e-01,-9.441649397639999108e+00,2.044857945290000107e-03,-3.293358255180000096e-03,-1.028276979920000021e-02,1.000000000000000000e+00
2.010217277000000191e+00,-2.588261466230000085e+00,2.563370332209999880e-01,-9.478545003839998984e+00,7.047289051119999710e-03,-1.161433523520000047e-03,9.991752915079999200e-03,1.000000000000000000e+00
2.015120238999999813e+00,-2.494319446200000012e+00,2.327271894489999771e-01,-9.446925876739998174e+00,1.159329153599999995e-02,1.606792677189999938e-03,-4.360102117059999963e-03,1.000000000000000000e+00
2.020101855000000057e+00,-2.543910867849999757e+00,2.454756301300000110e-01,-9.489685406530000478e+00,1.845822110770000204e-02,3.354753367599999734e-03,1.737231621520000067e-03,1.000000000000000000e+00
2.025211660000000080e+00,-2.570137780520000081e+00,2.374125159880000058e-01,-9.468682365990000349e+00,7.177723106000000013e-03,-7.771476171910000376e-03,9.578885510559999317e-03,1.000000000000000000e+00
2.030199506999999848e+00,-2.533673843729999930e+00,2.360569183940000038e-01,-9.479965392030001325e+00,7.156675681470000584e-03,-2.553395228460000020e-03,8.562767878170000901e-03,1.000000000000000000e+00
2.035119150999999960e+00,-2.518516022090000028e+00,2.267115276230000087e-01,-9.456317389939998819e+00,7.224578410390000358e-03,1.342274062339999900e-02,4.656619392339999761e-03,1.000000000000000000e+00
2.040161826999999928e+00,-2.544325878390000018e+00,2.482980123400000128e-01,-9.447329196839998389e+00,8.001733571290000138e-03,1.530685275789999897e-02,6.943801417950000335e-05,1.000000000000000000e+00
2.045529740000000096e+00,-2.501721831420000264e+00,2.276487171409999899e-01,-9.476073060770000112e+00,2.283809240909999774e-03,-8.236883208160000053e-03,-8.311150595549999295e-04,1.000000000000000000e+00
2.049904646999999969e+00,-2.516575701679999888e+00,2.326860719880000095e-01,-9.449466793390000063e+00,4.206614103170000334e-03,-1.529657561329999908e-02,-1.113074715249999990e-03,1.000000000000000000e+00
2.055114764999999899e+00,-2.536448861399999810e+00,2.350040848730000076e-01,-9.464432891849998697e+00,-8.304377086460000557e-03,-1.188763882960000053e-02,-1.025211648080000086e-03,1.000000000000000000e+00
2.060055938000000086e+00,-2.580770233690000026e+00,2.623436897570000093e-01,-9.475907056549999652e+00,4.679287783800000454e-03,5.472144111989999705e-03,1.027943287040000014e-02,1.000000000000000000e+00
2.065060279999999970e+00,-2.532648592340000171e+00,2.517035282010000041e-01,-9.466422604369999050e+00,-8.053552592169999731e-04,1.755896769459999729e-02,-5.845171399409999783e-04,1.000000000000000000e+00
2.070086109000000008e+00,-2.496643797499999984e+00,2.740459093199999474e-01,-9.476340771789999451e+00,1.320995204149999838e-02,3.379922360180000022e-03,-5.235978402199999507e-03,1.000000000000000000e+00
2.075133035999999986e+00,-2.558292444420000145e+00,2.932983250670000430e-01,-9.463651970610001740e+00,5.150087177749999856e-03,-2.701034536590000024e-03,5.859774537379999759e-03,1.000000000000000000e+00
2.080146909999999849e+00,-2.509140290980000021e+00,2.454894942579999850e-01,-9.482893846699999685e+00,-3.331291023639999793e-03,-8.689288515599998550e-04,6.245644763109999519e-04,1.000000000000000000e+00
2.085107963000000009e+00,-2.550468326669999897e+00,2.219427423180000136e-01,-9.465281033119998355e+00,-1.767781097440000249e-03,-2.994965296239999585e-03,3.481264458969999566e-03,1.000000000000000000e+00
2.090306326999999964e+00,-2.580888014850000189e+00,2.302569634109999930e-01,-9.472117016619998608e+00,1.910342462359999882e-02,-2.272799145429999900e-03,1.519752200689999770e-02,1.000000000000000000e+00
2.095180758000000143e+00,-2.471683543770000213e+00,2.422068010589999987e-01,-9.448381920760001051e+00,1.530302222819999959e-03,-4.865340888500000577e-04,-7.283428683880001017e-03,1.000000000000000000e+00
2.100198549999999997e+00,-2.594194071150000003e+00,2.921640238070000173e-01,-9.472138059400000643e+00,-6.373317912219999930e-03,1.064575277269999825e-03,3.794275457039999761e-03,1.000000000000000000e+00
2.105123997999999830e+00,-2.510387660690000189e+00,2.084790477739999759e-01,-9.494817508720000632e+00,-2.648412482810000041e-03,3.911401145159999586e-03,3.754141973330000267e-03,1.000000000000000000e+00
2.110145864000000149e+00,-2.548689918820000067e+00,2.492089531729999863e-01,-9.477313416219999453e+00,1.359507348389999912e-02,-3.281858051199999880e-03,4.081467166539999754e-03,1.000000000000000000e+00
2.115294185000000216e+00,-2.501916477199999989e+00,2.323822850020000053e-01,-9.479634552639998546e+00,9.383550845090000633e-03,1.560133416210000065e-03,2.380640478800000355e-03,1.000000000000000000e+00
2.120155894999999902e+00,-2.487521748890000328e+00,2.502801443350000099e-01,-9.468193121169999671e+00,-5.873453803359999885e-03,1.272198371589999821e-02,-3.952374681830000155e-04,1.000000000000000000e+00
2.125249681000000113e+00,-2.570713242320000091e+00,2.267071802409999781e-01,-9.471949843360000898e+00,-6.828798912470001106e-03,-2.384197665380000455e-03,3.662685165180000046e-03,1.000000000000000000e+00
2.130084182000000048e+00,-2.519492173640000221e+00,3.088473379850000256e-01,-9.463107780730000584e+00,6.509790197010000869e-03,3.829828929159999774e-03,-1.648529060180000186e-02,1.000000000000000000e+00
2.135142135000000163e+00,-2.579325880099999857e+00,2.952300603149999869e-01,-9.518326394610001628e+00,-4.635666962710000352e-03,9.043738245959999714e-03,1.613105880099999700e-03,1.000000000000000000e+00
2.140168431999999843e+00,-2.446296589050000136e+00,2.278871655400000196e-01,-9.423003733879999899e+00,-8.448425680399999221e-03,5.965444259350000979e-03,3.928966820239999935e-03,1.000000000000000000e+00
2.145239163999999921e+00,-2.722080738609999884e+00,3.204713229460000035e-01,-9.422767587039999171e+00,-8.978831581769999848e-03,1.037647575139999910e-02,6.089480593800000036e-03,1.000000000000000000e+00
2.150052824999999945e+00,-2.534084178100000084e+00,1.909743342110000186e-01,-9.468726205130000295e+00,-2.085356507450000004e-03,9.437405504289999789e-03,2.163599478080000058e-03,1.000000000000000000e+00
2.155192416000000222e+00,-2.498578564949999858e+00,3.069598072049999904e-01,-9.518550266489999245e+00,-7.903913035989999433e-03,1.408182550219999997e-03,2.369472524149999950e-03,1.000000000000000000e+00
2.160206941000000214e+00,-2.690665025129999943e+00,2.116827574529999978e-01,-9.344680723270000655e+00,-3.076866501939999696e-03,4.897781647740000015e-03,-7.392643019560000278e-03,1.000000000000000000e+00
2.165191480999999918e+00,-2.702007087870000213e+00,2.770439768910000211e-01,-9.480562773400000864e+00,-1.271454524249999996e-02,2.777387574320000149e-02,-6.528219673780000145e-04,1.000000000000000000e+00
2.169951961999999845e+00,-2.504810737340000149e+00,3.252841665879999677e-01,-9.472667051709999342e+00,-3.584705991670000553e-03,2.502812538300000153e-03,-9.254271164540001093e-03,1.000000000000000000e+00
2.175199893999999912e+00,-2.464266253249999927e+00,2.832215147489999807e-01,-9.492366608439999354e+00,3.446097485719999340e-03,-1.323087792839999950e-02,-1.689215539949999846e-03,1.000000000000000000e+00
2.180129911999999948e+00,-2.461690265280000123e+00,3.371904025570000019e-01,-9.442578202920000052e+00,7.027511950580000305e-03,3.562903031709999720e-03,3.246999578550000421e-03,1.000000000000000000e+00
2.185064067999999970e+00,-2.550641637410000051e+00,2.767732519249999634e-01,-9.464793541860000659e+00,3.000281518330000056e-03,2.405316010120000375e-02,-9.212982840839999826e-03,1.000000000000000000e+00
2.190154499000000143e+00,-2.512179512539999937e+00,2.409210720980000109e-01,-9.449105558860001253e+00,9.987297467890000197e-03,1.928970776500000053e-02,1.756090437990000036e-03,1.000000000000000000e+00
2.195266383999999960e+00,-2.446155719280000085e+00,2.770396843090000005e-01,-9.535335397069999885e+00,6.743757985530000020e-03,2.120791189370000232e-02,-1.954065449540000332e-02,1.000000000000000000e+00
2.200094417999999941e+00,-2.517160808090000312e+00,2.214600916340000170e-01,-9.501265954209999975e+00,8.912255056200000386e-03,-9.549312293530001425e-03,-9.319334290920000194e-03,1.000000000000000000e+00
2.205183864999999965e+00,-2.594823308960000130e+00,2.391809869650000087e-01,-9.416373502080000790e+00,-4.259781446310000053e-03,4.589108750220000435e-03,-6.818342953920000088e-03,1.000000000000000000e+00
2.210267677000000042e+00,-2.788601375479999867e+00,2.443417672619999925e-01,-9.567252045820000106e+00,-8.703078492539998746e-04,4.044944886120000263e-03,2.049925737079999824e-02,1.000000000000000000e+00
2.215100517999999852e+00,-2.411081629419999928e+00,3.897722747199999782e-01,-9.548193709599999579e+00,3.178950771690000621e-02,1.009788177910000105e-02,4.188654012979999876e-03,1.000000000000000000e+00
2.220214208999999883e+00,-2.337072974879999876e+00,3.006791195010000139e-01,-9.506558215400000122e+00,7.552440743890000488e-03,-8.025269955399998503e-03,-1.576051674780000120e-02,1.000000000000000000e+00
2.225270274000000104e+00,-2.362165184429999787e+00,2.959371674040000011e-01,-9.631341948410000242e+00,-5.679281894119999827e-03,1.504716090860000119e-02,-9.710088372230000694e-03,1.000000000000000000e+00
2.230063322999999986e+00,-2.459520227760000122e+00,2.775077767440000120e-01,-9.328838426489999947e+00,6.494226399809999856e-03,-4.472661763429999944e-03,-5.601426586509999916e-03,1.000000000000000000e+00
2.235122136000000204e+00,-2.505368955749999849e+00,1.580764376129999982e-01,-9.410794240650000475e+00,-1.166124828160000106e-02,1.184281427409999976e-02,-1.093624532220000174e-02,1.000000000000000000e+00
2.240208508999999903e+00,-2.603530639290000170e+00,1.663929785269999961e-01,-9.433213577729999244e+00,4.897167906170000161e-03,-3.620713017879999794e-03,7.582450285549999572e-03,1.000000000000000000e+00
2.245232575999999813e+00,-2.491338969090000077e+00,2.299943669520000122e-01,-9.479685990569999277e+00,5.493714939800000210e-03,3.631007391959999945e-03,1.689212629569999914e-03,1.000000000000000000e+00
2.250112237000000182e+00,-2.324756221879999973e+00,1.945634082119999941e-01,-9.525562191080000574e+00,1.848059473559999794e-03,1.379656977949999912e-02,-1.262772642079999959e-02,1.000000000000000000e+00
2.255177938000000104e+00,-2.579519649109999868e+00,2.492055008400000382e-01,-9.476225036460000695e+00,2.318318188190000156e-02,1.330540701749999971e-02,5.253209732470000455e-03,1.000000000000000000e+00
2.260090879999999913e+00,-2.589598852309999977e+00,3.187372656949999938e-01,-9.439158749869999809e+00,6.031756638550000082e-04,-2.932370640340000324e-03,-2.827788470310000062e-03,1.000000000000000000e+00
2.265072146000000064e+00,-2.599048233180000000e+00,1.382286497890000132e-01,-9.412270158420000143e+00,-1.491047150919999923e-04,1.782055944199999881e-02,-1.546586304900000181e-02,1.000000000000000000e+00
2.269990539999999779e+00,-2.515589320990000211e+00,1.303585648670000097e-01,-9.440082294450000688e+00,9.330038912590000663e-03,2.024092897770000260e-02,-6.051005329939999726e-04,1.000000000000000000e+00
2.275130360999999990e+00,-2.511068920950000116e+00,2.248757270300000277e-01,-9.512481175710000514e+00,-7.588068023320000341e-03,9.826412424450000835e-04,1.445413660260000052e-02,1.000000000000000000e+00
2.280206058000000091e+00,-2.456741702959999607e+00,2.812840986790000053e-01,-9.456677455419999490e+00,8.559968322519999687e-03,1.817765645679999967e-03,-6.939927116039999472e-04,1.000000000000000000e+00
2.285100127000000203e+00,-2.540837159490000108e+00,2.743211095320000070e-01,-9.465333640089999889e+00,3.459141124040000272e-03,1.696423813700000116e-02,-8.414935320619999423e-03,1.000000000000000000e+00
2.290049894000000030e+00,-2.541916771420000387e+00,1.657222944569999856e-01,-9.483998593069999927e+00,-3.688326687549999807e-04,-5.163492634890000377e-03,1.155475899579999979e-02,1.000000000000000000e+00
2.295077668999999876e+00,-2.492558866270000006e+00,2.277302396789999961e-01,-9.465424825499999528e+00,1.626175362619999886e-03,5.475026555359999332e-03,7.505551911890000205e-03,1.000000000000000000e+00
2.300066349000000177e+00,-2.501826460830000265e+00,2.111099625340000230e-01,-9.470631746489999614e+00,4.771031439300000253e-03,-9.521669708189997930e-04,-2.944319276139999685e-03,1.000000000000000000e+00
2.305222555999999923e+00,-2.525288292699999992e+00,2.240165529179999893e-01,-9.487675235750000269e+00,7.744575384999999833e-03,-9.245730936529999999e-03,2.920391736549999857e-03,1.000000000000000000e+00
2.310133501000000145e+00,-2.491304774559999657e+00,2.693330919870000062e-01,-9.468164479600000405e+00,-1.141457259649999827e-02,-7.550974842160000167e-04,-8.208598010239999063e-04,1.000000000000000000e+00
2.315009899000000093e+00,-2.542420629290000011e+00,2.847675751470000183e-01,-9.490777293420000760e+00,1.256318856029999854e-02,1.854537986219999962e-02,-2.193038817500000005e-03,1.000000000000000000e+00
2.320131869999999985e+00,-2.513489718359999792e+00,3.274760506089999801e-01,-9.490819963519999902e+00,2.129627158869999877e-03,1.430310867729999748e-02,-2.105358289550000178e-03,1.000000000000000000e+00
2.325612347999999940e+00,-2.497967447319999756e+00,2.467762461330000046e-01,-9.463220008929999594e+00,-2.510491991420000027e-03,7.877653464670000480e-03,-2.627731999380000100e-03,1.000000000000000000e+00
2.329902142999999981e+00,-2.430520050990000236e+00,2.667375773339999978e-01,-9.466451830460000494e+00,-1.000835187729999867e-02,8.428104221820000366e-03,-4.437252413479999408e-03,1.000000000000000000e+00
2.334923177999999933e+00,-2.503413145500000159e+00,2.407124525819999972e-01,-9.470749819919999979e+00,-1.112698810179999984e-03,1.134049892430000032e-02,5.077778361739999739e-03,1.000000000000000000e+00
2.339956797000000144e+00,-2.516267074119999947e+00,2.894998278329999897e-01,-9.497690433809999888e+00,-1.640914240849999711e-03,-3.530445974320000333e-04,-1.448303554210000031e-02,1.000000000000000000e+00
2.345038945999999846e+00,-2.579835583189999948e+00,2.289322906780000000e-01,-9.484279748099998741e+00,-3.322757256680000139e-04,7.594382390380000243e-03,9.377386886629999162e-04,1.000000000000000000e+00
2.349893955000000201e+00,-2.525256144000000091e+00,2.418514482829999812e-01,-9.488969367219999285e+00,7.552258204669999760e-03,3.885481506590000508e-03,6.321793422099999948e-03,1.000000000000000000e+00
2.354966935000000205e+00,-2.511418465040000214e+00,2.518043034279999759e-01,-9.434456855789999707e+00,1.227588020270000031e-02,1.381186395880000008e-02,9.692136198280000559e-03,1.000000000000000000e+00
2.359910897999999868e+00,-2.491099022849999844e+00,2.398521094259999931e-01,-9.447067331030000403e+00,1.352148409929999906e-02,2.353805117309999868e-03,-4.736801609399999766e-03,1.000000000000000000e+00
2.364925296000000010e+00,-2.538409055559999850e+00,2.123257132649999934e-01,-9.467098311670000044e+00,1.777969114479999863e-02,6.331285461779999520e-03,4.091765731569999703e-03,1.000000000000000000e+00
2.369744913999999980e+00,-2.505690150519999992e+00,2.243627360069999910e-01,-9.451614326810000577e+00,8.758034557099999423e-03,9.164119139309999384e-03,-4.861015826460000043e-03,1.000000000000000000e+00
2.374989200999999994e+00,-2.560306706850000058e+00,2.503570272289999954e-01,-9.477636656819999672e+00,2.456411346790000200e-02,1.093270815910000159e-02,6.891483440999999870e-03,1.000000000000000000e+00
2.379677017000000117e+00,-2.500525022849999779e+00,2.501219946309999886e-01,-9.493909746230000835e+00,-6.724738050250000411e-03,7.188751362259999944e-03,1.556784147400000051e-03,1.000000000000000000e+00
2.384857628999999868e+00,-2.511080611390000161e+00,2.433055926140000047e-01,-9.456880869039999027e+00,8.469805121419999444e-03,8.757887408139999452e-04,1.600173534829999822e-03,1.000000000000000000e+00
2.389872379999999907e+00,-2.506087625409999742e+00,2.263573073580000261e-01,-9.491324990429999886e+00,1.705456152560000035e-02,1.891071908180000025e-02,-1.372290542349999948e-03,1.000000000000000000e+00
2.394973564999999915e+00,-2.524406833690000074e+00,2.432688407999999691e-01,-9.477216385580000235e+00,1.804260537029999875e-02,7.983238436280000114e-03,-1.436860393729999866e-02,1.000000000000000000e+00
2.399842295000000014e+00,-2.539413848690000197e+00,2.443572753579999757e-01,-9.477993799700000110e+00,5.598528310660000513e-03,1.600626111029999910e-02,-6.284876260910000206e-03,1.000000000000000000e+00
2.404948963999999911e+00,-2.575565650779999771e+00,2.053968638500000277e-01,-9.457665881939998798e+00,8.517416194080000211e-03,-1.950119622050000101e-04,3.466054098679999598e-03,1.000000000000000000e+00
2.410084714999999989e+00,-2.528299164959999956e+00,2.431094672540000112e-01,-9.486228544079999381e+00,-8.905036374930000095e-03,-1.260418328459999996e-03,4.028537310659999898e-03,1.000000000000000000e+00
2.415086178000000139e+00,-2.524419985440000236e+00,2.526657790960000205e-01,-9.490444115949999926e+00,1.059744507070000015e-02,4.632437601689999573e-03,-8.294139988720000689e-03,1.000000000000000000e+00
2.420009106000000187e+00,-2.559865685090000120e+00,2.397270582739999822e-01,-9.469188561950000249e+00,1.474848482759999989e-02,-9.038386866450000973e-03,2.868273993949999739e-03,1.000000000000000000e+00
2.425057331000000094e+00,-2.534171856379999976e+00,2.216342426250000053e-01,-9.497712061119999660e+00,4.732393193989999948e-03,-1.563010737300000010e-03,1.351567683740000081e-03,1.000000000000000000e+00
2.429962238999999968e+00,-2.517744160929999975e+00,2.410929763319999974e-01,-9.452256131849999576e+00,1.271544303749999952e-02,1.184375677260000002e-02,-1.319444086399999827e-02,1.000000000000000000e+00
2.435043541999999839e+00,-2.502667295570000228e+00,2.182678349319999989e-01,-9.460494383360000370e+00,1.791671477259999812e-02,1.138381101190000071e-02,-1.366511639209999976e-02,1.000000000000000000e+00
2.440007496999999859e+00,-2.552533734759999895e+00,2.329966175079999924e-01,-9.423705744670000328e+00,1.686759106809999909e-02,5.872189998629999755e-03,-8.060785010460000052e-03,1.000000000000000000e+00
2.445035203000000212e+00,-2.522591600959999791e+00,1.790299399230000088e-01,-9.462335042789998596e+00,6.119071971629999780e-03,5.056387744840000302e-03,-2.971095032989999607e-03,1.000000000000000000e+00
2.450079398999999825e+00,-2.531860072309999765e+00,2.099090257790000025e-01,-9.475168805399999172e+00,-1.597669208420000138e-03,1.185503695160000127e-02,-2.070025308059999895e-03,1.000000000000000000e+00
2.455045264999999866e+00,-2.514018710669999823e+00,2.302487253049999849e-01,-9.459922720950000752e+00,6.716310512270000366e-03,-3.115113358940000202e-03,-8.247132413090000475e-03,1.000000000000000000e+00
2.460193952000000017e+00,-2.546616327409999769e+00,2.219575014959999926e-01,-9.461825924230000240e+00,1.471070013940000039e-02,1.039588823910000091e-02,-5.193906370550000276e-03,1.000000000000000000e+00
2.465129397000000111e+00,-2.537084236699999718e+00,2.276934878649999883e-01,-9.485760926570000251e+00,1.415217760950000141e-03,9.533804841340001029e-03,-6.378106772899998916e-03,1.000000000000000000e+00
2.469998508999999842e+00,-2.510157359069999927e+00,2.157320145770000031e-01,-9.476156647399999855e+00,1.453725062310000024e-02,2.725491765889999883e-03,-2.511125057940000031e-05,1.000000000000000000e+00
2.475074261000000053e+00,-2.474751406899999839e+00,2.346954573149999945e-01,-9.474579607339999043e+00,-3.750148462130000089e-03,3.411560505629999962e-02,3.050058148800000298e-05,1.000000000000000000e+00
2.480013957000000158e+00,-2.531736445930000023e+00,2.336632829890000207e-01,-9.485631747230000244e+00,1.153345685449999949e-02,8.463493548330000213e-03,-6.880804896350000213e-03,1.000000000000000000e+00
2.484987504999999874e+00,-2.507790045409999724e+00,2.073766212239999962e-01,-9.483003736810001527e+00,2.159717725590000210e-03,3.179433755579999781e-03,-6.083854474130000536e-03,1.000000000000000000e+00
2.490198664999999867e+00,-2.503368721840000255e+00,2.264707959360000022e-01,-9.478205396619999945e+00,1.409746706489999925e-02,-1.173919066790000097e-02,-1.042762026190000024e-02,1.000000000000000000e+00
2.495124457000000184e+00,-2.554938165559999863e+00,2.661225324419999594e-01,-9.440904132230000911e+00,3.389310557399999833e-03,2.640565391630000230e-03,9.201467037200000742e-04,1.000000000000000000e+00
2.500087473999999865e+00,-2.495124040590000369e+00,2.421103914800000201e-01,-9.464715215930000980e+00,1.529494207350000010e-02,-1.025590952489999902e-02,-1.601943001150000004e-02,1.000000000000000000e+00
2.505067448000000141e+00,-2.509302788059999845e+00,2.420885632409999766e-01,-9.454852578080000569e+00,9.511945769190000705e-03,1.479470171029999802e-02,-1.046305801720000088e-02,1.000000000000000000e+00
2.510208341999999870e+00,-2.534102298279999665e+00,2.089511953310000114e-01,-9.448884025069999026e+00,8.051212877039999952e-03,7.269282825289999708e-03,-8.999385870989999245e-03,1.000000000000000000e+00
2.515237641000000135e+00,-2.523054250039999946e+00,2.372152398499999815e-01,-9.465725854269999573e+00,1.129235234110000097e-02,9.721484035249999822e-03,6.562230177220000453e-03,1.000000000000000000e+00
2.520102069000000000e+00,-2.461306234399999848e+00,2.469182666860000042e-01,-9.450997656220000209e+00,-3.942664247010000365e-03,1.415029354389999924e-02,-1.779850572349999868e-02,1.000000000000000000e+00
2.525073533000000037e+00,-2.527549223370000320e+00,2.409427359400000135e-01,-9.447827794010001057e+00,-2.445644233380000077e-03,1.439769007270000171e-02,-4.997451324019999610e-04,1.000000000000000000e+00
2.530084207999999890e+00,-2.489398064149999978e+00,2.173007799980000154e-01,-9.425366371360000883e+00,7.933684624729998511e-03,-5.263311322780000762e-04,3.893957706170000053e-03,1.000000000000000000e+00
2.534924720999999881e+00,-2.458145432279999820e+00,2.055652426869999938e-01,-9.412929499109999654e+00,1.043437141929999881e-02,1.250030938539999949e-02,-1.504373736679999810e-02,1.000000000000000000e+00
2.540230254999999993e+00,-2.502240886850000123e+00,1.848437955669999799e-01,-9.467848837780000082e+00,8.046898059550000593e-03,-1.379016414279999984e-02,-8.089373819529999815e-03,1.000000000000000000e+00
2.545189649000000109e+00,-2.502510643709999982e+00,2.448891354789999864e-01,-9.411550027449999689e+00,-1.292569329960000001e-03,-2.898047678169999707e-03,-1.262447051699999885e-02,1.000000000000000000e+00
2.550055990999999800e+00,-2.523351479420000043e+00,2.051881530029999734e-01,-9.465939204760001502e+00,6.383928470310000665e-03,6.451535038649999429e-03,-9.986809454859999630e-03,1.000000000000000000e+00
2.555029740999999799e+00,-2.516570440979999823e+00,2.050093258370000171e-01,-9.480669740910000698e+00,4.454421345139999988e-03,-3.264781320469999949e-03,-3.509470261630000427e-03,1.000000000000000000e+00
2.560140135000000150e+00,-2.527021400109999760e+00,2.194423586039999929e-01,-9.475102169910000427e+00,1.076889969410000161e-02,4.168550483880000337e-03,-7.437276653950000531e-03,1.000000000000000000e+00
2.565082278999999854e+00,-2.501708679670000102e+00,1.813456512530000064e-01,-9.466175351609999566e+00,1.057927217329999829e-02,-1.547356252559999989e-03,-8.711379021410000506e-03,1.000000000000000000e+00
2.570030415999999818e+00,-2.537382927379999931e+00,2.136765798849999953e-01,-9.449164595570000102e+00,-1.260409876699999931e-02,9.898715652530001158e-03,-1.267273211849999966e-03,1.000000000000000000e+00
2.575032457999999913e+00,-2.479374390529999861e+00,2.241241049450000133e-01,-9.464571423539998918e+00,-1.694032223900000149e-03,9.386211633680001040e-03,-5.643274635080000080e-03,1.000000000000000000e+00
2.580072103000000006e+00,-2.563986272150000190e+00,2.635913699970000024e-01,-9.460987135310000795e+00,3.996898885820000281e-03,-3.243284299969999773e-05,7.218651473519999660e-03,1.000000000000000000e+00
2.585229666000000037e+00,-2.469223583390000254e+00,2.264536073389999959e-01,-9.481678041169999460e+00,2.625958761199999585e-03,-4.384640138600000812e-03,-1.636846177279999842e-02,1.000000000000000000e+00
2.590177265999999978e+00,-2.500318686620000008e+00,1.977974034309999962e-01,-9.483419331880000414e+00,9.793499484659999848e-04,-4.995621740819999532e-03,-1.091959793120000043e-02,1.000000000000000000e+00
2.595088857999999998e+00,-2.520667939430000004e+00,2.100350998440000116e-01,-9.458609884790000422e+00,9.260422550140000320e-03,-8.288444019850000830e-03,-1.326078642159999980e-02,1.000000000000000000e+00
2.599984268000000043e+00,-2.540160867659999600e+00,2.052328689270000173e-01,-9.462256132340000292e+00,-5.826592445369999790e-03,3.887486644089999978e-03,-3.878257237369999496e-03,1.000000000000000000e+00
2.605063363999999826e+00,-2.520436468759999826e+00,2.099800634540000266e-01,-9.463485381869999102e+00,2.353224204849999925e-03,4.708805587140000616e-03,-4.514668602499999871e-03,1.000000000000000000e+00
2.610174687000000215e+00,-2.509988139979999922e+00,2.124493761769999933e-01,-9.450558095760001720e+00,-7.286319974810000384e-03,-1.801063679159999736e-02,-7.388106547300000645e-03,1.000000000000000000e+00
2.615081652000000201e+00,-2.529508248490000000e+00,2.239384827129999866e-01,-9.499411850780001387e+00,-6.247668527070000116e-03,2.265308052300000433e-03,-2.725529950110000196e-03,1.000000000000000000e+00
2.619920769000000149e+00,-2.555421857420000276e+00,2.337801691010000238e-01,-9.464686574349999049e+00,-1.138208061460000038e-02,2.526957076040000066e-03,1.161998976020000261e-02,1.000000000000000000e+00
2.625205557000000134e+00,-2.464755498070000161e+00,2.062330589459999974e-01,-9.469276240230000141e+00,1.068871095779999787e-02,4.596694372590000646e-03,8.565776515750000856e-04,1.000000000000000000e+00
2.630081210000000169e+00,-2.487647421090000144e+00,2.039426099209999954e-01,-9.467471821160000189e+00,-2.228806493800000298e-03,1.863362733269999976e-03,-8.622865192589999894e-03,1.000000000000000000e+00
2.635098446000000205e+00,-2.526343939240000225e+00,2.219116165280000108e-01,-9.462174883789998603e+00,1.052895374600000024e-02,-1.950703188780000125e-02,-9.807208552959998521e-03,1.000000000000000000e+00
2.640149415000000221e+00,-2.559448044199999828e+00,1.981975269300000064e-01,-9.452519751220000543e+00,8.594424463810000636e-03,-1.114754844460000109e-02,6.925147026779999646e-03,1.000000000000000000e+00
2.645165237000000058e+00,-2.521665133770000011e+00,2.087654817669999940e-01,-9.465897119189998321e+00,2.217819681389999759e-03,1.841890159989999871e-03,7.512008771300000137e-03,1.000000000000000000e+00
2.650033147999999894e+00,-2.490071433370000253e+00,2.086458739750000069e-01,-9.481751690919999476e+00,3.603809978809999984e-03,-1.584755373189999927e-03,-1.933146268130000144e-03,1.000000000000000000e+00
2.655151978000000135e+00,-2.531607266590000016e+00,1.969195246180000247e-01,-9.469244676049999754e+00,5.038963165129999554e-03,7.656731642780000187e-03,1.180726336320000059e-03,1.000000000000000000e+00
2.660103433000000184e+00,-2.517145026000000119e+00,1.968206490870000047e-01,-9.466305115469999976e+00,2.721624216059999931e-03,1.771604456009999787e-02,1.461849827320000142e-02,1.000000000000000000e+00
2.665000480999999866e+00,-2.476353873659999927e+00,2.253392894209999830e-01,-9.474524662280000342e+00,1.458686497059999941e-02,1.275657117370000183e-02,1.379644731059999829e-03,1.000000000000000000e+00
2.670163918000000081e+00,-2.474120415520000282e+00,1.970590974850000010e-01,-9.437750052110001064e+00,-7.079865783449999610e-03,-1.650794292799999874e-03,-5.860636942089999558e-03,1.000000000000000000e+00
2.675037500000000179e+00,-2.575709735429999814e+00,2.304820226049999754e-01,-9.449345797360001242e+00,5.708635435440000778e-04,-9.818252176049998767e-03,7.842721417550000199e-03,1.000000000000000000e+00
2.679987509000000045e+00,-2.515462771999999791e+00,1.935740135819999930e-01,-9.450465156779999987e+00,-1.051255781200000072e-02,-6.662121973930000031e-03,-5.817149765789999746e-03,1.000000000000000000e+00
2.685032097000000118e+00,-2.515864046279999933e+00,1.767851749370000225e-01,-9.455841004599999877e+00,-1.887754071500000099e-03,-3.680756781249999894e-03,-6.607490591700000346e-03,1.000000000000000000e+00
2.690117898000000007e+00,-2.535585230309999716e+00,2.079578369119999826e-01,-9.421852225760000366e+00,5.382965318859999140e-03,-1.409842632710000057e-02,9.673100896180000449e-03,1.000000000000000000e+00
2.695140991000000152e+00,-2.500414548209999754e+00,1.981173013009999984e-01,-9.459912199560001511e+00,1.115943957120000066e-02,1.027440093459999933e-02,7.277959957720000171e-03,1.000000000000000000e+00
2.700021585000000002e+00,-2.470087214479999904e+00,2.338616003069999838e-01,-9.451907172280000324e+00,3.252377035099999602e-03,-1.299677975480000025e-02,-9.055790491399999878e-03,1.000000000000000000e+00
2.705160026000000162e+00,-2.515238315589999996e+00,1.967812121249999935e-01,-9.483304181060001170e+00,-5.605058744550000215e-03,-4.908259026709999549e-03,-1.186899375170000215e-02,1.000000000000000000e+00
2.710094048999999838e+00,-2.568553726190000219e+00,2.720810024549999984e-01,-9.447644254139998310e+00,5.563447251920000496e-03,-1.451973244550000021e-02,5.240653641520000815e-03,1.000000000000000000e+00
2.715110482000000047e+00,-2.495104459099999783e+00,2.216995994779999979e-01,-9.482826626679999649e+00,5.166532471780000205e-03,-1.309412717820000217e-02,1.518149161709999879e-03,1.000000000000000000e+00
2.720043879999999969e+00,-2.513129945140000210e+00,2.183125873889999735e-01,-9.461365320980000604e+00,-1.178149227050000018e-02,8.716927841310000147e-03,7.598764263090000345e-03,1.000000000000000000e+00
2.725199701000000196e+00,-2.462971829520000266e+00,2.005899932910000238e-01,-9.443615729279999371e+00,-3.111717756839999915e-03,-1.877397857609999776e-02,-7.133666425939999729e-03,1.000000000000000000e+00
2.730035820999999974e+00,-2.502078097509999655e+00,2.220903340949999805e-01,-9.445312596319999088e+00,-1.763335615399999959e-02,7.740462198849999871e-03,-1.667585223909999817e-02,1.000000000000000000e+00
2.735068727999999894e+00,-2.516270288990000381e+00,2.325894797449999940e-01,-9.454754962930000062e+00,-1.070229336620000249e-02,-1.618489250539999896e-02,-1.216910895890000073e-03,1.000000000000000000e+00
2.740146408999999839e+00,-2.514714583980000029e+00,2.098400704620000112e-01,-9.482474744500001052e+00,-9.429612196980000430e-03,1.557316817340000104e-02,4.107072018090000224e-04,1.000000000000000000e+00
2.745168223999999935e+00,-2.468353814819999936e+00,2.299849415359999927e-01,-9.484310727760000503e+00,-1.909078331660000061e-03,-6.775340996680000172e-03,-1.289567910129999981e-02,1.000000000000000000e+00
2.750025814999999874e+00,-2.577923612090000205e+00,2.099684460819999932e-01,-9.468127070199999551e+00,-1.057649217549999979e-02,-1.019951608029999804e-02,2.037325501440000186e-02,1.000000000000000000e+00
2.755154101000000022e+00,-2.464344871440000251e+00,2.457036484659999853e-01,-9.460191601020000007e+00,-1.381673291329999984e-02,2.110761124640000205e-03,-1.524981460530000109e-03,1.000000000000000000e+00
2.760145163999999873e+00,-2.515587567420000337e+00,2.290626573260000076e-01,-9.454413602140000705e+00,-1.282642874870000213e-02,-2.984471386300000060e-03,8.065718226130001375e-03,1.000000000000000000e+00
2.765059255000000160e+00,-2.483077336700000082e+00,2.358470202369999935e-01,-9.500600768299999999e+00,-1.498243119570000052e-02,-7.529659196729999657e-03,-5.639289505779999066e-03,1.000000000000000000e+00
2.770076938999999960e+00,-2.564991649800000051e+00,2.337789452579999983e-01,-9.472591648389999008e+00,-2.029553242029999774e-02,5.123075097800000241e-03,1.268268469720000222e-02,1.000000000000000000e+00
2.775044582000000037e+00,-2.479722473309999842e+00,2.454904258400000261e-01,-9.481870348870000242e+00,-4.622422158719999979e-03,7.808677852149998981e-03,2.253495855260000298e-03,1.000000000000000000e+00
2.779981037000000210e+00,-2.494519352690000247e+00,2.670677408709999923e-01,-9.468495903510000034e+00,-2.806689124550000320e-03,5.131121724839999860e-04,-7.755775004630000719e-03,1.000000000000000000e+00
2.785035161999999787e+00,-2.504251642149999846e+00,2.264397432099999885e-01,-9.479652088299999946e+00,-1.529112458229999957e-02,-8.864755742249999515e-03,-3.417907282709999484e-04,1.000000000000000000e+00
2.790138477000000172e+00,-2.522740069520000183e+00,2.372748245499999853e-01,-9.476512036709999975e+00,-1.909124292429999897e-02,1.887331251059999951e-03,1.950575737279999821e-03,1.000000000000000000e+00
2.794986954000000079e+00,-2.477120766379999672e+00,2.421629984499999999e-01,-9.455497890249999315e+00,-2.013798570260000049e-03,3.535661380739999696e-04,-1.162553858010000052e-02,1.000000000000000000e+00
2.800020272999999893e+00,-2.590478557760000022e+00,2.365394046810000150e-01,-9.428479534939999240e+00,-7.905682548879999424e-03,-9.189365431669999779e-03,1.977854967120000126e-02,1.000000000000000000e+00
2.805009019999999964e+00,-2.511721831900000090e+00,2.338179438280000300e-01,-9.470067682869999004e+00,-1.504530105740000019e-02,1.339698676019999805e-03,8.503826335069998577e-03,1.000000000000000000e+00
2.810069401999999883e+00,-2.501781744910000160e+00,2.244851385440000124e-01,-9.438523374569999902e+00,-6.742784171369999068e-04,8.405508473520000023e-03,4.940120503310000549e-03,1.000000000000000000e+00
2.815082759000000046e+00,-2.497662911409999520e+00,2.205971911950000142e-01,-9.475469834180000106e+00,-9.197383187709998534e-03,-1.191946119070000018e-02,-8.079078979789999304e-04,1.000000000000000000e+00
2.820048856000000104e+00,-2.545608903940000278e+00,2.208276206830000199e-01,-9.454775421189999918e+00,-1.259128097439999976e-02,1.262278947979999892e-02,1.060094777489999952e-02,1.000000000000000000e+00
2.825170372000000096e+00,-2.518608376550000028e+00,2.290891069420000203e-01,-9.473155127489999217e+00,-7.806158158929999910e-03,-6.887039635330000596e-04,-5.136623047289999924e-03,1.000000000000000000e+00
2.830035096000000028e+00,-2.576723004129999772e+00,2.495354451810000151e-01,-9.442613858759999701e+00,-9.517191909249999443e-03,5.841244943440000378e-03,1.445917692039999820e-02,1.000000000000000000e+00
2.835189425999999902e+00,-2.517617611940000000e+00,2.541015292539999804e-01,-9.465276356939998692e+00,-7.441026158630000518e-03,-5.594830028709999944e-03,3.313807537779999996e-03,1.000000000000000000e+00
2.840158907999999816e+00,-2.583431269590000134e+00,2.626347085929999770e-01,-9.458191367119999526e+00,-6.073338445279999678e-03,-2.179190330209999915e-02,5.065286532039999304e-03,1.000000000000000000e+00
2.845236540999999786e+00,-2.509743809829999783e+00,2.694911503590000090e-01,-9.469287346150000673e+00,3.969156648960000047e-03,-1.189393643289999962e-02,-4.483175929640000230e-03,1.000000000000000000e+00
2.849893658000000052e+00,-2.551900989820000021e+00,2.113137232110000041e-01,-9.449122510000000474e+00,-2.527850307520000325e-02,-1.499677449460000075e-02,1.677659153939999731e-02,1.000000000000000000e+00
2.855094448000000007e+00,-2.471320263409999995e+00,2.183503073170000031e-01,-9.466649398859999565e+00,-2.045787125830000192e-02,4.558255895969999462e-04,-1.033954601729999805e-02,1.000000000000000000e+00
2.860163345000000135e+00,-2.548089907100000051e+00,2.611162668540000231e-01,-9.468484797589999502e+00,5.474194418640000205e-03,-1.333406474439999961e-02,7.526171393689999774e-03,1.000000000000000000e+00
2.864970795000000070e+00,-2.488027360320000270e+00,3.065325947690000219e-01,-9.444872451340000197e+00,-1.336505729710000048e-02,-7.072482258079999806e-03,-6.654874421660000178e-03,1.000000000000000000e+00
2.869978804000000050e+00,-2.502595399380000085e+00,3.098118356360000103e-01,-9.473838433580000995e+00,4.627726506439999721e-03,-8.612262085079999338e-03,-7.932106032970001261e-03,1.000000000000000000e+00
2.875062720999999932e+00,-2.537985861709999735e+00,2.600197037889999674e-01,-9.457740700739998729e+00,6.771797779949999415e-05,9.844686836000000191e-03,4.788518883289999591e-03,1.000000000000000000e+00
2.880051679000000142e+00,-2.519622229769999944e+00,2.316627202890000070e-01,-9.447177805669999984e+00,-9.628560394049998777e-03,-9.136134758590000460e-03,-6.103693507609999486e-03,1.000000000000000000e+00
2.885037307000000162e+00,-2.506315296690000416e+00,2.080401996990000058e-01,-9.414541025960000198e+00,-1.466257614079999848e-03,-8.578659035269999358e-03,-7.457958534359999600e-03,1.000000000000000000e+00
2.890065257999999915e+00,-2.533577397619999783e+00,2.580846075400000106e-01,-9.415349419730000946e+00,-1.815658807750000076e-02,-3.642425872390000758e-04,-7.922859862450001150e-03,1.000000000000000000e+00
2.895067581000000168e+00,-2.539657302059999733e+00,2.291475591310000171e-01,-9.464910446239999331e+00,2.025911584500000081e-03,2.465014345939999917e-03,-1.108585670589999975e-02,1.000000000000000000e+00
2.900073337999999890e+00,-2.538634681010000005e+00,2.747324668120000313e-01,-9.418846614199999578e+00,-1.575281284750000219e-02,-7.855147123340001231e-03,-1.249943953009999970e-02,1.000000000000000000e+00
2.905207019000000113e+00,-2.604863933719999913e+00,2.568631942529999712e-01,-9.437869879099999082e+00,-7.516232319180000433e-03,-1.304552890359999976e-03,1.582137774679999844e-04,1.000000000000000000e+00
2.910119338999999972e+00,-2.542715228320000076e+00,2.590882498910000442e-01,-9.432370697160001427e+00,-1.755035854880000051e-02,-6.029907613989999617e-03,9.827999398110000284e-03,1.000000000000000000e+00
2.915021444999999822e+00,-2.504939916679999712e+00,2.137865065329999925e-01,-9.441739998530000122e+00,-5.382176954299999934e-03,-1.956550963219999897e-02,2.902896841989999720e-03,1.000000000000000000e+00
2.920187079000000185e+00,-2.534811615590000233e+00,2.533213751939999980e-01,-9.416471117240000410e+00,-5.958708468820000242e-03,4.506113938989999429e-03,2.416622126469999618e-03,1.000000000000000000e+00
2.925122233000000183e+00,-2.533487965770000017e+00,2.183800814009999869e-01,-9.459737427510001240e+00,-1.124098780559999906e-03,-6.500408519060000764e-03,1.127841603010000006e-02,1.000000000000000000e+00
2.930148786000000172e+00,-2.520838912079999883e+00,2.588315169179999931e-01,-9.469980004589999112e+00,-1.722613535820000097e-02,-1.504870876670000128e-02,-2.094171941280000088e-05,1.000000000000000000e+00
