t,ax,ay,az,wx,wy,wz,zv
4.968662999999999899e-03,-2.669874750550000009e+00,3.432884637039999576e-01,-9.449169271749999766e+00,-2.641831990329999730e-03,-2.189356368039999893e-03,-1.011043600739999944e-02,1.000000000000000000e+00
1.009781400000000010e-02,-2.742112303770000370e+00,3.816125683359999909e-01,-9.424028400750000145e+00,-7.632782217119999345e-03,5.231054499749999802e-03,9.365716949110000286e-03,1.000000000000000000e+00
1.520969200000000035e-02,-2.684604994430000335e+00,3.984493925750000054e-01,-9.401561717399999907e+00,1.181898266080000023e-02,8.106748573480000025e-03,9.122837800529999021e-04,1.000000000000000000e+00
2.017971600000000032e-02,-2.712015271669999894e+00,3.698550566550000140e-01,-9.411764546980000645e+00,-6.906249327589999553e-04,1.857518777250000142e-02,6.949510425329999842e-04,1.000000000000000000e+00
2.513760799999999879e-02,-2.716213892399999885e+00,3.411827966619999652e-01,-9.431474625099999898e+00,6.470711901780000150e-03,1.116711413489999884e-03,-3.747866488989999838e-03,1.000000000000000000e+00
3.013940999999999842e-02,-2.716913857359999795e+00,4.009517307850000156e-01,-9.391723044949999988e+00,-1.178301963960000018e-02,3.763167420399999956e-03,-1.185962697490000042e-03,1.000000000000000000e+00
3.510401700000000125e-02,-2.693113879580000258e+00,4.103307132980000271e-01,-9.395053650680001311e+00,-1.476564910260000016e-02,5.620024167000000574e-04,4.565324634310000303e-03,1.000000000000000000e+00
3.994615499999999708e-02,-2.708483005889999795e+00,3.674008684359999499e-01,-9.423465506170000339e+00,-1.358161494139999842e-02,-3.563764505089999854e-03,-1.152126817029999924e-03,1.000000000000000000e+00
4.504012300000000135e-02,-2.714006737749999676e+00,3.566915506339999875e-01,-9.411168919179999648e+00,4.037432372569999678e-03,-6.457600742580000067e-03,1.173809356990000025e-02,1.000000000000000000e+00
4.995186900000000291e-02,-2.662263398769999956e+00,3.433503864920000037e-01,-9.442012385730000901e+00,3.047260455789999479e-03,-8.234291337430000093e-03,-3.127833362669999936e-03,1.000000000000000000e+00
5.510235799999999712e-02,-2.716912688320000324e+00,3.923309827600000022e-01,-9.413968194510001553e+00,-1.198087446389999901e-02,5.679389461870000544e-03,1.397383585570000086e-02,1.000000000000000000e+00
5.996759799999999696e-02,-2.653770880230000184e+00,3.865416222360000265e-01,-9.393783484610001011e+00,1.831935602240000087e-03,-3.341506235300000568e-03,1.301804557440000131e-03,1.000000000000000000e+00
6.500193499999999680e-02,-2.706913856879999525e+00,3.888376607509999583e-01,-9.407802073089998274e+00,-6.278833840039999524e-03,-3.444852307440000091e-03,1.023482531310000027e-02,1.000000000000000000e+00
7.007784899999999761e-02,-2.680551919650000059e+00,3.818796583070000472e-01,-9.394136535839999524e+00,5.394638283180001360e-04,3.291345434260000563e-03,-2.852325793360000264e-03,1.000000000000000000e+00
7.509113900000000119e-02,-2.687499546829999808e+00,3.564472935499999884e-01,-9.431970884189999182e+00,-2.088923938569999840e-03,-1.037139631810000094e-02,5.641877185550000715e-03,1.000000000000000000e+00
8.021386299999999636e-02,-2.751855114630000099e+00,3.616035072689999796e-01,-9.411142615689998436e+00,-5.512381438169999641e-03,1.391022838650000058e-02,1.591007970270000293e-02,1.000000000000000000e+00
8.524665400000000504e-02,-2.705731369090000449e+00,3.616676950789999845e-01,-9.397281848119998671e+00,2.665776293720000054e-03,-8.275919593869999688e-03,1.061052083970000053e-02,1.000000000000000000e+00
9.009752499999999775e-02,-2.664042975659999701e+00,3.412194388779999921e-01,-9.413365552440000172e+00,-1.065727230160000080e-02,-2.649248577650000196e-03,-3.325148718429999945e-03,1.000000000000000000e+00
9.519378700000000193e-02,-2.672782162429999886e+00,3.722828683240000380e-01,-9.390234852220000761e+00,-3.920146264140000349e-04,-2.995961578559999932e-03,-3.976143896580000038e-03,1.000000000000000000e+00
1.001032200000000066e-01,-2.732769305879999777e+00,3.805367923309999623e-01,-9.419812244360000975e+00,-5.946716410109999891e-04,-3.841690719130000375e-03,-2.480102702979999712e-04,1.000000000000000000e+00
1.051396329999999962e-01,-2.728855055049999923e+00,3.936670171369999749e-01,-9.399488418260000699e+00,2.306709997360000246e-03,-1.406838186090000019e-02,1.992554776370000086e-02,1.000000000000000000e+00
1.101077040000000007e-01,-2.661225872409999749e+00,3.520330207710000159e-01,-9.403695806820000058e+00,1.090929727069999940e-03,6.893279030920000487e-03,9.964942000810000575e-04,1.000000000000000000e+00
1.151347260000000067e-01,-2.667977977020000058e+00,3.705995183470000565e-01,-9.450816454430000846e+00,5.360919050869999633e-03,5.966359749440000582e-03,-6.473093293610000104e-03,1.000000000000000000e+00
1.202015169999999938e-01,-2.692515621430000117e+00,3.552340453019999789e-01,-9.442173713769999921e+00,2.581679262219999972e-03,7.650410756470000205e-03,-4.596251063050000099e-03,1.000000000000000000e+00
1.251333460000000064e-01,-2.731742008659999943e+00,3.614441154559999703e-01,-9.411240815370000234e+00,-1.677868328990000241e-02,1.694631017740000009e-02,1.798710413280000045e-02,1.000000000000000000e+00
1.301919729999999886e-01,-2.620394680330000003e+00,3.552454434790000559e-01,-9.430943294710001368e+00,-1.898062182589999817e-03,1.500068465250000002e-03,-4.691556561740000374e-03,1.000000000000000000e+00
1.350444349999999905e-01,-2.700818754869999783e+00,3.969597020060000037e-01,-9.432810842140000318e+00,-6.700144149359999954e-03,8.594929240639998663e-03,-6.653347518300000134e-04,1.000000000000000000e+00
1.400883310000000104e-01,-2.726700507359999914e+00,3.721487570829999925e-01,-9.414656761289998954e+00,-1.404782570899999923e-02,-3.842850215729999921e-03,1.515961624679999960e-02,1.000000000000000000e+00
1.450650270000000130e-01,-2.652234172180000016e+00,3.769609431379999931e-01,-9.405359940639998584e+00,7.677089888600000173e-05,2.860326785590000336e-04,-3.271399764340000068e-03,1.000000000000000000e+00
1.501973329999999884e-01,-2.700271934639999927e+00,3.434225749449999476e-01,-9.429205511130000161e+00,-1.151702948849999981e-03,8.079390972850000741e-04,6.751047912990000045e-03,1.000000000000000000e+00
1.551851989999999959e-01,-2.676787598679999824e+00,3.481212541550000039e-01,-9.437487601779999125e+00,-1.466337498279999922e-02,-1.256396179089999893e-03,2.996511291709999785e-03,1.000000000000000000e+00
1.601520849999999996e-01,-2.674746740500000275e+00,3.921395518410000225e-01,-9.432140395539999389e+00,-2.272960031410000119e-03,7.263612002130000189e-03,3.451949916780000169e-03,1.000000000000000000e+00
1.650804740000000048e-01,-2.660242998849999818e+00,3.660074413170000263e-01,-9.422780446519999131e+00,-1.986893825230000212e-03,6.556225940590000578e-03,3.021158277989999426e-03,1.000000000000000000e+00
1.701920769999999972e-01,-2.673365515279999993e+00,3.708952498910000339e-01,-9.410679089840000344e+00,-8.191005326810000403e-03,-6.725954823199999620e-03,5.678061861539999804e-03,1.000000000000000000e+00
1.750848020000000116e-01,-2.713987156259999978e+00,3.492887635649999933e-01,-9.445462233919998951e+00,-3.327857702969999523e-03,1.193516701460000176e-02,1.417986489829999898e-02,1.000000000000000000e+00
1.801976150000000054e-01,-2.700302914299999912e+00,3.829005257870000123e-01,-9.416600881100000819e+00,-5.144960712640000468e-03,8.156171068550000999e-03,7.480010855939999044e-03,1.000000000000000000e+00
1.851833870000000049e-01,-2.660894448500000120e+00,3.635669893619999926e-01,-9.434376776289999711e+00,2.892420627179999922e-03,1.377870095890000156e-03,1.854131929579999963e-03,1.000000000000000000e+00
1.900920839999999945e-01,-2.708252411999999776e+00,3.648136284220000469e-01,-9.440635836680000281e+00,-1.058754697439999969e-02,9.020844474430000579e-03,4.514320287850000397e-03,1.000000000000000000e+00
1.950822389999999906e-01,-2.666699043129999946e+00,3.802478558540000053e-01,-9.435382738460001306e+00,-4.557932727040000034e-03,-5.714508239179999678e-03,-3.506667912010000276e-03,1.000000000000000000e+00
2.000546019999999980e-01,-2.690113820979999737e+00,3.449420395970000386e-01,-9.395500809930000585e+00,-2.348665334279999989e-02,3.581326454880000656e-04,-4.094451665880000264e-03,1.000000000000000000e+00
2.051055390000000034e-01,-2.701846928880000220e+00,3.900304142000000085e-01,-9.417814348540000324e+00,-1.601084601130000175e-03,3.289336571469999703e-03,-1.056048925970000038e-02,1.000000000000000000e+00
2.101918489999999862e-01,-2.706404446050000079e+00,3.805253210890000570e-01,-9.408756597340000027e+00,-2.037878613920000252e-03,1.389108411969999964e-02,-5.006733350460000620e-03,1.000000000000000000e+00
2.151389390000000013e-01,-2.715000132699999735e+00,3.553807968289999786e-01,-9.427684585169998854e+00,-1.609591208399999834e-02,-4.346639383580000460e-03,5.305060651149999702e-03,1.000000000000000000e+00
2.202024320000000035e-01,-2.664523452649999680e+00,3.722565648390000481e-01,-9.402693351779999986e+00,2.852137200530000406e-03,1.979239052160000102e-03,-1.116487756370000001e-02,1.000000000000000000e+00
2.250720579999999915e-01,-2.673757144940000163e+00,3.756214016300000180e-01,-9.409836793789999376e+00,-7.811004295949999614e-03,-2.117194933819999819e-03,-2.778515452519999835e-03,1.000000000000000000e+00
2.301069639999999972e-01,-2.739673386179999781e+00,3.443562755990000057e-01,-9.470161790900000653e+00,-6.357965525239999208e-03,-7.436168380080000403e-03,1.325289346279999968e-02,1.000000000000000000e+00
2.352240489999999906e-01,-2.651870891829999799e+00,3.877492809929999895e-01,-9.398110115639999762e+00,2.592377131799999718e-04,1.312512904409999896e-02,-8.313015103339999740e-03,1.000000000000000000e+00
2.401145100000000032e-01,-2.685495805790000023e+00,3.768909831739999938e-01,-9.411464102729999226e+00,9.062265977260000258e-03,3.378811059520000267e-03,-7.353626191620000509e-03,1.000000000000000000e+00
2.450746860000000138e-01,-2.702314254130000037e+00,3.601389876749999663e-01,-9.426598543500000815e+00,-3.767487127329999762e-03,3.878011601050000354e-03,-2.249348442999999937e-03,1.000000000000000000e+00
2.502082259999999780e-01,-2.707565598780000027e+00,3.913479996040000186e-01,-9.390102165750001006e+00,-1.208080630750000065e-02,5.527975969020000602e-03,1.011167094110000143e-02,1.000000000000000000e+00
2.552091389999999738e-01,-2.670496681839999997e+00,3.744287577790000321e-01,-9.422111168949999893e+00,-5.257090087980000525e-04,1.107586314900000203e-03,2.167740836739999802e-03,1.000000000000000000e+00
2.601121719999999748e-01,-2.681104585099999937e+00,3.863362358569999988e-01,-9.423204809410000493e+00,-1.200467720629999797e-02,-1.765489927490000027e-03,-3.602966433390000084e-03,1.000000000000000000e+00
2.651843480000000142e-01,-2.731897491479999829e+00,3.626045375379999824e-01,-9.423726787459999699e+00,1.680482993830000136e-03,-2.069091424349999916e-02,7.788861636069999844e-03,1.000000000000000000e+00
2.701506040000000164e-01,-2.704057006140000219e+00,3.792303493749999976e-01,-9.420694872420000365e+00,-1.174666266889999935e-02,-1.297676842660000149e-02,1.244763843720000061e-02,1.000000000000000000e+00
2.751778140000000206e-01,-2.660902631809999974e+00,3.612192206589999732e-01,-9.433009579589999305e+00,-4.959155339750000516e-03,-9.142702445390000002e-03,4.087267909200000340e-03,1.000000000000000000e+00
2.802065209999999862e-01,-2.712774857859999944e+00,3.909925006979999562e-01,-9.441838782730000545e+00,1.312833651900000009e-02,-1.319195842369999929e-03,5.935558583590000610e-03,1.000000000000000000e+00
2.852426849999999958e-01,-2.678180514340000151e+00,3.685658570950000046e-01,-9.413629171810001139e+00,1.520291250199999958e-02,-1.409356575459999941e-02,3.710745368150000496e-04,1.000000000000000000e+00
2.900861750000000017e-01,-2.678363761959999589e+00,3.722013275209999916e-01,-9.400884841050000773e+00,1.805978082120000133e-02,-8.239901624620000684e-03,1.048382138830000060e-03,1.000000000000000000e+00
2.951661689999999783e-01,-2.656493875449999820e+00,4.006706488210000083e-01,-9.410577383030000576e+00,-1.621354930099999994e-02,-7.999425753949998899e-03,-1.042340323329999860e-02,1.000000000000000000e+00
3.001291899999999901e-01,-2.708248612609999828e+00,3.661792176870000137e-01,-9.412558327710000228e+00,-2.775448840110000034e-03,-2.631176030260000062e-03,1.764914020900000286e-03,1.000000000000000000e+00
3.051143680000000247e-01,-2.704589505579999553e+00,3.769940051569999895e-01,-9.397308736130000284e+00,-6.596989464009999846e-03,-5.949527956550000260e-03,1.524990610780000040e-02,1.000000000000000000e+00
3.100901600000000036e-01,-2.668224353000000271e+00,3.841330997900000432e-01,-9.402907871310000942e+00,-1.414582715369999948e-03,-1.174756139519999958e-02,2.923175692559999879e-03,1.000000000000000000e+00
3.151838189999999762e-01,-2.655078163440000250e+00,3.578657455129999887e-01,-9.410178739099999135e+00,7.635172223669999371e-04,-6.248638965189999041e-03,-1.084263622759999886e-02,1.000000000000000000e+00
3.201816989999999863e-01,-2.714043854890000329e+00,3.829977390839999773e-01,-9.399146472949999165e+00,-1.570714265110000063e-02,-4.948652349409999630e-04,-2.862916793670000019e-03,1.000000000000000000e+00
3.250906940000000134e-01,-2.708304434450000020e+00,3.780479711900000539e-01,-9.413946567200000004e+00,7.453275378789999892e-03,-5.778916180129999719e-03,1.128070428970000087e-02,1.000000000000000000e+00
3.301123979999999736e-01,-2.680082256309999966e+00,3.255694132699999965e-01,-9.426945749499999749e+00,-1.939597912129999852e-02,3.640652401370000034e-03,1.546524278820000063e-02,1.000000000000000000e+00
3.351470360000000093e-01,-2.663205940309999686e+00,3.767784261779999477e-01,-9.421234970639998707e+00,-1.385584706440000065e-03,3.579035634169999876e-03,9.034225717189999991e-03,1.000000000000000000e+00
3.402251700000000212e-01,-2.715760595680000389e+00,3.804128006249999916e-01,-9.427442008589999034e+00,-8.593204547650000772e-04,-2.294772071760000330e-03,1.233872212470000194e-02,1.000000000000000000e+00
3.450802250000000182e-01,-2.664799639249999963e+00,4.040929879519999934e-01,-9.437342055830001186e+00,-2.262962516399999891e-03,-1.605418277900000053e-03,-7.109663914890001005e-03,1.000000000000000000e+00
3.501255449999999825e-01,-2.720446123139999894e+00,3.506738977800000212e-01,-9.420580306119999747e+00,-3.373628947880000228e-03,-4.985029809180000111e-03,7.498918566850000349e-03,1.000000000000000000e+00
3.551616120000000154e-01,-2.657992881840000265e+00,3.887343099750000253e-01,-9.421960946830001404e+00,-2.967042382809999875e-03,-1.743058790450000180e-03,-1.125389896329999882e-02,1.000000000000000000e+00
3.602299930000000261e-01,-2.727631650730000246e+00,4.198046806189999480e-01,-9.401005837080001371e+00,-3.150473348800000590e-03,-1.358731463549999949e-02,1.066609658300000062e-02,1.000000000000000000e+00
3.652043950000000150e-01,-2.637527601440000424e+00,3.614164237320000028e-01,-9.409223045810000130e+00,1.289674639699999945e-02,-7.151561789210000158e-03,-8.357677608729999555e-03,1.000000000000000000e+00
3.701827120000000249e-01,-2.712508023619999875e+00,3.482677864859999861e-01,-9.420771444779999726e+00,-1.127471332439999906e-04,1.605662703509999970e-02,5.845450330529999503e-03,1.000000000000000000e+00
3.750697809999999910e-01,-2.689797594639999900e+00,3.529218228369999655e-01,-9.437193587270000350e+00,7.676820736380000378e-03,-9.376770816739999834e-03,2.992098219690000026e-03,1.000000000000000000e+00
3.802476770000000061e-01,-2.683059810820000113e+00,3.744710260180000305e-01,-9.422903780639998672e+00,-1.032276079059999806e-03,-4.116234369580000149e-03,-5.539388395850000472e-03,1.000000000000000000e+00
3.852275310000000119e-01,-2.705426540930000012e+00,3.768300833000000072e-01,-9.424185052620000391e+00,2.811076119540000104e-04,6.810441613199999869e-03,-1.428858842700000140e-03,1.000000000000000000e+00
3.901592090000000068e-01,-2.709216873120000368e+00,3.552097876439999635e-01,-9.450158282789999475e+00,-1.764423772690000211e-02,7.531898096199999768e-03,2.568806987260000181e-03,1.000000000000000000e+00
3.952498850000000230e-01,-2.690133986989999837e+00,3.847709593020000041e-01,-9.457258470179999321e+00,-2.787715056909999788e-03,-6.045293528590000090e-03,1.293288543820000046e-02,1.000000000000000000e+00
4.001565790000000122e-01,-2.680150060849999960e+00,3.863145354819999544e-01,-9.431171842769998648e+00,6.130033638329999111e-03,8.299065753819999045e-03,-4.557729698719999720e-05,1.000000000000000000e+00
4.050963590000000170e-01,-2.676198108359999939e+00,3.638809506819999928e-01,-9.409701184710000277e+00,-2.380938269199999943e-03,8.501300588249998888e-03,-1.214316673579999943e-02,1.000000000000000000e+00
4.102461119999999961e-01,-2.710196824070000066e+00,3.493103543419999735e-01,-9.435269341210000604e+00,1.872288435700000114e-02,-1.280753966420000202e-02,3.917335998269999738e-03,1.000000000000000000e+00
4.151644660000000098e-01,-2.721022461729999620e+00,3.769011757749999858e-01,-9.430330715769999372e+00,2.801025286320000217e-03,2.485459903260000408e-03,-1.720052328889999996e-03,1.000000000000000000e+00
4.201568110000000189e-01,-2.666164205599999892e+00,3.971647230590000244e-01,-9.403392439960001070e+00,-1.983440481129999933e-03,6.635448895390000379e-03,-8.280267938969999852e-03,1.000000000000000000e+00
4.250953299999999935e-01,-2.690745104619999939e+00,3.817247234740000494e-01,-9.409802891520000045e+00,8.489426691089999684e-04,-3.279751166699999745e-03,-1.342465355990000130e-02,1.000000000000000000e+00
4.302307679999999857e-01,-2.724797011829999782e+00,3.840356672970000051e-01,-9.418136420099999739e+00,2.178601454939999797e-03,-1.722307875749999953e-02,-1.809998531829999906e-03,1.000000000000000000e+00
4.352240989999999754e-01,-2.686446822910000254e+00,4.004230307350000184e-01,-9.439204927100000475e+00,-4.572544246909999825e-03,-1.255390513689999890e-02,1.947523094710000091e-03,1.000000000000000000e+00
4.401957659999999883e-01,-2.690498436389999970e+00,4.065952530969999534e-01,-9.409674296709999552e+00,-1.382021605970000164e-02,2.994020702320000348e-03,1.213379949330000047e-02,1.000000000000000000e+00
4.451185770000000153e-01,-2.663906489799999999e+00,3.254319044960000129e-01,-9.450279278820000073e+00,-4.477320704609999598e-03,9.713747538629999984e-03,-1.114280079490000130e-03,1.000000000000000000e+00
4.502668149999999869e-01,-2.675198868189999857e+00,3.562453777699999269e-01,-9.458022440289999722e+00,-3.021833952520000185e-03,6.431500427419999284e-03,-2.262094756590000370e-03,1.000000000000000000e+00
4.552254660000000230e-01,-2.728020357790000627e+00,3.719743503639999505e-01,-9.440500227599999405e+00,-3.525866661219999657e-03,-6.558157037939999889e-04,7.204596418890000555e-03,1.000000000000000000e+00
4.601411220000000135e-01,-2.645666484229999948e+00,3.776088491199999786e-01,-9.451832353480000393e+00,8.950917981559999154e-03,1.053507998589999980e-02,5.216747056689998926e-03,1.000000000000000000e+00
4.651970280000000124e-01,-2.664459155249999878e+00,3.623052988630000026e-01,-9.440489121689999763e+00,-9.152829879889999749e-04,6.478402763609999310e-03,4.158569034189999770e-03,1.000000000000000000e+00
4.702562699999999762e-01,-2.681255099479999959e+00,3.579139320359999710e-01,-9.412041025840000685e+00,-8.717004675420000079e-04,2.066378714519999816e-03,-5.413791164760000177e-03,1.000000000000000000e+00
4.751687620000000223e-01,-2.724150238359999587e+00,4.031707220080000265e-01,-9.398526879749999452e+00,-4.906485555689999800e-04,-7.435130886730000055e-03,1.520796678959999981e-02,1.000000000000000000e+00
4.802411589999999730e-01,-2.644418237740000066e+00,3.708045028670000076e-01,-9.416940488319999858e+00,2.312666736539999678e-03,-2.613842720169999925e-03,8.305378258229998562e-03,1.000000000000000000e+00
4.851871810000000229e-01,-2.683673558799999803e+00,3.723171359199999864e-01,-9.398889283320000843e+00,8.151177316900000067e-03,2.895543584600000341e-03,-2.336792647840000257e-03,1.000000000000000000e+00
4.901503529999999831e-01,-2.718841902819999934e+00,3.778508046500000384e-01,-9.442191833949999946e+00,4.161470569669999987e-03,2.479513874279999988e-03,1.042754575610000019e-02,1.000000000000000000e+00
4.950777980000000134e-01,-2.688530935709999792e+00,3.683881989729999584e-01,-9.445068850689999351e+00,7.226721849289999625e-03,1.641386421400000068e-03,-3.326144069430000006e-03,1.000000000000000000e+00
5.000962509999999916e-01,-2.715586408150000075e+00,3.611802768879999737e-01,-9.448906821419999602e+00,6.315254606309999783e-03,-7.465204223990000616e-03,2.140089869499999745e-03,1.000000000000000000e+00
5.052831930000000193e-01,-2.677142111209999786e+00,3.982634780809999886e-01,-9.420805931569999458e+00,9.518921375270000471e-03,1.183773297820000028e-02,-7.377780042590000552e-03,1.000000000000000000e+00
5.101373839999999715e-01,-2.686448576470000127e+00,3.767555202260000069e-01,-9.421409158160001240e+00,9.725393727419999815e-03,-2.615801058709999816e-04,1.090817386279999959e-03,1.000000000000000000e+00
5.152023319999999851e-01,-2.699521408540000333e+00,3.961165291800000654e-01,-9.398967024730000119e+00,2.166747488080000145e-02,-1.546054799110000051e-02,-3.106795717029999914e-03,1.000000000000000000e+00
5.201209869999999791e-01,-2.701553498890000071e+00,3.828750625519999895e-01,-9.412337378440000180e+00,-1.459815353159999926e-02,-8.817040361460000116e-04,-2.950269263240000266e-04,1.000000000000000000e+00
5.251320510000000441e-01,-2.702725757540000107e+00,3.650174804310000187e-01,-9.412339716520000010e+00,-8.353688754140000186e-03,-1.206755265589999973e-02,5.408840719609999889e-03,1.000000000000000000e+00
5.300778800000000013e-01,-2.721700214859999800e+00,3.710303840449999946e-01,-9.409650915830001239e+00,-1.480524986979999888e-02,-5.289834458380000826e-03,1.474040001629999853e-02,1.000000000000000000e+00
5.351680810000000177e-01,-2.654199919299999877e+00,3.686518183449999930e-01,-9.405174647200000848e+00,-1.590760238470000087e-02,8.712431881579999838e-04,-4.868206568060000003e-03,1.000000000000000000e+00
5.401470670000000363e-01,-2.697668766409999641e+00,3.457035620220000327e-01,-9.446682131110000213e+00,1.019504293800000023e-02,2.207907615230000030e-03,-3.780886763709999984e-03,1.000000000000000000e+00
5.451516419999999918e-01,-2.721266791879999758e+00,3.923423078709999956e-01,-9.422796813130000615e+00,-1.995160244410000214e-03,-1.097796251999999919e-03,3.044743556529999964e-03,1.000000000000000000e+00
5.501965509999999782e-01,-2.694740603999999706e+00,4.079015499220000063e-01,-9.411022204180000017e+00,-1.286965049799999872e-02,5.816000513729999502e-03,-2.899827202780000043e-03,1.000000000000000000e+00
5.551362859999999788e-01,-2.647581962459999882e+00,4.074142778620000183e-01,-9.451502683130000193e+00,9.952688124030000145e-04,-3.140288405119999807e-03,-1.342771574849999962e-02,1.000000000000000000e+00
5.600758430000000176e-01,-2.742652986520000002e+00,3.756120858120000627e-01,-9.429965974110000815e+00,1.821220968849999707e-03,-1.972104422750000068e-03,6.594498176130000194e-03,1.000000000000000000e+00
5.650685050000000542e-01,-2.696867094639999962e+00,4.103568706530000276e-01,-9.389283250589999241e+00,-8.762220968489999170e-04,-9.963875636459998061e-03,1.764870434999999890e-02,1.000000000000000000e+00
5.701247230000000554e-01,-2.670230139859999685e+00,3.936301922569999667e-01,-9.410912314069999951e+00,-7.615607231859999882e-03,-4.656416829680000077e-03,-9.096439462159999940e-04,1.000000000000000000e+00
5.751054089999999563e-01,-2.704593597229999702e+00,3.602133315519999712e-01,-9.413774717760000854e+00,7.128473836930000751e-03,-1.251562684770000239e-02,1.058534719049999961e-02,1.000000000000000000e+00
5.801352840000000288e-01,-2.694020473029999696e+00,3.530536325230000383e-01,-9.419475559749999505e+00,-8.439962752159999720e-03,-6.745769642290000033e-04,1.296248100700000093e-02,1.000000000000000000e+00
5.852726639999999980e-01,-2.660380946020000081e+00,3.662114029230000289e-01,-9.421229125420000017e+00,-7.963718846439999527e-03,3.016662551090000272e-03,-1.451739482579999900e-02,1.000000000000000000e+00
5.901049430000000484e-01,-2.704346052209999574e+00,3.696198231270000356e-01,-9.421354213110001652e+00,-2.133461181069999830e-03,8.399544283750001034e-03,3.018168266859999702e-03,1.000000000000000000e+00
5.950727970000000422e-01,-2.665834827509999894e+00,3.481692214830000021e-01,-9.432664711670000202e+00,-6.149559281770000316e-03,-9.343369863929999394e-03,-7.204785477370000309e-03,1.000000000000000000e+00
6.001081240000000205e-01,-2.713427476549999717e+00,3.793417738600000089e-01,-9.407589307130001188e+00,-5.599711090329999828e-03,-1.371541898700000088e-02,2.531043719500000126e-03,1.000000000000000000e+00
6.052450080000000288e-01,-2.688689341140000355e+00,3.658423869479999757e-01,-9.455237778010001648e+00,-5.659606307739999467e-03,-7.731125690040000116e-03,8.483114652339999551e-05,1.000000000000000000e+00
6.101649839999999658e-01,-2.721352132070000263e+00,3.782625637879999947e-01,-9.402285355500000108e+00,4.607103299350000063e-03,-5.608028732240000143e-05,4.708655178550000264e-03,1.000000000000000000e+00
6.152097589999999672e-01,-2.728197175659999640e+00,4.114638820470000180e-01,-9.423349186319999404e+00,-5.896735005079999960e-03,9.494844824080000967e-03,1.475318335000000165e-03,1.000000000000000000e+00
6.201385940000000430e-01,-2.680669700809999778e+00,3.851632465550000051e-01,-9.427529686869998926e+00,6.246818695220000828e-03,-1.466097892260000016e-03,-1.218176446860000026e-02,1.000000000000000000e+00
6.251328409999999947e-01,-2.728012759009999844e+00,3.744023812289999920e-01,-9.425655125169999593e+00,1.664384640749999936e-02,1.326705142859999943e-02,8.587315678600000723e-03,1.000000000000000000e+00
6.301039849999999776e-01,-2.685124634390000153e+00,4.026986109849999829e-01,-9.448921434469999880e+00,1.036796905100000055e-02,-2.573278266940000076e-03,1.439804397520000161e-02,1.000000000000000000e+00
6.351876810000000040e-01,-2.672942905949999837e+00,3.902379194710000054e-01,-9.388376072610000733e+00,9.846369735899999573e-03,-7.658384274689999981e-04,-5.155825056140000067e-05,1.000000000000000000e+00
6.402451799999999693e-01,-2.696755450959999578e+00,3.722702645709999869e-01,-9.398131158430000909e+00,5.015027243640000562e-03,-7.619061507280000013e-03,3.578730393199999922e-03,1.000000000000000000e+00
6.451994039999999764e-01,-2.684142637619999938e+00,3.755835903699999978e-01,-9.424610584550000780e+00,-2.235601656139999793e-03,1.629610918460000155e-02,4.430231172590000203e-03,1.000000000000000000e+00
6.501383699999999655e-01,-2.666819746899999899e+00,3.934767187290000301e-01,-9.420994732140000494e+00,-1.134374644610000073e-02,-9.442559443409999365e-03,-6.449802778659999465e-03,1.000000000000000000e+00
6.551393500000000092e-01,-2.720410467310000246e+00,3.661668331290000022e-01,-9.418224682910000922e+00,3.168005496260000321e-03,-5.191408563409999214e-04,6.722628604620000357e-03,1.000000000000000000e+00
6.601148660000000223e-01,-2.661986335389999958e+00,3.719504214989999835e-01,-9.430652202810000162e+00,-4.516890738159999238e-03,-6.057686638090000603e-03,-1.932752784339999887e-03,1.000000000000000000e+00
6.651857829999999749e-01,-2.664220378050000004e+00,3.468127288400000285e-01,-9.447299970750000497e+00,1.427237503229999982e-02,-8.417528588320000648e-04,-7.239120081069998734e-03,1.000000000000000000e+00
6.702720359999999600e-01,-2.703305310990000265e+00,3.672632135309999990e-01,-9.424512384879999871e+00,2.326446119699999721e-03,6.966246291999999424e-03,2.703079022469999544e-03,1.000000000000000000e+00
6.750810449999999907e-01,-2.689907484759999967e+00,3.733415105319999872e-01,-9.411296929469999739e+00,-1.821824116630000028e-03,9.708347730340001133e-03,3.442853223530000124e-03,1.000000000000000000e+00
6.802272759999999918e-01,-2.709158420930000144e+00,3.887666048089999937e-01,-9.415029101739998296e+00,5.012320354579999707e-03,-4.555167630310000097e-03,1.473018340770000136e-02,1.000000000000000000e+00
6.852415280000000442e-01,-2.663553438579999710e+00,3.507520410499999630e-01,-9.408842522060000491e+00,1.201436668629999975e-02,-1.199608296160000094e-02,3.679902758449999940e-03,1.000000000000000000e+00
6.901345420000000175e-01,-2.668049580949999999e+00,3.302717092099999863e-01,-9.438543248320000245e+00,-4.427666775880000245e-03,4.398720338939999391e-03,-4.678231663999999658e-03,1.000000000000000000e+00
6.951393169999999788e-01,-2.681253930440000488e+00,3.481934426089999812e-01,-9.424680142659999760e+00,-6.412568036470000198e-03,-4.365784116089999967e-05,-6.469651125369998979e-04,1.000000000000000000e+00
7.002129799999999848e-01,-2.703650178899999812e+00,3.445350662319999757e-01,-9.446514373330000325e+00,5.831388290970000547e-03,-6.950837559999999138e-03,7.113756146280000641e-04,1.000000000000000000e+00
7.051756829999999976e-01,-2.712399594809999925e+00,3.864018119070000146e-01,-9.419363916069999121e+00,-1.354411244389999887e-02,-1.102070510390000015e-02,6.304851267489999106e-03,1.000000000000000000e+00
7.101232750000000538e-01,-2.680121127020000049e+00,3.555206436919999824e-01,-9.411019866100000186e+00,-3.276531584559999859e-03,2.231778809800000294e-03,-5.322680808600000315e-04,1.000000000000000000e+00
7.152200359999999479e-01,-2.681698751599999930e+00,3.709044195780000219e-01,-9.415065926619998748e+00,1.458987966180000026e-02,-1.259596645829999875e-02,-3.440561704340000027e-04,1.000000000000000000e+00
7.201432819999999957e-01,-2.660341490790000041e+00,3.420636346170000119e-01,-9.443860059430001286e+00,7.189962547270000413e-03,-3.019254654649999653e-04,-4.612173885109999844e-03,1.000000000000000000e+00
7.250650880000000242e-01,-2.722408070870000252e+00,3.793761510530000436e-01,-9.405098659349999224e+00,-1.305638253689999848e-02,-1.208658237010000122e-02,7.877040654420000912e-03,1.000000000000000000e+00
7.301955340000000350e-01,-2.646171803400000133e+00,3.658297466619999661e-01,-9.445304997539999192e+00,-1.076870504770000014e-02,5.512584000829999324e-03,-2.202141098679999843e-03,1.000000000000000000e+00
7.352439360000000423e-01,-2.699293152739999702e+00,3.852159265900000351e-01,-9.411527815619999515e+00,1.959693618119999828e-03,4.125188104810000207e-03,5.860397126529999848e-03,1.000000000000000000e+00
7.401954240000000462e-01,-2.660868145020000242e+00,3.576618569710000028e-01,-9.425102167460000402e+00,-1.056665740909999880e-02,9.190936107189999526e-04,5.676033440979999511e-03,1.000000000000000000e+00
7.451011520000000443e-01,-2.711973478349999578e+00,3.532326423520000258e-01,-9.406969713919998810e+00,3.781337290999999771e-03,4.067871719600000061e-03,7.136174011979999794e-03,1.000000000000000000e+00
7.501030069999999883e-01,-2.658977508960000069e+00,3.636850627839999794e-01,-9.425677921520000169e+00,-8.153375238179999193e-03,2.129655331370000279e-02,-5.552373360840000445e-03,1.000000000000000000e+00
7.551555349999999889e-01,-2.720971316059999978e+00,3.553166090190000292e-01,-9.441545352739998620e+00,4.650296177720000010e-04,8.808452635999998795e-03,-1.464735250920000105e-04,1.000000000000000000e+00
7.601122430000000207e-01,-2.703404971970000403e+00,3.841997718180000243e-01,-9.397943526900000677e+00,-3.230907954280000383e-03,-1.728688925500000001e-02,2.093294169749999965e-03,1.000000000000000000e+00
7.651277309999999776e-01,-2.670616216570000034e+00,3.576423850859999920e-01,-9.435279862610000734e+00,1.347177196289999802e-02,-1.796730048949999811e-02,-2.896528691049999986e-03,1.000000000000000000e+00
7.701987940000000199e-01,-2.665065888970000074e+00,3.591067950829999744e-01,-9.397536115150000313e+00,6.189253181220001274e-03,4.123845137659999834e-03,-3.329640254379999734e-03,1.000000000000000000e+00
7.749460040000000216e-01,-2.696955941959999770e+00,3.780229098139999966e-01,-9.418595269789999946e+00,-1.496627833690000048e-02,-3.550998168070000280e-03,2.861378714439999707e-03,1.000000000000000000e+00
7.802112289999999506e-01,-2.685342661059999969e+00,3.566617400179999953e-01,-9.413623911120000187e+00,1.081059593709999926e-02,6.623826920989999735e-03,2.353447955099999787e-03,1.000000000000000000e+00
7.852262479999999600e-01,-2.665432384190000281e+00,3.780229098139999966e-01,-9.409680141930000019e+00,1.397169195120000033e-02,8.717253804210000137e-03,3.466742578889999826e-03,1.000000000000000000e+00
7.901482669999999597e-01,-2.676577755319999863e+00,3.742797046970000041e-01,-9.438845446130001093e+00,-5.970103666189999908e-03,-1.856454182420000224e-04,-7.917510811239999221e-04,1.000000000000000000e+00
7.950916470000000125e-01,-2.670926013169999891e+00,3.720077046450000480e-01,-9.419072824169999691e+00,-8.745884522800000116e-03,7.727330084889999246e-04,1.227899920200000144e-03,1.000000000000000000e+00
8.002370389999999833e-01,-2.664835002819999854e+00,3.759400756580000280e-01,-9.378438615969999503e+00,1.008880976590000034e-02,-1.294765714560000038e-02,-1.598263159390000271e-03,1.000000000000000000e+00
8.052312560000000063e-01,-2.670354643020000029e+00,3.528095581019999871e-01,-9.433589425299999220e+00,1.477426756170000140e-02,1.999424071980000165e-03,6.053088698540000888e-03,1.000000000000000000e+00
8.101031410000000266e-01,-2.664857506909999785e+00,3.816790211680000100e-01,-9.407921900079999844e+00,6.479964125900000010e-03,1.392929581930000063e-03,-3.466192865739999539e-03,1.000000000000000000e+00
8.149728659999999625e-01,-2.658563667470000169e+00,4.088995114509999529e-01,-9.418057509649999659e+00,-9.749054443089998339e-04,6.463404279199999125e-04,-9.274246171120001728e-03,1.000000000000000000e+00
8.201459100000000335e-01,-2.722975349359999964e+00,3.364061568439999927e-01,-9.423786408689998950e+00,-2.243443578480000186e-02,2.586551243440000231e-03,1.901954412459999936e-03,1.000000000000000000e+00
8.251755459999999820e-01,-2.701219444629999966e+00,3.709182289079999695e-01,-9.423875840539999160e+00,-4.637540783730000060e-03,-8.109688758850000512e-03,-7.799933664499999943e-04,1.000000000000000000e+00
8.300431259999999645e-01,-2.659954245040000220e+00,3.553085718429999651e-01,-9.436034480369999145e+00,2.533295191820000175e-04,-1.314201671629999964e-02,-1.854495517910000058e-02,1.000000000000000000e+00
8.352520559999999650e-01,-2.696868555940000522e+00,3.865061125309999790e-01,-9.401854562869999654e+00,-3.180837258699999517e-03,5.871881730850000113e-03,-1.413426920769999921e-02,1.000000000000000000e+00
8.401836620000000533e-01,-2.695208513770000369e+00,3.923814708380000127e-01,-9.409127184219999052e+00,2.754902467130000091e-03,4.792658612130000322e-03,-9.312245994810000246e-03,1.000000000000000000e+00
8.451223909999999728e-01,-2.713913798770000163e+00,3.624292905690000288e-01,-9.437317505910000293e+00,4.524670075630000260e-03,1.175385341049999845e-02,1.101321773599999972e-03,1.000000000000000000e+00
8.500917099999999449e-01,-2.679389597870000195e+00,3.662504928249999958e-01,-9.403101348060001641e+00,-4.769839812069999463e-03,-1.389632467179999914e-02,9.195506572720000540e-05,1.000000000000000000e+00
8.551740110000000117e-01,-2.706556713999999975e+00,3.840358499600000086e-01,-9.415905884569999884e+00,4.916844889520000268e-03,1.249721040949999980e-03,5.131213460120000180e-03,1.000000000000000000e+00
8.602464079999999624e-01,-2.664414147059999571e+00,3.612446108290000013e-01,-9.428359123430000821e+00,8.963678032159999587e-03,-4.529214464130000214e-03,6.788177415730001262e-04,1.000000000000000000e+00
8.651813480000000167e-01,-2.697678703280000256e+00,3.504459342430000235e-01,-9.445715916419999303e+00,4.315236117689999311e-03,-1.625728560609999941e-03,5.143193062390000181e-03,1.000000000000000000e+00
8.700517869999999654e-01,-2.720133988450000206e+00,3.996627504199999348e-01,-9.404730410560000919e+00,-1.585040125059999916e-03,-5.686929449440000263e-03,7.488783914600000494e-03,1.000000000000000000e+00
8.752254369999999950e-01,-2.654878256950000015e+00,3.579095115890000289e-01,-9.405387997689999224e+00,4.299841821190000107e-04,-2.619581529869999606e-03,-6.700631231070000235e-03,1.000000000000000000e+00
8.802142849999999852e-01,-2.737128085609999761e+00,3.995813557469999888e-01,-9.417608012320000554e+00,-3.696558531370000046e-03,1.200347207489999880e-02,2.050446346399999870e-05,1.000000000000000000e+00
8.851723529999999673e-01,-2.727460970340000568e+00,3.842227508340000375e-01,-9.402226318789999482e+00,-1.145302597429999868e-02,-1.094740815459999952e-03,5.977920722220000233e-03,1.000000000000000000e+00
8.901290739999999646e-01,-2.690710033309999805e+00,3.911187939580000328e-01,-9.427505136949999809e+00,8.096338249739999313e-03,-1.041001826520000090e-02,-3.731535514820000232e-03,1.000000000000000000e+00
8.951347990000000365e-01,-2.653511352509999810e+00,3.700453185300000003e-01,-9.376886125830001362e+00,5.884139100089999909e-04,-7.910893764350000615e-04,-1.786645315590000213e-02,1.000000000000000000e+00
9.000832389999999794e-01,-2.742243821190000208e+00,4.114409395620000631e-01,-9.419066978949999225e+00,-3.404427785429999919e-03,1.684405608099999972e-03,-5.391951650379999718e-03,1.000000000000000000e+00
9.051827529999999511e-01,-2.741768312640000094e+00,4.149916177809999662e-01,-9.422567680549999380e+00,-1.639097696170000069e-03,3.321291180329999718e-03,5.034625995899999658e-03,1.000000000000000000e+00
9.101611800000000141e-01,-2.640535843340000355e+00,3.610864245929999439e-01,-9.449621107169999590e+00,-1.679079979659999985e-02,-7.941379211840000549e-03,-1.528255268930000035e-02,1.000000000000000000e+00
9.151512400000000325e-01,-2.744078343139999987e+00,3.864740368930000280e-01,-9.415471000289999282e+00,5.054865032430000925e-04,1.596537418660000027e-02,9.788626339289998365e-04,1.000000000000000000e+00
9.202893279999999621e-01,-2.709974705750000101e+00,3.815483805259999861e-01,-9.433431604389998171e+00,-1.588140381500000031e-03,-2.461282769219999729e-03,1.614800654349999968e-03,1.000000000000000000e+00
9.252510430000000508e-01,-2.708551394950000191e+00,3.779278154090000008e-01,-9.440492044299999108e+00,2.859581261870000005e-03,8.343527093529999605e-03,2.658604644239999956e-04,1.000000000000000000e+00
9.300939049999999986e-01,-2.710408713250000101e+00,3.890899184790000409e-01,-9.396968544389999067e+00,-1.356570981439999928e-02,-1.226446311920000032e-02,-1.157301478089999870e-02,1.000000000000000000e+00
9.352466200000000285e-01,-2.727195597400000171e+00,3.635784971369999674e-01,-9.454347551170000585e+00,-5.313551053400000258e-03,-3.621191019189999583e-03,-9.654618799690000211e-03,1.000000000000000000e+00
9.401068489999999667e-01,-2.717319807820000044e+00,3.721753162969999584e-01,-9.417798566449999242e+00,-1.343374722640000183e-03,2.588017377999999864e-04,-6.262948736549999763e-03,1.000000000000000000e+00
9.452706389999999681e-01,-2.679827697029999900e+00,3.741686455379999998e-01,-9.447491109400001363e+00,1.997394952920000279e-03,-1.299139112229999969e-03,-3.711205208669999655e-03,1.000000000000000000e+00
9.502023440000000321e-01,-2.690409881320000363e+00,3.818385591120000422e-01,-9.396679206059999956e+00,-1.124953106050000096e-02,3.048917278649999888e-06,-9.049714542929999939e-03,1.000000000000000000e+00
9.552042020000000022e-01,-2.709009952369999752e+00,3.706420788470000116e-01,-9.447149748619999343e+00,9.456241969019999925e-05,7.265552878379999587e-03,2.862938214090000270e-03,1.000000000000000000e+00
9.601403910000000375e-01,-2.656805425619999994e+00,3.469355515020000058e-01,-9.440794242110001733e+00,-4.569642245770000333e-03,2.510273130610000177e-03,-1.568760909140000034e-02,1.000000000000000000e+00
9.651261020000000412e-01,-2.717596286670000083e+00,3.971455434350000258e-01,-9.409110233080001606e+00,-9.675847366450000125e-03,4.174803383650000158e-03,-3.461432643230000477e-04,1.000000000000000000e+00
9.700606779999999540e-01,-2.663175252909999902e+00,4.103423306710000107e-01,-9.394965387870000129e+00,-1.333953579890000086e-03,-4.859112203119999619e-03,-1.140260510149999906e-02,1.000000000000000000e+00
9.751760379999999673e-01,-2.700842135749999873e+00,3.696854722420000461e-01,-9.415282784239998648e+00,-5.727665964510000353e-03,4.763170145449999865e-03,2.482717856760000355e-03,1.000000000000000000e+00
9.801775160000000264e-01,-2.736376098200000051e+00,3.760469335650000189e-01,-9.387655357119999877e+00,1.052874326709999850e-02,-1.431718189269999900e-02,9.565392509100000690e-03,1.000000000000000000e+00
9.851594940000000244e-01,-2.694808116280000387e+00,3.756101130510000052e-01,-9.427751805189998890e+00,8.061546832319999543e-04,-1.347599644210000121e-02,8.205186575649999620e-03,1.000000000000000000e+00
9.902058120000000185e-01,-2.659480197790000222e+00,3.767065665179999967e-01,-9.438496486569999178e+00,4.932788666340000121e-03,-3.124848008159999643e-04,-1.117387972770000036e-02,1.000000000000000000e+00
9.951340060000000154e-01,-2.693351779989999972e+00,3.791710569349999727e-01,-9.416688559380000711e+00,8.234198205170000645e-03,-8.118371479210000768e-03,1.408400014040000038e-03,1.000000000000000000e+00
1.000124089000000049e+00,-2.705208221999999996e+00,3.434204560530000339e-01,-9.438135836560000769e+00,7.849939167500000203e-03,4.773843102159999914e-03,3.240785095840000365e-03,1.000000000000000000e+00
1.005153549999999951e+00,-2.719614056229999743e+00,3.972567852570000335e-01,-9.407149746669999146e+00,4.626013105740000414e-04,-9.083951823409999737e-03,6.194368470459999526e-03,1.000000000000000000e+00
1.010116044000000102e+00,-2.680112651449999994e+00,3.352112479709999926e-01,-9.422705043189999685e+00,-6.302956957369999433e-03,4.506652243439998942e-03,-2.374591771510000098e-03,1.000000000000000000e+00
1.015173389000000093e+00,-2.687183612749999728e+00,3.888034296880000240e-01,-9.412520333789998972e+00,4.661225713789999940e-03,-2.559492597360000024e-03,-4.442920908329999266e-03,1.000000000000000000e+00
1.020166648000000009e+00,-2.699956292820000048e+00,3.684045290540000073e-01,-9.433801022229999944e+00,-8.338276296849999811e-03,1.252650469539999881e-02,-8.061989210550000052e-04,1.000000000000000000e+00
1.025143767999999955e+00,-2.731608445410000030e+00,3.794393524830000364e-01,-9.403503499119999276e+00,1.501394156369999927e-02,3.354738233609999738e-03,9.342094883319999182e-03,1.000000000000000000e+00
1.030261054999999981e+00,-2.691162160990000274e+00,3.710135425080000049e-01,-9.413121806810000436e+00,-2.507288008929999847e-03,-1.536363549529999942e-02,1.225369516760000050e-03,1.000000000000000000e+00
1.035213723999999891e+00,-2.690725230880000041e+00,3.674696958890000253e-01,-9.398425172939999683e+00,1.049374416470000120e-02,1.581403193999999981e-03,7.518353406340000031e-03,1.000000000000000000e+00
1.040259432000000039e+00,-2.669214240820000139e+00,3.935571270209999861e-01,-9.415925758320000227e+00,-4.820545203979999423e-03,-1.749346964059999773e-02,-7.336135022340000214e-03,1.000000000000000000e+00
1.045199192000000110e+00,-2.717607684849999927e+00,3.754152115330000039e-01,-9.449293190389999708e+00,1.038827002050000080e-02,-8.948906324799998924e-03,4.115252289920000132e-03,1.000000000000000000e+00
1.050249605999999947e+00,-2.656838743370000255e+00,3.815932060480000110e-01,-9.418604037619999758e+00,5.389919504520000390e-03,-8.544601500029998936e-03,-1.044208183879999884e-02,1.000000000000000000e+00
1.055241630999999902e+00,-2.680874283470000119e+00,3.814945679789999988e-01,-9.421582761170000708e+00,9.722713148219999874e-04,-1.627575047310000217e-02,-2.378391800449999784e-03,1.000000000000000000e+00
1.060106736999999910e+00,-2.682955473659999868e+00,3.637757367419999777e-01,-9.410501395180000728e+00,1.303868275140000060e-02,-1.166391279550000118e-02,2.955011557790000395e-03,1.000000000000000000e+00
1.065169872000000018e+00,-2.681253638179999843e+00,3.624179654570000020e-01,-9.437403430630000756e+00,1.232668850569999981e-02,-3.865553997459999884e-03,-1.778962905519999946e-03,1.000000000000000000e+00
1.070203647999999896e+00,-2.655211434429999962e+00,3.651874667030000077e-01,-9.388758934450001092e+00,1.836106530390000042e-03,-6.758648902180000757e-03,-1.542803272600000095e-02,1.000000000000000000e+00
1.075106679999999981e+00,-2.715550752319999983e+00,3.242612898140000421e-01,-9.445670908239998553e+00,-5.200932268050000723e-03,-1.057628635320000121e-02,6.599477492270000231e-04,1.000000000000000000e+00
1.080174004000000076e+00,-2.686393631420000094e+00,3.815416219919999796e-01,-9.429025478390000714e+00,-8.750126697120001046e-03,-4.903642460699999574e-03,-4.334439057859999604e-03,1.000000000000000000e+00
1.085047456999999937e+00,-2.688437704459999633e+00,3.433355907810000107e-01,-9.445468079139999418e+00,-2.712024841460000148e-03,1.661866344510000079e-02,-8.012334816160000123e-03,1.000000000000000000e+00
1.090136108999999909e+00,-2.709811039619999917e+00,3.803144913490000278e-01,-9.434875957979999228e+00,-9.598175063729999165e-03,2.392999129369999776e-03,-2.915821271020000143e-03,1.000000000000000000e+00
1.095081423000000109e+00,-2.744259544929999795e+00,3.697359968530000152e-01,-9.428271445149999153e+00,-1.219711382869999869e-03,-1.141740707680000133e-03,9.907111525540001837e-03,1.000000000000000000e+00
1.100094219000000040e+00,-2.678498786510000063e+00,3.663790511079999535e-01,-9.395437681560000698e+00,4.160632379350000243e-03,-1.161775551740000002e-02,-4.096573684359999822e-04,1.000000000000000000e+00
1.105197261000000042e+00,-2.703550517920000118e+00,3.746581826210000354e-01,-9.400307333420000688e+00,2.915641758589999910e-03,-2.044693101200000028e-04,2.717721741650000293e-03,1.000000000000000000e+00
1.110111574000000045e+00,-2.689086816020000104e+00,3.792467890529999663e-01,-9.427256130630000897e+00,-4.882176872339999939e-03,3.923050127920000088e-03,-1.068007014689999895e-02,1.000000000000000000e+00
1.115139368999999991e+00,-2.722232129780000065e+00,3.877918049599999861e-01,-9.394442825309999634e+00,1.079526543620000154e-02,-1.396050560289999968e-03,2.088679932059999897e-03,1.000000000000000000e+00
1.120246198000000026e+00,-2.723207696809999856e+00,3.770551242270000492e-01,-9.404643316799999653e+00,1.556275505570000120e-02,8.026008494199999774e-03,7.323035504669999675e-03,1.000000000000000000e+00
1.125118180000000079e+00,-2.646521932020000190e+00,3.505779265919999887e-01,-9.430225501830001633e+00,8.268363308160000917e-04,-7.809414528310000547e-03,-1.398562453689999874e-02,1.000000000000000000e+00
1.130172541000000086e+00,-2.738046954030000091e+00,3.792078087490000082e-01,-9.429781849710000330e+00,6.399377714840000057e-03,-1.596799306570000077e-02,1.552957110110000116e-05,1.000000000000000000e+00
1.135245314999999922e+00,-2.686207461189999979e+00,3.634617023560000049e-01,-9.464151152299999481e+00,1.692040637139999998e-02,3.879343392330000025e-03,-1.442120969300000020e-02,1.000000000000000000e+00
1.140115227999999981e+00,-2.700464826870000223e+00,3.372826108850000004e-01,-9.451804880950000154e+00,1.450634840879999957e-02,1.420681178569999960e-02,-4.704035818580000299e-03,1.000000000000000000e+00
1.145170170999999959e+00,-2.685028480540000206e+00,3.113029509760000257e-01,-9.431257182959999597e+00,-1.143001951279999911e-03,7.888411637400000523e-04,-4.264811985190000189e-03,1.000000000000000000e+00
1.150119397999999959e+00,-2.736155441190000204e+00,3.625246041690000087e-01,-9.431021036120000645e+00,-6.399198900910000286e-03,-9.654405526820000402e-03,1.168413646520000126e-02,1.000000000000000000e+00
1.155170795000000084e+00,-2.675695127270000029e+00,3.782065227520000072e-01,-9.410511916569999968e+00,3.635797649620000228e-03,-9.437458589669999592e-03,-9.136619046330000937e-03,1.000000000000000000e+00
1.160120025999999971e+00,-2.723651056670000070e+00,3.804062612860000248e-01,-9.429720474910000760e+00,1.394849154170000206e-03,-8.315626531840000432e-03,-3.685868578030000297e-03,1.000000000000000000e+00
1.165172193000000078e+00,-2.697420344599999797e+00,3.828787888800000427e-01,-9.408965856180000031e+00,-4.892875906079999747e-03,-4.532075952739999733e-03,6.416710093620000156e-04,1.000000000000000000e+00
1.170194074000000084e+00,-2.692589563450000334e+00,3.148284216889999931e-01,-9.437178389699999670e+00,-2.413953887299999899e-03,8.434617891909999138e-03,3.737068735059999921e-03,1.000000000000000000e+00
1.175134705000000057e+00,-2.679161342080000008e+00,3.686108652810000108e-01,-9.405486197369999246e+00,-3.338824491950000053e-03,1.180291548369999909e-02,2.303760498760000497e-03,1.000000000000000000e+00
1.180235359000000095e+00,-2.682318637059999844e+00,3.113201578390000224e-01,-9.427782784850000652e+00,-4.373047966510000203e-03,1.705187140030000117e-03,3.196395002310000160e-03,1.000000000000000000e+00
1.185236809999999918e+00,-2.654498902240000291e+00,3.410200438479999985e-01,-9.423797514610001258e+00,-2.605880796910000144e-02,5.876299925149998903e-03,-8.513941429559999572e-05,1.000000000000000000e+00
1.190209317000000100e+00,-2.694874459509999820e+00,3.411187184489999913e-01,-9.425276354990000272e+00,-5.914782173930000116e-03,-1.527376472950000121e-03,1.357491128150000110e-03,1.000000000000000000e+00
1.195035056000000040e+00,-2.706745514570000122e+00,3.959861077340000035e-01,-9.406645304269998675e+00,-1.829259563239999959e-03,-1.380321849140000133e-02,9.941793978209999966e-03,1.000000000000000000e+00
1.200072792000000055e+00,-2.700570040809999739e+00,4.070660489459999587e-01,-9.366630104749999575e+00,5.889909341930000403e-03,-6.845365278419999686e-03,2.713044639679999467e-03,1.000000000000000000e+00
1.205192825999999995e+00,-2.674108442599999691e+00,3.769763964350000274e-01,-9.409240581460000641e+00,-1.258159172719999991e-03,1.491182716559999889e-03,-2.014375105499999902e-02,1.000000000000000000e+00
1.210133351999999940e+00,-2.759797305799999823e+00,3.648957902800000208e-01,-9.429864851819999672e+00,-6.789506878700000622e-03,4.942337982359999542e-03,1.778663601730000017e-03,1.000000000000000000e+00
1.215123367999999981e+00,-2.717626389549999910e+00,3.742380575129999887e-01,-9.446847550800001159e+00,-2.084817364809999837e-02,-3.726069815460000129e-03,5.913360510019999641e-03,1.000000000000000000e+00
1.220145086000000045e+00,-2.655341782809999884e+00,3.874485079480000094e-01,-9.414769574019999254e+00,-7.443067152050000454e-03,-2.900912892069999749e-03,-2.031677868219999709e-04,1.000000000000000000e+00
1.225120812999999975e+00,-2.672731309030000002e+00,3.885862067409999732e-01,-9.429657346549999986e+00,-1.080297864969999994e-02,-1.409849338229999909e-02,-8.444543927909999373e-03,1.000000000000000000e+00
1.230227485999999981e+00,-2.724042686330000240e+00,3.872093654300000631e-01,-9.452242103319999700e+00,-5.875343922529999326e-03,3.700884757559999745e-03,8.211469277740000156e-03,1.000000000000000000e+00
1.235190919000000109e+00,-2.660640473740000012e+00,3.670374784839999793e-01,-9.442823702110000994e+00,5.452084820720000044e-03,-2.771107712759999977e-03,-2.731670392679999906e-03,1.000000000000000000e+00
1.240257616000000063e+00,-2.741310047469999844e+00,3.995215883839999815e-01,-9.415730528010001876e+00,-6.627272814510000269e-03,-4.637819249180000040e-03,8.240202441810000333e-03,1.000000000000000000e+00
1.245147596000000023e+00,-2.702818111990000105e+00,4.125325707240000139e-01,-9.427515073820000424e+00,7.634971756489999928e-03,-6.893144920470000055e-03,-4.594066645950000034e-03,1.000000000000000000e+00
1.250186232999999980e+00,-2.720171690120000374e+00,3.671565748189999923e-01,-9.441936397889998389e+00,1.130151655519999986e-02,-7.767325267199999377e-03,-1.043878262859999862e-03,1.000000000000000000e+00
1.255100217000000073e+00,-2.708982187580000200e+00,3.850794407289999666e-01,-9.426949841160000787e+00,-8.687199093400000890e-03,-6.478807888929999544e-03,3.681109752510000176e-03,1.000000000000000000e+00
1.260108108000000060e+00,-2.667140941680000044e+00,3.970478186810000309e-01,-9.410864383270000744e+00,1.036005746570000004e-02,7.440938614310000677e-03,-3.654391039159999785e-03,1.000000000000000000e+00
1.265047311000000008e+00,-2.681848973720000195e+00,3.231623886609999996e-01,-9.437071422200000725e+00,2.578317653389999766e-03,-2.868827898060000072e-03,-1.572704501450000042e-02,1.000000000000000000e+00
1.270136197000000022e+00,-2.745213192390000057e+00,3.243963874360000221e-01,-9.428940138189998876e+00,-2.746473997830000194e-03,3.246092936019999691e-03,8.188832551239999882e-03,1.000000000000000000e+00
1.275240552999999943e+00,-2.681175312249999720e+00,3.552476719690000340e-01,-9.435281616170000163e+00,3.795491531489999810e-03,-1.927937846629999624e-04,2.139138523490000110e-03,1.000000000000000000e+00
1.280159180999999924e+00,-2.698720029029999967e+00,4.233778994629999737e-01,-9.404231813390000028e+00,-2.784610958770000321e-03,-1.042650733139999925e-02,-4.078547935929999375e-03,1.000000000000000000e+00
1.285154748999999930e+00,-2.728349735880000182e+00,4.619702265770000427e-01,-9.343618647000001332e+00,-1.343645900489999837e-02,-2.994252601639999737e-03,3.993567544969999633e-03,1.000000000000000000e+00
1.290150832999999997e+00,-2.702028130660000027e+00,4.042898622309999968e-01,-9.408996251310000503e+00,3.922436852010000377e-03,-1.125891041010000128e-02,1.738189719619999884e-03,1.000000000000000000e+00
1.295144650999999980e+00,-2.703975173079999905e+00,3.735176342840000330e-01,-9.387566509800000958e+00,1.627042330799999964e-02,2.047247625890000200e-02,5.137860309330000153e-03,1.000000000000000000e+00
1.300283416999999941e+00,-2.691917071010000218e+00,3.553917931469999791e-01,-9.423041727799999379e+00,-1.268135290589999901e-02,-7.208990864460000300e-03,-8.646718924870000099e-04,1.000000000000000000e+00
1.305206123999999912e+00,-2.700277487599999748e+00,3.771428025110000193e-01,-9.393844859410000581e+00,-1.408063899729999902e-02,6.544684991240000069e-03,-1.519495248789999933e-02,1.000000000000000000e+00
1.310112154000000029e+00,-2.735721433690000204e+00,3.725014429779999747e-01,-9.369525826189999407e+00,-1.243960484859999924e-02,4.780401475729999759e-03,1.962530892339999725e-03,1.000000000000000000e+00
1.315216785999999916e+00,-2.672425311820000093e+00,3.543034499209999910e-01,-9.404435227010001341e+00,-1.311074709520000008e-03,5.235406570140000923e-03,-5.419861990960000465e-03,1.000000000000000000e+00
1.320231289000000086e+00,-2.725400238420000232e+00,3.115708446650000130e-01,-9.404601231230000025e+00,-8.430669084190000467e-03,2.168226288630000203e-03,1.654149033130000203e-03,1.000000000000000000e+00
1.325208319999999995e+00,-2.684432268220000140e+00,3.289422141719999804e-01,-9.448413484950000552e+00,3.597456030550000208e-03,-8.978792466219999435e-03,7.324172183870000710e-04,1.000000000000000000e+00
1.330140212999999960e+00,-2.670368087029999948e+00,3.682102120579999749e-01,-9.440748064880001067e+00,-1.176728960129999960e-02,-1.625496777710000278e-03,-3.158224280919999993e-04,1.000000000000000000e+00
1.335313968999999990e+00,-2.685159121190000331e+00,4.256131477019999831e-01,-9.410911729549999549e+00,-2.355429343880000026e-02,2.963493345309999982e-03,-1.239195349630000092e-03,1.000000000000000000e+00
1.340163296999999920e+00,-2.682066415870000053e+00,3.656447820170000140e-01,-9.467782202280000448e+00,-1.123684807680000149e-03,-9.671809151769999308e-03,-3.092330880459999952e-03,1.000000000000000000e+00
1.345122463000000046e+00,-2.648952374029999834e+00,3.691953871700000001e-01,-9.462368360539999301e+00,1.203890889879999891e-02,-7.573071867229999414e-03,-1.264145597819999953e-02,1.000000000000000000e+00
1.350143598000000056e+00,-2.656090263090000292e+00,3.917171251780000585e-01,-9.455308505159999655e+00,3.901362419130000037e-03,-1.302933320400000150e-02,1.165590249000000075e-03,1.000000000000000000e+00
1.355300085000000099e+00,-2.646082663820000125e+00,3.358026745260000445e-01,-9.455019166819999654e+00,8.654898963870000586e-03,-9.986757300790001166e-03,1.185122318570000152e-02,1.000000000000000000e+00
1.360252575000000075e+00,-2.653228443920000235e+00,2.563331790300000246e-01,-9.451678624219999492e+00,-1.253953110429999879e-02,-1.153293298559999970e-03,-1.312118489300000178e-03,1.000000000000000000e+00
1.365160713000000081e+00,-2.632224234330000190e+00,2.529292340709999865e-01,-9.420317855800000473e+00,-9.042743593450001602e-03,-4.623115994040000176e-03,-9.916665032510001490e-03,1.000000000000000000e+00
1.370129039999999909e+00,-2.621946293690000207e+00,2.778020104510000032e-01,-9.417942943360001706e+00,-1.742327772080000045e-02,3.364968579260000292e-04,-5.862853489820000000e-03,1.000000000000000000e+00
1.375166749999999993e+00,-2.697192381069999811e+00,3.481449272919999727e-01,-9.420489120710000108e+00,-1.060566958039999876e-02,1.902074320240000008e-03,9.679948911069999676e-03,1.000000000000000000e+00
1.380176322999999927e+00,-2.709983181320000156e+00,4.186150324430000236e-01,-9.400895946969999528e+00,-1.423856616020000021e-02,-1.793370395899999969e-02,1.405324228109999969e-02,1.000000000000000000e+00
1.385298951000000001e+00,-2.595550161929999877e+00,3.750415193830000105e-01,-9.322625543330000042e+00,-1.875826343890000039e-02,-1.045727636669999995e-02,-5.395944230260000044e-03,1.000000000000000000e+00
1.390302240000000022e+00,-2.747493996809999839e+00,3.418427584080000470e-01,-9.357261387899999505e+00,-2.649866230789999985e-02,-1.054621394719999945e-02,-5.041352938859999105e-03,1.000000000000000000e+00
1.395167653999999979e+00,-2.667644507279999910e+00,2.829959623649999645e-01,-9.386796694470000091e+00,-1.999185234309999726e-02,-4.687925800680000504e-03,-1.392351463440000140e-03,1.000000000000000000e+00
1.400224885000000086e+00,-2.692863411949999897e+00,3.709522042419999832e-01,-9.405685519330001298e+00,-2.844765223559999820e-02,-1.576831005510000161e-02,5.631174426529999980e-04,1.000000000000000000e+00
1.405257761999999966e+00,-2.695530585340000229e+00,3.676273706689999754e-01,-9.372607425589999153e+00,-2.953227981929999746e-02,-1.018854882570000182e-02,9.997602552180000907e-03,1.000000000000000000e+00
1.410195161999999947e+00,-2.644959505009999656e+00,3.411181704599999809e-01,-9.416263027450000322e+00,-4.172110930089999864e-02,-9.917620569469999189e-03,-1.151200011370000047e-02,1.000000000000000000e+00
1.415187701000000020e+00,-2.702551570009999793e+00,3.793653739310000050e-01,-9.390591410569999908e+00,-2.620025165380000104e-02,-2.790989354249999790e-02,1.577701419590000044e-03,1.000000000000000000e+00
1.420151941000000084e+00,-2.704452727460000094e+00,3.995028836829999652e-01,-9.402500459549999690e+00,-3.243834897879999818e-02,-7.095496170220000169e-03,1.273103989660000039e-02,1.000000000000000000e+00
1.425167187000000002e+00,-2.672376211979999638e+00,4.601915995319999508e-01,-9.381523722500000773e+00,-2.633446827529999784e-02,-4.849911201749999672e-03,2.941399253899999733e-02,1.000000000000000000e+00
1.430186709000000000e+00,-2.626265033670000193e+00,4.555594827520000334e-01,-9.379421197260001009e+00,-3.124435991049999764e-02,-1.223963778470000055e-02,7.297380361709999638e-03,1.000000000000000000e+00
1.435242322999999987e+00,-2.628623871750000340e+00,3.864551129959999942e-01,-9.377623207930000149e+00,-1.462391670789999973e-02,-2.468170039359999721e-02,5.340620409699999536e-03,1.000000000000000000e+00
1.440302894000000000e+00,-2.633997381490000400e+00,4.420153799159999841e-01,-9.426296345680000854e+00,-2.500211820009999933e-02,-9.227534756060001191e-04,-5.083128809930000797e-03,1.000000000000000000e+00
1.445082492999999912e+00,-2.711329919750000261e+00,4.079195239710000087e-01,-9.388494730560001500e+00,-3.229136764999999964e-02,-3.491295874119999809e-02,1.394548825919999895e-02,1.000000000000000000e+00
1.450053569000000042e+00,-2.686692906619999821e+00,4.793646116340000152e-01,-9.391714277120000176e+00,-2.431099303069999759e-02,-2.229043468830000166e-02,5.127834621819999522e-03,1.000000000000000000e+00
1.455201063999999933e+00,-2.681493584420000076e+00,4.997486069600000080e-01,-9.380575043469999486e+00,-2.173473313449999708e-02,-2.387710660699999751e-02,-1.591707207259999979e-02,1.000000000000000000e+00
1.460284791000000082e+00,-2.857442564259999873e+00,4.143786004489999897e-01,-9.381298097050001061e+00,-3.123045712709999686e-02,-1.489837095139999804e-02,1.360919512810000037e-02,1.000000000000000000e+00
1.465207122000000028e+00,-2.746132060799999941e+00,4.058414755879999891e-01,-9.392877475680000643e+00,-1.497933547939999874e-02,-4.124677274380000695e-03,2.153682988139999591e-03,1.000000000000000000e+00
1.470078554999999954e+00,-2.760679057070000386e+00,4.205908260279999644e-01,-9.334746189229999658e+00,-2.691208571200000288e-02,-1.366416830569999914e-02,1.980876550080000117e-03,1.000000000000000000e+00
1.475164802000000108e+00,-2.826535969340000065e+00,4.718354217050000354e-01,-9.352165526069999402e+00,-4.052323475480000547e-02,-9.302338585260000459e-03,-2.103289589290000309e-04,1.000000000000000000e+00
1.480135321999999976e+00,-2.769375573750000097e+00,5.050353882570000064e-01,-9.334237070669999525e+00,-3.977964073419999746e-02,-8.642994798719999192e-03,5.355920176949999049e-03,1.000000000000000000e+00
1.485220706000000002e+00,-2.730878085309999648e+00,5.170576518209999417e-01,-9.305483269870000740e+00,-2.701394632460000014e-02,4.239850677550000349e-03,8.513068780300000332e-03,1.000000000000000000e+00
1.490169319000000048e+00,-2.862393756920000421e+00,6.051459408470000190e-01,-9.360143080820000350e+00,-3.153675422070000012e-02,-4.529844503850000668e-03,1.286933198569999940e-03,1.000000000000000000e+00
1.495025642999999960e+00,-2.815296197919999965e+00,5.515754960369999571e-01,-9.331159562919999928e+00,-2.437576465309999885e-02,8.405839093030000389e-03,1.235109753909999913e-02,1.000000000000000000e+00
1.500073342000000087e+00,-2.763987743229999960e+00,5.034093579570000365e-01,-9.383238709720000514e+00,-4.406901076440000037e-02,1.516184769570000021e-02,1.691599562760000286e-02,1.000000000000000000e+00
1.505175804000000062e+00,-2.723285145959999376e+00,5.020606832949999765e-01,-9.405614792179999739e+00,-3.522961586710000176e-02,2.100913040340000176e-02,-4.195651039479999893e-03,1.000000000000000000e+00
1.510159221000000107e+00,-2.716671865299999933e+00,5.718864991929999420e-01,-9.424353979439999307e+00,-3.562132269139999668e-02,1.790634542700000192e-02,-1.899154041890000269e-03,1.000000000000000000e+00
1.515223763000000057e+00,-2.669200504550000019e+00,5.402704042999999512e-01,-9.471747598780000388e+00,-3.248667344449999994e-02,5.013330839570000197e-03,1.613163203000000240e-02,1.000000000000000000e+00
1.520281012000000098e+00,-2.629933493050000237e+00,4.976077590070000500e-01,-9.474725153290000534e+00,-1.611034572120000063e-02,-1.529159769420000009e-02,-1.183393225070000082e-02,1.000000000000000000e+00
1.525211125000000001e+00,-2.686776200990000252e+00,3.790994164710000391e-01,-9.419359239900000347e+00,1.213302556429999950e-02,1.156740821900000167e-02,-4.394425544890000722e-03,1.000000000000000000e+00
1.530239243000000027e+00,-2.769414152190000422e+00,3.843667624149999518e-01,-9.396570484979999804e+00,3.313395194710000088e-03,-1.198474783450000124e-03,7.191391196100000056e-04,1.000000000000000000e+00
1.535111407000000039e+00,-2.767129840650000006e+00,3.803319539410000560e-01,-9.321949251499999534e+00,-7.725348230449999298e-03,1.151179429139999842e-02,-6.240272894500000812e-03,1.000000000000000000e+00
1.540177673000000080e+00,-2.713297712689999752e+00,3.582988762329999965e-01,-9.253777632549999410e+00,9.212221018970000522e-03,1.948385871950000098e-02,-1.998532749709999723e-02,1.000000000000000000e+00
1.545290038999999949e+00,-2.654138544499999863e+00,3.370716715479999959e-01,-9.184268627519999839e+00,-1.868092454970000232e-02,1.929238624870000321e-02,-4.189846571530000084e-03,1.000000000000000000e+00
1.550305787000000102e+00,-2.552481420059999895e+00,4.747848460949999905e-01,-9.314777752439999503e+00,-1.874304562809999894e-02,1.621937006709999948e-02,5.257091950629999393e-03,1.000000000000000000e+00
1.555235880999999987e+00,-2.406102087440000314e+00,5.991281418620000299e-01,-9.327575859210000431e+00,-3.491888940329999913e-02,1.659479178489999679e-02,2.079243306069999790e-03,1.000000000000000000e+00
1.560215574000000105e+00,-2.358121315860000067e+00,5.975345890600000098e-01,-9.489022558710001221e+00,-2.589748613540000452e-02,-2.709577232600000191e-02,2.266233321279999876e-03,1.000000000000000000e+00
1.565117048999999927e+00,-2.349065464359999744e+00,6.286518310530000431e-01,-9.479967730120000269e+00,-8.236608468000001029e-03,-8.956487290559998760e-03,-1.837074384090000082e-02,1.000000000000000000e+00
1.570215651000000046e+00,-2.514462947309999752e+00,4.804582520889999486e-01,-9.465265251030000826e+00,-7.625071797520000319e-03,-3.301238641140000207e-02,-5.286931991579999456e-03,1.000000000000000000e+00
1.575245414999999927e+00,-2.610306124779999681e+00,3.153839366800000321e-01,-9.365110932360000362e+00,2.922678180040000004e-02,-4.826524108649999506e-02,-2.568908967079999717e-02,1.000000000000000000e+00
1.580124054999999972e+00,-2.849552687790000594e+00,2.454850738109999875e-01,-9.387007706869999524e+00,2.567665651440000085e-02,-4.772762209180000242e-02,9.398233145480000203e-03,1.000000000000000000e+00
1.585272776999999911e+00,-2.805348219879999938e+00,3.902634923030000036e-01,-9.450685521529999633e+00,1.684708707029999863e-02,-4.239809513090000287e-02,-9.283827617760000844e-03,1.000000000000000000e+00
1.590138381000000045e+00,-2.844014342879999990e+00,4.215184622670000159e-01,-9.427211706960001436e+00,2.580706588919999891e-02,-2.964124083519999869e-02,-2.626429125670000017e-02,1.000000000000000000e+00
1.595132433000000072e+00,-2.822052978709999937e+00,2.620776957650000072e-01,-9.403172075209999647e+00,6.980521138760000834e-03,-3.371670842169999932e-02,-1.667526364329999927e-02,1.000000000000000000e+00
1.600257789000000042e+00,-2.755450216509999439e+00,1.276932911810000071e-01,-9.379819256669998495e+00,1.882803253829999982e-02,-1.771402661690000147e-03,-1.527876593169999984e-02,1.000000000000000000e+00
1.605183406999999951e+00,-2.764040934720000120e+00,8.113128209549999581e-02,-9.395319023619999044e+00,-7.678027730439998880e-03,1.026899181310000041e-02,-3.807351458820000274e-03,1.000000000000000000e+00
1.610161530999999924e+00,-2.829466469829999831e+00,1.197047401119999965e-01,-9.497688095720000945e+00,4.765769001100000728e-03,-2.444803481920000167e-03,1.130310259759999963e-02,1.000000000000000000e+00
1.615129757000000055e+00,-2.787754111000000368e+00,2.803117282490000250e-01,-9.481794945539999020e+00,-1.542844343929999917e-02,-9.637219831349999946e-03,1.991343498229999898e-02,1.000000000000000000e+00
1.620247978000000089e+00,-2.787901995039999914e+00,4.066105602639999983e-01,-9.468718606350000400e+00,-1.872622594240000091e-02,-1.211885828520000048e-02,1.350916363300000075e-02,1.000000000000000000e+00
1.625309903000000000e+00,-2.820839511259999988e+00,4.321140905610000305e-01,-9.423658398400000635e+00,-2.385660447180000185e-02,3.233044408260000047e-04,4.647776018830000223e-03,1.000000000000000000e+00
1.630154104000000048e+00,-2.797033396000000227e+00,4.507241350180000161e-01,-9.450389168930000139e+00,-1.937518082559999688e-02,5.256174132230000129e-03,1.060629449779999962e-02,1.000000000000000000e+00
1.635190440999999995e+00,-2.741899245540000418e+00,5.753362377880000267e-01,-9.472288281530000020e+00,-2.824550122019999984e-02,2.379084937270000213e-02,1.038935966789999998e-03,1.000000000000000000e+00
1.640177357000000002e+00,-2.733146322500000114e+00,7.156944469509999296e-01,-9.450904717240000252e+00,-2.771100495010000303e-03,1.394417509439999960e-02,1.259859465060000037e-02,1.000000000000000000e+00
1.645109026000000085e+00,-2.697014101890000237e+00,6.429039360280000004e-01,-9.480064176229999973e+00,3.531911410390000186e-03,9.326216764749999458e-03,3.264324273909999588e-03,1.000000000000000000e+00
1.650118635999999972e+00,-2.679235576359999982e+00,5.607070065959999239e-01,-9.483815053189998068e+00,8.762480691080000092e-03,9.458665736019999937e-03,-1.785125932660000048e-03,1.000000000000000000e+00
1.655140861000000019e+00,-2.680253228970000290e+00,4.618406819129999841e-01,-9.502073763460000322e+00,4.688297584649999544e-02,1.082449592649999993e-02,-8.372079581020000494e-03,1.000000000000000000e+00
1.660293779000000081e+00,-2.650322201079999829e+00,4.377729565730000272e-01,-9.519636892679999463e+00,3.619683161380000264e-02,5.713461898270000457e-03,-1.214306429029999961e-02,1.000000000000000000e+00
1.665089805000000034e+00,-2.694249021090000085e+00,4.570583430080000231e-01,-9.513371987070000202e+00,3.921140730380000272e-02,1.289420528339999894e-03,-2.202177233990000246e-02,1.000000000000000000e+00
1.670330569000000098e+00,-2.724464711140000439e+00,4.521704979010000014e-01,-9.525473928269999391e+00,2.677502483129999902e-02,-6.414424628019999887e-03,-1.289466209710000109e-02,1.000000000000000000e+00
1.675336318999999907e+00,-2.704165727209999481e+00,4.155136688939999878e-01,-9.496841708029998941e+00,2.628742158409999585e-02,7.861442863939999137e-03,-9.495725855229999665e-03,1.000000000000000000e+00
1.680130904999999952e+00,-2.705756211270000211e+00,3.135506568379999859e-01,-9.463570722070000940e+00,3.873800858859999946e-02,-1.492158230389999986e-02,-1.096188090739999912e-02,1.000000000000000000e+00
1.685258885000000095e+00,-2.734982305759999566e+00,1.933265050939999841e-01,-9.482403432829999090e+00,3.363490104679999620e-02,7.741661742329999929e-03,-7.689584512259999352e-03,1.000000000000000000e+00
1.690157539999999958e+00,-2.800037546250000009e+00,2.114685119139999847e-01,-9.466865671960000839e+00,2.546953037380000201e-02,-2.643705811349999764e-04,5.129265133289999737e-03,1.000000000000000000e+00
1.695215879000000037e+00,-2.749982306489999750e+00,3.295410933800000386e-01,-9.430686689599999895e+00,-9.684107499199999655e-04,-9.654563851650000209e-03,-8.380781859159998695e-03,1.000000000000000000e+00
1.700263663999999952e+00,-2.806136155390000386e+00,4.206962226309999830e-01,-9.481384026660000686e+00,1.730253919959999845e-02,1.172899547960000108e-02,5.590375978500000502e-03,1.000000000000000000e+00
1.705225333000000010e+00,-2.781544150450000252e+00,4.518262145080000347e-01,-9.455517763989998770e+00,-1.665988471360000051e-03,5.834689363840000337e-03,9.754378348589999928e-03,1.000000000000000000e+00
1.710133302000000022e+00,-2.819175961970000088e+00,4.853359776609999510e-01,-9.446378179730000824e+00,1.114154327660000013e-02,6.700663827359999887e-03,1.509418338539999897e-02,1.000000000000000000e+00
1.715249870999999926e+00,-2.775640771620000002e+00,4.768091915300000649e-01,-9.452305816209999989e+00,9.629412554200000515e-03,1.619708165530000035e-02,1.951296813789999904e-02,1.000000000000000000e+00
1.720174128000000024e+00,-2.684812207440000265e+00,3.893770283250000408e-01,-9.496431373660000119e+00,1.516272407029999915e-02,1.434979774059999894e-02,9.170977398750000328e-03,1.000000000000000000e+00
1.725151682999999991e+00,-2.669540404030000147e+00,3.648273646869999998e-01,-9.440628822419999011e+00,2.960873302070000240e-03,3.007616614919999751e-03,-1.153459539640000128e-03,1.000000000000000000e+00
1.730295523999999974e+00,-2.702075476930000164e+00,2.136440110560000050e-01,-9.456169505900000161e+00,2.973721548909999748e-02,-1.594381220639999944e-02,3.843194339420000216e-03,1.000000000000000000e+00
1.735291734000000030e+00,-2.743962607809999454e+00,2.613437554670000051e-01,-9.460016244460000223e+00,1.929711364209999933e-02,7.308718748390000651e-03,8.014675229790000147e-03,1.000000000000000000e+00
1.740233533000000055e+00,-2.794908366670000088e+00,4.075786381109999801e-01,-9.484897003210001287e+00,4.483161028469999409e-04,2.550570992749999662e-03,1.675799116489999976e-02,1.000000000000000000e+00
1.745301039000000110e+00,-2.676680338909999790e+00,5.145680269619999914e-01,-9.463780565429999569e+00,2.548830118030000463e-03,1.334392093120000122e-02,-3.162906505170000175e-04,1.000000000000000000e+00
1.750328630000000052e+00,-2.775525036289999914e+00,5.195431119610000037e-01,-9.459930904260001938e+00,8.535957895220000827e-03,3.840911434959999680e-03,6.820167880510000225e-03,1.000000000000000000e+00
1.755092445000000057e+00,-2.735324835590000170e+00,4.246251595780000110e-01,-9.426289915939999986e+00,7.933194749060000842e-03,-5.170561373229999591e-03,1.266355626289999937e-03,1.000000000000000000e+00
1.760056480000000034e+00,-2.725928353949999661e+00,3.901599953959999922e-01,-9.411355966180000365e+00,2.145412005479999801e-02,-1.534669194369999703e-03,5.300752352920000236e-03,1.000000000000000000e+00
1.765093280999999958e+00,-2.708385975259999690e+00,3.279664644749999969e-01,-9.446980237269999137e+00,1.609768904749999882e-02,6.563680246470000347e-03,5.320302676409999904e-03,1.000000000000000000e+00
1.770104922000000025e+00,-2.690186301700000282e+00,2.197108185480000087e-01,-9.449728074680001200e+00,2.866358309979999755e-02,2.178387343880000201e-02,-4.829014651479999684e-03,1.000000000000000000e+00
1.775121801999999915e+00,-2.674821267040000450e+00,1.945202814559999771e-01,-9.451175935400000228e+00,8.363164961339999981e-03,1.222174335270000134e-02,5.646029021590000078e-03,1.000000000000000000e+00
1.779972990999999949e+00,-2.721199279599999965e+00,2.779066033359999799e-01,-9.460806518049999170e+00,1.783228479329999894e-02,-1.275082677600000020e-02,9.935807436700000439e-03,1.000000000000000000e+00
1.785128814999999980e+00,-2.740112946640000491e+00,3.762061792479999833e-01,-9.380971349310001983e+00,1.511519309129999954e-02,4.861392080779999847e-03,1.320143975319999947e-02,1.000000000000000000e+00
1.790034820000000026e+00,-2.761509662679999977e+00,4.043603336519999703e-01,-9.432063823169999139e+00,9.800059720870000698e-03,1.832877099510000010e-02,2.021939679980000112e-02,1.000000000000000000e+00
1.794911646999999943e+00,-2.723402050340000269e+00,4.474713802990000211e-01,-9.391131508799999139e+00,2.085983753199999874e-02,-3.654976841060000176e-03,1.675666868689999756e-02,1.000000000000000000e+00
1.800341146999999919e+00,-2.754516442790000408e+00,4.168263954599999432e-01,-9.378762441090000124e+00,2.443759515879999691e-02,1.516676507889999984e-02,4.523655399680000591e-03,1.000000000000000000e+00
1.805181268999999977e+00,-2.753337462139999747e+00,3.442056150810000048e-01,-9.375430081799999371e+00,2.339811623100000043e-02,5.942256189879999671e-03,5.125394556670000157e-03,1.000000000000000000e+00
1.810232896000000036e+00,-2.755657721779999569e+00,3.798622906029999746e-01,-9.374755543539999181e+00,1.566922850910000206e-02,7.076644338670000020e-03,1.147532649340000065e-02,1.000000000000000000e+00
1.815113001999999920e+00,-2.762153513540000382e+00,3.621297231000000227e-01,-9.368235201860001027e+00,8.573505096139999102e-03,5.618016235529999132e-03,1.367985829710000045e-02,1.000000000000000000e+00
1.820260355000000052e+00,-2.710729908029999802e+00,3.994701504569999617e-01,-9.419666698410001260e+00,9.876120835540000420e-03,1.514148525890000006e-02,2.894858084619999702e-02,1.000000000000000000e+00
1.825251410999999990e+00,-2.675006852740000163e+00,5.922175952879999983e-01,-9.419394895730000883e+00,5.413807462899999229e-03,1.470354944470000057e-02,1.782602071759999823e-02,1.000000000000000000e+00
1.830136379000000035e+00,-2.676979029600000004e+00,5.388397504420000539e-01,-9.402319257769999439e+00,-2.162479329849999882e-03,2.302962122489999892e-03,7.900413125749999183e-03,1.000000000000000000e+00
1.835168888999999970e+00,-2.682246740870000146e+00,3.784139184249999954e-01,-9.392318088239999696e+00,3.095583803949999990e-02,9.933888912200001392e-03,-7.963867858050000317e-03,1.000000000000000000e+00
1.840165550000000039e+00,-2.686718625590000187e+00,2.911766202050000141e-01,-9.419359824419998972e+00,2.153873629870000153e-02,-9.816560894250000655e-03,3.314415458589999985e-03,1.000000000000000000e+00
1.845322888000000106e+00,-2.647251123070000212e+00,2.708762480420000007e-01,-9.424290266559999907e+00,2.282451838249999893e-02,2.037122845649999917e-02,-2.077992539850000446e-04,1.000000000000000000e+00
1.850193828999999957e+00,-2.705886559649999690e+00,3.983336572410000054e-01,-9.417027582080001125e+00,1.707491651179999723e-02,8.466294966639999892e-03,8.310345932839999922e-03,1.000000000000000000e+00
1.855132897000000058e+00,-2.716838746300000107e+00,5.234421286929999972e-01,-9.393920262740000027e+00,-6.472264416520000924e-03,-5.250165704639999341e-04,1.981451734899999928e-02,1.000000000000000000e+00
1.860346089999999952e+00,-2.703605755239999908e+00,4.491054843069999802e-01,-9.338725029739999073e+00,2.903756685550000407e-03,6.595354527239999376e-03,7.565635722130000136e-03,1.000000000000000000e+00
1.865085195000000029e+00,-2.657303438270000040e+00,2.120851094420000138e-01,-9.357425054029999245e+00,2.850467339160000016e-02,1.820359751579999838e-02,-5.251937545839999860e-03,1.000000000000000000e+00
1.870018202000000018e+00,-2.698103942950000000e+00,2.173849328830000094e-01,-9.424792955379999171e+00,1.763406209650000139e-02,2.618034370240000103e-02,1.183480583129999965e-02,1.000000000000000000e+00
1.875118449999999992e+00,-2.575749190659999854e+00,3.798728850620000097e-01,-9.441676870169999347e+00,1.328661665320000212e-02,6.784502416850000245e-03,1.176864467559999954e-02,1.000000000000000000e+00
1.879995936999999895e+00,-2.656278186879999836e+00,5.002579447220000253e-01,-9.428960596459999621e+00,1.092263613829999851e-03,8.189910091460000929e-03,2.387941442429999950e-02,1.000000000000000000e+00
1.884956006999999989e+00,-2.640577928919999984e+00,5.840110540880000256e-01,-9.395682596229999461e+00,4.608083516359999694e-03,6.019701249899998829e-03,-1.174295204690000089e-03,1.000000000000000000e+00
1.889982266999999938e+00,-2.737601840610000004e+00,6.095319373780000438e-01,-9.344152315480000581e+00,3.156362473959999776e-02,6.444408558310000222e-03,9.494306519629999719e-03,1.000000000000000000e+00
1.895192384000000008e+00,-2.723183146890000295e+00,5.523088518130000457e-01,-9.362590473970000104e+00,2.989896200600000026e-02,4.903677850959999897e-03,8.653443306680001085e-03,1.000000000000000000e+00
1.900154080000000079e+00,-2.659924142159999949e+00,5.351818855209999892e-01,-9.397293538560001380e+00,2.625543996689999951e-02,4.785273224119999946e-03,3.804464358840000055e-04,1.000000000000000000e+00
1.905120413999999984e+00,-2.688626212770000024e+00,3.960392992260000078e-01,-9.406227955650001249e+00,4.201880097389999735e-02,2.161929197609999825e-02,-7.220018655060000089e-03,1.000000000000000000e+00
1.910196589999999972e+00,-2.704085939969999686e+00,3.447871047640000408e-01,-9.413376073829999413e+00,3.248303011059999745e-02,4.484228789810000212e-03,-6.663007661699999352e-04,1.000000000000000000e+00
1.915197417999999985e+00,-2.776949223870000427e+00,4.168616494369999925e-01,-9.348288976900001046e+00,3.561277687549999765e-02,-5.693428218359999730e-03,2.237186208370000109e-02,1.000000000000000000e+00
1.920289630999999941e+00,-2.655290344880000042e+00,4.856207859520000336e-01,-9.367219302819998816e+00,2.592518180609999778e-02,2.435054071250000035e-02,-7.534126751119999896e-03,1.000000000000000000e+00
1.925173484999999962e+00,-2.694376446859999774e+00,5.095726298270000232e-01,-9.342736018940000164e+00,4.864353314040000681e-02,2.341283485290000105e-02,-1.056682504709999942e-02,1.000000000000000000e+00
1.930249345000000005e+00,-2.688585296240000311e+00,5.199814668450000177e-01,-9.364004432419999802e+00,4.412315040830000479e-02,1.460916735229999923e-02,-6.401508580889999495e-04,1.000000000000000000e+00
1.935222094000000004e+00,-2.691359729390000233e+00,4.976179516070000086e-01,-9.354258698960000729e+00,3.519332036380000417e-02,-2.517822897059999922e-03,-1.082585006950000095e-02,1.000000000000000000e+00
1.939945199000000065e+00,-2.652930630009999735e+00,3.957311100590000241e-01,-9.417499875769999917e+00,3.577383235099999836e-02,2.337520942089999984e-02,-6.752356421199999514e-03,1.000000000000000000e+00
1.945171187999999995e+00,-2.571119777289999853e+00,3.679396880210000220e-01,-9.454051783089999716e+00,3.386631608009999655e-02,9.723887778820000313e-03,-2.759209088980000071e-02,1.000000000000000000e+00
1.950263622999999891e+00,-2.658305016529999953e+00,3.179130898310000286e-01,-9.466511451689999745e+00,3.167597576979999663e-02,2.003911882640000211e-02,-9.288695640860000075e-03,1.000000000000000000e+00
1.955132622999999903e+00,-2.645341490059999856e+00,3.005461955699999521e-01,-9.422664711179999486e+00,2.700601704419999805e-02,1.496190018949999923e-02,-1.109893061220000067e-02,1.000000000000000000e+00
1.960267833999999931e+00,-2.708684665940000347e+00,3.935146761190000397e-01,-9.412905533710000938e+00,2.798966877159999797e-02,8.244106546040000719e-03,3.935300745070000571e-03,1.000000000000000000e+00
1.965250710999999928e+00,-2.617455412009999538e+00,4.388976132209999603e-01,-9.382831297970000151e+00,2.163530699910000063e-02,5.994668230409999111e-03,-1.675753854220000255e-02,1.000000000000000000e+00
1.970110001000000111e+00,-2.691921747190000325e+00,3.385749887830000193e-01,-9.435428915689998419e+00,2.220841683449999854e-02,1.147816190499999960e-03,-5.874367430810000651e-03,1.000000000000000000e+00
1.975139798999999918e+00,-2.715392054620000106e+00,2.555558014490000307e-01,-9.414092697670000121e+00,1.561982277779999824e-02,1.996517553929999869e-02,9.006369858980000156e-03,1.000000000000000000e+00
1.980131362999999922e+00,-2.743247737539999953e+00,2.843073006910000200e-01,-9.406037986030000297e+00,2.659714594480000124e-02,1.257375441489999926e-02,1.881667971609999809e-02,1.000000000000000000e+00
1.985263489000000048e+00,-2.629754044829999859e+00,3.392858404659999660e-01,-9.363159798290000779e+00,7.706402335319999415e-03,1.128165610129999892e-02,-1.408820971850000166e-02,1.000000000000000000e+00
1.990269953999999952e+00,-2.666176480559999895e+00,3.151482282279999825e-01,-9.386828258650000478e+00,-1.577613875269999946e-05,2.335671894250000019e-02,-7.911739870909999597e-03,1.000000000000000000e+00
1.995170812000000016e+00,-2.665198283170000071e+00,2.786031342330000382e-01,-9.486753444730000595e+00,-6.605018861589999693e-03,1.171007659289999801e-02,-2.679076977070000282e-03,1.000000000000000000e+00
2.000272609000000035e+00,-2.635669406349999910e+00,2.426918994289999909e-01,-9.491593285980000516e+00,-2.152849920089999931e-03,5.187254399060000840e-03,1.403876021499999953e-02,1.000000000000000000e+00
2.005123857000000065e+00,-2.616465816450000315e+00,2.477024393340000186e-01,-9.479673131080000203e+00,-1.696535944939999915e-02,1.818561740220000014e-02,-3.292469773440000538e-04,1.000000000000000000e+00
2.010284497999999864e+00,-2.712744462729999917e+00,2.858442462009999629e-01,-9.472633733969999525e+00,-2.641751058399999935e-02,9.373264387250000371e-03,3.166932240129999993e-02,1.000000000000000000e+00
2.015261771000000035e+00,-2.526520172590000168e+00,3.568765883450000231e-01,-9.483450311539998623e+00,-1.362747233359999990e-02,-5.193576216700000053e-04,2.836791798469999720e-03,1.000000000000000000e+00
2.020237080999999879e+00,-2.604694130109999950e+00,6.683214320100000494e-01,-9.522616785280000329e+00,-1.049591787160000095e-02,-9.516204707319999775e-03,-8.031871169810000585e-03,1.000000000000000000e+00
2.025235014999999805e+00,-2.747945539969999906e+00,4.716942596689999712e-01,-9.461576917900000439e+00,-2.171824313699999981e-02,-1.303152926270000241e-02,1.295458711680000027e-02,1.000000000000000000e+00
2.030047983999999861e+00,-2.668261177879999835e+00,4.628820076600000388e-01,-9.497536120030000362e+00,2.222165837880000008e-02,-1.414319127799999916e-02,1.820084638890000217e-02,1.000000000000000000e+00
2.035266528999999824e+00,-2.547439918759999866e+00,2.913916146630000092e-01,-9.489086856120000135e+00,1.494228374210000015e-02,-2.433754503729999852e-02,2.538367174570000089e-03,1.000000000000000000e+00
2.040134082999999876e+00,-2.638673848859999893e+00,1.540649734820000172e-01,-9.568069791939999291e+00,1.745878160000000068e-02,-1.883143931629999851e-02,1.323955133559999962e-02,1.000000000000000000e+00
2.045165619000000046e+00,-2.664626620770000009e+00,2.504563959509999993e-01,-9.581727145889999520e+00,1.652083708900000270e-03,-3.569534793500000330e-02,1.355021819470000020e-02,1.000000000000000000e+00
2.050037818999999928e+00,-2.623025028829999883e+00,2.342638061659999826e-01,-9.512372454639999475e+00,1.399807352570000066e-02,-3.893144428730000578e-02,1.274502836170000007e-02,1.000000000000000000e+00
2.055156192000000104e+00,-2.675490252349999931e+00,2.533978562300000514e-01,-9.525088143830000575e+00,1.105667185039999924e-02,-3.443308547139999759e-02,8.325612172480000364e-03,1.000000000000000000e+00
2.060118366000000201e+00,-2.613292739370000284e+00,2.919917177140000097e-01,-9.567125204570000818e+00,4.947427660229999045e-03,-3.055749833579999783e-02,1.393606886270000109e-02,1.000000000000000000e+00
2.065236654000000005e+00,-2.701569865500000223e+00,3.909130787860000122e-01,-9.588566052000000894e+00,1.885207183659999911e-02,-2.591247297819999906e-02,9.821837767959999341e-03,1.000000000000000000e+00
2.070212839999999943e+00,-2.657036604029999971e+00,2.612979252970000221e-01,-9.702365449660000252e+00,2.278299629690000438e-02,-4.155270382759999881e-02,7.398868445310000097e-03,1.000000000000000000e+00
2.075135770000000157e+00,-2.613026781909999929e+00,1.620912079460000155e-01,-9.746616094800000241e+00,3.232416510580000263e-02,-5.263485386969999485e-02,-3.090064274150000016e-03,1.000000000000000000e+00
2.080189306999999932e+00,-2.660860546229999901e+00,1.328812517449999842e-01,-9.820562790020000321e+00,4.573220014569999436e-02,-5.377681180829999713e-02,1.412329822779999876e-02,1.000000000000000000e+00
2.085203755000000214e+00,-2.574182379729999859e+00,4.228379291009999597e-02,-9.822596926190000133e+00,6.494214385750000929e-02,-4.296458885070000150e-02,1.323019713160000083e-02,1.000000000000000000e+00
2.090120736999999895e+00,-2.448690060059999674e+00,-1.522335842029999831e-01,-9.978975236389999282e+00,7.747505605219999480e-02,-7.886781543489998492e-02,1.608204655349999845e-02,1.000000000000000000e+00
2.095045092999999969e+00,-2.239204136800000189e+00,-3.335165728830000176e-01,-1.007523079399999943e+01,9.036043286319998813e-02,-1.204336434599999894e-01,3.252778947349999755e-02,1.000000000000000000e+00
2.100125929999999919e+00,-2.153224181699999740e+00,-1.940867671429999941e-01,-1.027389107970000026e+01,1.172315627339999972e-01,-1.897220313549999871e-01,6.096955761310000194e-02,1.000000000000000000e+00
2.105126240000000148e+00,-1.997824653409999929e+00,3.277015664610000156e-01,-1.039625839919999883e+01,1.548711657519999951e-01,-3.076058328149999799e-01,8.158352226020000597e-02,0.000000000000000000e+00
2.110126682000000198e+00,-2.038545516979999750e+00,6.586294014919999995e-01,-1.054926401809999881e+01,2.088322043420000051e-01,-4.336925148960000254e-01,6.591933220619999867e-02,0.000000000000000000e+00
2.115223309000000107e+00,-2.754535439750000148e+00,1.148576233949999859e+00,-1.016703346399999930e+01,2.445797622199999966e-01,-5.883592367169999671e-01,5.436529219150000591e-02,0.000000000000000000e+00
2.120169987999999783e+00,-3.846778888040000233e+00,1.700815344989999867e+00,-9.509528171119999485e+00,2.962045073510000126e-01,-6.562322974209999771e-01,6.872452329840000179e-03,0.000000000000000000e+00
2.125151994999999960e+00,-4.252976593180000542e+00,1.622295496640000056e+00,-9.168692288200000817e+00,3.356551527979999561e-01,-6.148980855939999435e-01,-8.835524320599999482e-02,0.000000000000000000e+00
2.130102182999999982e+00,-4.232181350180000301e+00,1.462761060500000099e+00,-9.522444351319999001e+00,3.958373069760000029e-01,-4.488672614100000513e-01,-1.015518978240000092e-01,0.000000000000000000e+00
2.135216489999999911e+00,-3.925230201200000213e+00,1.209272256320000238e+00,-9.569865443180001208e+00,4.398010075090000304e-01,-2.111362665890000045e-01,-1.407189220189999923e-01,0.000000000000000000e+00
2.140168069000000006e+00,-4.396717540120000045e+00,7.826422962600000366e-01,-1.007717257580000059e+01,4.761555194850000117e-01,4.523232579229999328e-03,-1.100414991379999874e-01,0.000000000000000000e+00
2.145119761000000125e+00,-4.988974992500000205e+00,1.219560572229999806e+00,-1.151699728960000080e+01,5.202839374539999229e-01,1.529449224470000035e-01,-8.464248478409999721e-02,0.000000000000000000e+00
2.150230271999999943e+00,-5.596819305580001291e+00,2.673732887289999915e+00,-1.202104688170000024e+01,6.042979359629999658e-01,1.455610245470000119e-01,-1.302540600299999796e-01,0.000000000000000000e+00
2.155238368000000015e+00,-5.194015919049999930e+00,1.970667035759999797e+00,-1.104237603650000032e+01,7.426556944850001285e-01,2.462935298679999885e-01,-1.738230437040000076e-01,0.000000000000000000e+00
2.160358256999999949e+00,-4.622813821919999455e+00,1.701866607609999971e+00,-1.136310202839999839e+01,9.959660768510000262e-01,2.121673971409999970e-01,-2.280545532699999878e-01,0.000000000000000000e+00
2.164914088000000181e+00,-5.816549267220000097e+00,2.030576583929999845e+00,-1.214365385520000018e+01,1.146237254139999884e+00,1.909383386369999935e-01,-1.888401806349999934e-01,0.000000000000000000e+00
2.169736567000000171e+00,-6.997423185119999722e+00,2.135710006180000065e+00,-1.236802375160000089e+01,1.334902524949999947e+00,2.413554303350000027e-02,-6.070877611639999977e-02,0.000000000000000000e+00
2.174748741000000152e+00,-9.016393940800000451e+00,2.767045377230000103e+00,-1.254064124890000187e+01,1.557269811629999889e+00,-3.328091800209999618e-01,7.102745026350000546e-02,0.000000000000000000e+00
2.179818082999999795e+00,-8.624411808010000513e+00,1.207047785209999891e+00,-1.758522648490000151e+01,1.761746406559999922e+00,-5.341345667840000644e-01,3.109792470930000108e-01,0.000000000000000000e+00
2.184752823999999816e+00,-8.620877788670000541e+00,-2.508773503490000056e+00,-1.869599109380000002e+01,1.697599768639999951e+00,-7.101968526840000129e-01,3.717660903930000149e-01,0.000000000000000000e+00
2.189695257999999978e+00,-9.152891492480000224e+00,-5.616010328259999795e+00,-1.511527897119999864e+01,1.489828944210000117e+00,-8.416794538500000922e-01,4.421651065349999632e-01,0.000000000000000000e+00
2.194748841000000006e+00,-7.375127786230000204e+00,-5.393496288860000654e+00,-1.456795254740000090e+01,9.078233838079999840e-01,-7.796322703360000217e-01,4.394110143180000039e-01,0.000000000000000000e+00
2.199825339999999851e+00,-4.724031970430000449e+00,-4.164747690109999567e+00,-1.431354407109999904e+01,1.089538559319999933e-01,-6.096809506420000080e-01,4.064812958239999996e-01,0.000000000000000000e+00
2.204719847999999871e+00,-4.266777447259999967e+00,-3.257936797059999723e+00,-1.405087162430000092e+01,-5.792969465259999451e-01,-4.787696897979999977e-01,3.987276256080000136e-01,0.000000000000000000e+00
2.209791781999999927e+00,-4.501693872119999718e+00,-1.703066046530000044e+00,-1.386050570430000128e+01,-9.948244690899999965e-01,-5.401121377940000245e-01,3.672934174539999597e-01,0.000000000000000000e+00
2.214789960000000058e+00,-4.351915106319999893e+00,5.042649153410000418e-01,-1.247954117579999966e+01,-1.153118014339999942e+00,-7.074957489969999624e-01,3.062320351599999713e-01,0.000000000000000000e+00
2.219897381000000003e+00,-3.883483647840000330e+00,2.214951885200000081e+00,-1.137717848449999991e+01,-1.112432122229999987e+00,-1.006894946100000077e+00,2.950458526610000298e-01,0.000000000000000000e+00
2.224870939000000103e+00,-4.049661759770000202e+00,2.738383638629999783e+00,-1.100856378329999963e+01,-9.170776605609999299e-01,-1.243665218349999879e+00,3.060548305510000233e-01,0.000000000000000000e+00
2.229875004000000160e+00,-4.691935581200000094e+00,2.666705180609999726e+00,-1.185529050230000081e+01,-6.182479858399999584e-01,-1.354959607120000076e+00,3.224572539330000098e-01,0.000000000000000000e+00
2.234950695999999848e+00,-5.276607693019999878e+00,2.634313315570000036e+00,-1.270912617650000165e+01,-3.422638177869999909e-01,-1.411472558980000125e+00,3.001229465010000208e-01,0.000000000000000000e+00
2.240011915999999825e+00,-5.864988596219999906e+00,2.373146158780000015e+00,-1.298892745270000049e+01,-1.467711180450000097e-01,-1.401187300679999970e+00,3.285582661629999901e-01,0.000000000000000000e+00
2.245039385000000109e+00,-5.920757829709999420e+00,1.421290109210000097e+00,-1.289450378660000140e+01,-6.836270540949999919e-02,-1.273192167279999953e+00,3.749840259550000221e-01,0.000000000000000000e+00
2.249995509000000116e+00,-5.563032771310000513e+00,3.433822429349999705e-01,-1.263408408719999976e+01,-7.373192161319999660e-02,-1.112599730489999938e+00,4.295082390309999942e-01,0.000000000000000000e+00
2.255088735999999816e+00,-4.943925305940000570e+00,-1.305064420560000070e-02,-1.208793138339999906e+01,-1.385717242960000095e-01,-1.029654979710000084e+00,4.463252425190000205e-01,0.000000000000000000e+00
2.260073466999999781e+00,-4.157568299999999439e+00,5.447199219209999943e-02,-1.153751166980000065e+01,-2.893304228779999820e-01,-1.065045833589999935e+00,4.423394799229999896e-01,0.000000000000000000e+00
2.265111554999999832e+00,-3.423265598690000022e+00,3.142242087179999976e-01,-1.092147469789999903e+01,-4.572679996490000010e-01,-1.144315481190000039e+00,4.214324653149999489e-01,0.000000000000000000e+00
2.270116767999999841e+00,-3.049616118189999892e+00,5.736967269530000024e-01,-1.031968252450000101e+01,-5.457554459569999850e-01,-1.270529389380000040e+00,4.209547340869999599e-01,0.000000000000000000e+00
2.275139939999999861e+00,-2.880288894580000036e+00,9.260626329400000190e-01,-9.801194072679999536e+00,-6.121948957439999894e-01,-1.382256269450000019e+00,4.254429936410000224e-01,0.000000000000000000e+00
2.280005155000000006e+00,-2.958057193909999771e+00,1.146795561080000025e+00,-9.462836562569998833e+00,-6.284227967259999881e-01,-1.461740851399999874e+00,4.515192508699999996e-01,0.000000000000000000e+00
2.285094192999999940e+00,-3.004657909310000097e+00,1.160827666629999921e+00,-9.234924463520000515e+00,-6.166934967039999771e-01,-1.471101164819999862e+00,4.782060384749999837e-01,0.000000000000000000e+00
2.290041141000000113e+00,-2.807630485599999837e+00,1.119758720270000119e+00,-9.108910896459999407e+00,-5.977289080619999639e-01,-1.478800296780000023e+00,4.799275398250000269e-01,0.000000000000000000e+00
2.295027377999999896e+00,-2.453855041609999788e+00,1.087988932650000073e+00,-8.795021472649999339e+00,-5.826320052150000262e-01,-1.475836753849999905e+00,4.696151018140000133e-01,0.000000000000000000e+00
2.300212795000000199e+00,-2.076538709159999829e+00,9.746621209360000204e-01,-8.384181494659999956e+00,-5.619978904719999946e-01,-1.439865708350000162e+00,4.811976253989999619e-01,0.000000000000000000e+00
2.305020225999999894e+00,-1.397958333470000092e+00,9.000557927629999622e-01,-7.831518970569999460e+00,-5.621687173839999829e-01,-1.359341025350000010e+00,4.413043558600000527e-01,0.000000000000000000e+00
2.309953884000000013e+00,-6.634224809870000739e-01,1.001421898370000063e+00,-7.194708090719999838e+00,-5.442062020300000302e-01,-1.294079422950000113e+00,4.343418776990000119e-01,0.000000000000000000e+00
2.315046444000000037e+00,3.822304445059999667e-01,1.302550332539999856e+00,-6.334461964970000025e+00,-5.452851653100000417e-01,-1.228873372079999804e+00,4.166290163989999629e-01,0.000000000000000000e+00
2.320218897999999808e+00,1.322222416739999851e+00,1.740826160599999950e+00,-5.481285631469999586e+00,-5.386095047000000191e-01,-1.146265625949999922e+00,3.812251985069999849e-01,0.000000000000000000e+00
2.325219306000000152e+00,2.097905906840000334e+00,2.315187744670000214e+00,-4.590739644530000163e+00,-4.974864423269999558e-01,-1.110036492349999904e+00,3.887454569340000332e-01,0.000000000000000000e+00
2.330096861999999991e+00,2.784135043719999647e+00,2.711922917209999451e+00,-3.806810450259999534e+00,-4.540474116800000681e-01,-1.064389228820000088e+00,4.105436205860000243e-01,0.000000000000000000e+00
2.335224016000000180e+00,3.279740924850000017e+00,2.797369496090000407e+00,-3.077255528000000240e+00,-4.104067683219999596e-01,-1.005059361460000078e+00,4.281742274759999800e-01,0.000000000000000000e+00
2.340180160000000065e+00,3.584057049150000118e+00,2.867461853970000085e+00,-2.656848680239999982e+00,-3.895543515680000013e-01,-9.636456966399998825e-01,4.818053841589999831e-01,0.000000000000000000e+00
2.345138648999999909e+00,3.927109439080000541e+00,3.213025057670000351e+00,-2.166002268600000225e+00,-4.033417999739999926e-01,-8.979710936550000522e-01,5.369251370430000447e-01,0.000000000000000000e+00
2.350165291000000156e+00,3.976354823759999935e+00,3.317517405540000297e+00,-1.886948449719999976e+00,-4.070277810099999782e-01,-8.338397145270000088e-01,5.971490144730000615e-01,0.000000000000000000e+00
2.355086366000000098e+00,3.872066474030000371e+00,3.184631030099999816e+00,-1.742997074900000110e+00,-4.258123040199999765e-01,-7.392798066140000568e-01,6.714416146280000053e-01,0.000000000000000000e+00
2.360059382000000205e+00,3.643355918080000144e+00,3.055855597099999876e+00,-1.859327452340000297e+00,-4.306227564810000130e-01,-6.906696557999999486e-01,7.643597722050000653e-01,0.000000000000000000e+00
2.365134353999999828e+00,3.342081353429999790e+00,2.923177311449999927e+00,-2.068448633950000115e+00,-4.370475709440000411e-01,-6.222231984139999783e-01,8.460919260979999912e-01,0.000000000000000000e+00
2.370166895000000107e+00,2.757338222209999579e+00,2.751917658470000028e+00,-2.727292043519999876e+00,-4.368805885310000359e-01,-5.650449395180000556e-01,9.193938970569999203e-01,0.000000000000000000e+00
2.374970020000000126e+00,1.807739742319999898e+00,2.875858510909999666e+00,-3.111870037530000133e+00,-4.360836446289999557e-01,-4.648181796070000038e-01,9.682849645609999945e-01,0.000000000000000000e+00
2.379950352999999907e+00,8.531856127779999799e-01,2.821547075009999794e+00,-3.338980464810000104e+00,-4.066801965240000039e-01,-2.984732687469999757e-01,9.966120719909999925e-01,0.000000000000000000e+00
2.385221975999999966e+00,1.994841874740000132e-01,2.504284083119999949e+00,-3.608597323909999766e+00,-3.533333539959999658e-01,-5.824478715660000305e-02,9.801986813549999900e-01,0.000000000000000000e+00
2.390213080000000101e+00,-1.178329274920000003e-01,2.288034803199999967e+00,-3.769236214150000208e+00,-2.773306071759999991e-01,2.088192999359999857e-01,8.944210410120000398e-01,0.000000000000000000e+00
2.395066498999999904e+00,-1.194679265490000003e-01,1.762509876890000049e+00,-3.481953057719999745e+00,-2.390446364880000063e-01,4.650908708569999606e-01,7.961807250979999750e-01,0.000000000000000000e+00
2.400233259000000174e+00,1.662987791709999996e-01,1.299561672120000066e+00,-3.299048559649999657e+00,-2.361760437489999753e-01,6.709285974499999972e-01,6.455353498460000283e-01,0.000000000000000000e+00
2.405098235000000084e+00,4.555170683829999900e-01,8.230437186229999647e-01,-2.999261310959999705e+00,-2.306829988960000244e-01,7.995300889020000579e-01,4.847591221329999867e-01,0.000000000000000000e+00
2.410281272000000197e+00,5.935545064480000077e-01,3.467277174380000160e-01,-2.760342372459999805e+00,-2.685908079150000072e-01,8.454599380490001037e-01,2.866298556329999747e-01,0.000000000000000000e+00
2.415123051000000132e+00,5.317412435480000088e-01,1.172283583280000069e-01,-2.799575773959999569e+00,-2.703810036179999932e-01,8.878204822540000096e-01,6.307513266800000851e-02,0.000000000000000000e+00
2.420238464000000089e+00,2.202504418499999783e-01,8.295458853249999820e-02,-3.027375644810000210e+00,-2.975858747960000161e-01,8.903965950009999908e-01,-1.444310694929999972e-01,0.000000000000000000e+00
2.425139022000000200e+00,-2.197612700930000051e-01,-1.164858785309999950e-01,-3.423460244480000192e+00,-3.078105449680000327e-01,9.347053766249999729e-01,-3.309889733790000177e-01,0.000000000000000000e+00
2.430121377999999943e+00,-6.336048503510000041e-01,-1.895655816580000264e-01,-3.940971960209999736e+00,-3.265487849709999835e-01,9.894431829449998883e-01,-5.299519896509999883e-01,0.000000000000000000e+00
2.435214742999999959e+00,-1.071857516729999960e+00,-1.872274210340000022e-01,-4.525651378550000103e+00,-3.106851577760000316e-01,1.050895214079999862e+00,-7.107413411139998916e-01,0.000000000000000000e+00
2.440162034000000091e+00,-1.413253810010000278e+00,-1.165916587259999970e-01,-5.013372936169999683e+00,-2.855487763879999696e-01,1.126195669170000135e+00,-8.740497827529999375e-01,0.000000000000000000e+00
2.445157499000000012e+00,-1.713529134490000105e+00,-2.396808079789999879e-01,-5.477466365449999763e+00,-2.735861539839999912e-01,1.184617519379999928e+00,-1.033211827279999939e+00,0.000000000000000000e+00
2.450221614999999797e+00,-1.949274557509999894e+00,-3.490461504479999699e-01,-5.803052072269999861e+00,-2.808336913589999928e-01,1.256818532939999900e+00,-1.141775250430000055e+00,0.000000000000000000e+00
2.455284126000000011e+00,-1.951574505019999961e+00,-4.194337649470000207e-01,-6.110922674169999347e+00,-2.773845791819999906e-01,1.336808323860000147e+00,-1.257603764530000001e+00,0.000000000000000000e+00
2.460153737000000174e+00,-2.006014389609999782e+00,-2.496620307030000263e-01,-6.417861548190000320e+00,-2.813934981819999903e-01,1.395352602009999998e+00,-1.338698983189999803e+00,0.000000000000000000e+00
2.465144634000000057e+00,-2.041774708159999729e+00,4.105025079349999828e-02,-6.763058548930000136e+00,-2.985994517800000247e-01,1.438937544819999914e+00,-1.388178944589999908e+00,0.000000000000000000e+00
2.470249659999999903e+00,-2.316653725570000155e+00,1.073884985710000101e-01,-7.161440611889998920e+00,-2.956613898279999986e-01,1.432960271839999855e+00,-1.411337375640000058e+00,0.000000000000000000e+00
2.475106749000000050e+00,-2.692553323090000283e+00,1.278213106080000050e-01,-7.683022353539999294e+00,-2.782877385620000088e-01,1.454287290570000168e+00,-1.407767653470000102e+00,0.000000000000000000e+00
2.480116015000000118e+00,-3.274338189029999846e+00,2.256251023589999904e-01,-8.299403024300000098e+00,-2.780521810050000098e-01,1.465041995049999990e+00,-1.398009896279999831e+00,0.000000000000000000e+00
2.485261765000000178e+00,-3.912008900580000503e+00,2.499126809949999972e-01,-8.879007331329999531e+00,-2.535975277420000062e-01,1.498701334000000163e+00,-1.340854167939999897e+00,0.000000000000000000e+00
2.490220131000000059e+00,-4.232575317930000303e+00,9.045299973020000384e-02,-9.477359593450000119e+00,-2.211900651450000033e-01,1.533330678939999858e+00,-1.338281631470000121e+00,0.000000000000000000e+00
2.495157194999999994e+00,-4.642106259150000191e+00,-1.735659023629999853e-01,-1.031738301539999902e+01,-2.057771086690000084e-01,1.598178982729999920e+00,-1.319776058199999991e+00,0.000000000000000000e+00
2.500203180000000192e+00,-5.111844416319999418e+00,-4.126285419120000464e-01,-1.108070898210000088e+01,-1.753199100490000217e-01,1.684774637220000093e+00,-1.325467824940000039e+00,0.000000000000000000e+00
2.505179916999999978e+00,-5.633445447189999733e+00,-7.296028530550000557e-01,-1.162937162289999904e+01,-1.695737242700000036e-01,1.748674511909999785e+00,-1.318329691890000044e+00,0.000000000000000000e+00
2.510176804999999955e+00,-5.902471646919998705e+00,-8.542897015620000145e-01,-1.202844459069999949e+01,-1.455808579919999901e-01,1.812351822849999960e+00,-1.354408621789999989e+00,0.000000000000000000e+00
2.515213000999999782e+00,-6.208929459419999297e+00,-9.875657339120000877e-01,-1.229671325009999983e+01,-1.207200214270000016e-01,1.862607955929999948e+00,-1.385459303860000047e+00,0.000000000000000000e+00
2.520194559000000112e+00,-6.402185840149999585e+00,-1.211057897629999935e+00,-1.234778760369999873e+01,-1.035346984859999986e-01,1.906480193140000168e+00,-1.396849870679999883e+00,0.000000000000000000e+00
2.525134825999999943e+00,-6.509766509430000347e+00,-1.485117415349999970e+00,-1.216219372049999947e+01,-7.719058543439999420e-02,1.911612272259999745e+00,-1.392912268639999951e+00,0.000000000000000000e+00
2.530225060999999886e+00,-6.622853374900000034e+00,-1.820847499559999694e+00,-1.193247077260000033e+01,-3.521694615479999818e-02,1.891123533249999822e+00,-1.342962265010000156e+00,0.000000000000000000e+00
2.535229075000000165e+00,-6.500375580750000104e+00,-2.165345265990000101e+00,-1.169936344299999931e+01,1.381294894959999957e-02,1.833994150159999670e+00,-1.300564289089999992e+00,0.000000000000000000e+00
2.540211252000000197e+00,-6.490933214140000018e+00,-2.329746431379999816e+00,-1.142136600130000090e+01,1.922570914029999786e-02,1.706119537350000215e+00,-1.225030064579999856e+00,0.000000000000000000e+00
2.545200332999999926e+00,-6.537628329819999529e+00,-2.704752587190000224e+00,-1.118488247330000007e+01,4.383644461630000627e-02,1.583524227139999851e+00,-1.127758502960000131e+00,0.000000000000000000e+00
2.550268990000000180e+00,-6.665738576900000822e+00,-2.971135871190000000e+00,-1.096068910249999995e+01,7.095462828870000016e-02,1.454954147340000059e+00,-1.036917686460000043e+00,0.000000000000000000e+00
2.555254596999999794e+00,-6.854552591280000051e+00,-3.097773123120000527e+00,-1.081002390919999989e+01,8.635758608580000606e-02,1.314701080320000104e+00,-9.262118935590000213e-01,0.000000000000000000e+00
2.560197798999999996e+00,-6.778230399099999914e+00,-3.032010318870000276e+00,-1.064369119130000030e+01,1.341864764690000045e-01,1.190442085270000172e+00,-8.525750637050000247e-01,0.000000000000000000e+00
2.565118480000000201e+00,-6.664148677359999162e+00,-3.027000966280000149e+00,-1.057940547379999963e+01,1.648751497269999866e-01,1.059118628500000048e+00,-7.955335378650000289e-01,0.000000000000000000e+00
2.570207884000000220e+00,-6.578102379029999724e+00,-3.071988985780000014e+00,-1.051774893590000026e+01,2.483304291959999854e-01,9.282130599019999817e-01,-7.377489805219999974e-01,0.000000000000000000e+00
2.575181536000000104e+00,-6.392840504179999606e+00,-2.961255405429999765e+00,-1.044405709219999956e+01,3.161778151990000119e-01,7.999060153960000363e-01,-7.014611363410000466e-01,0.000000000000000000e+00
2.580123352999999842e+00,-6.309566008640000057e+00,-2.860234825320000063e+00,-1.041748823420000036e+01,4.123626947399999798e-01,6.844453215600000417e-01,-6.644143462179999959e-01,0.000000000000000000e+00
2.585276594999999844e+00,-6.100584235510000397e+00,-2.724434900519999925e+00,-1.044260513979999949e+01,4.992162883280000241e-01,5.774830579759999694e-01,-6.257537603380000091e-01,0.000000000000000000e+00
2.590274463000000083e+00,-5.893704403090000099e+00,-2.580611828259999907e+00,-1.052463343470000012e+01,5.758877992629999332e-01,4.832808971410000320e-01,-6.122237443920000022e-01,0.000000000000000000e+00
2.595023595999999877e+00,-5.561061178980000186e+00,-2.412155396130000184e+00,-1.044332527080000084e+01,6.549545526500000214e-01,4.143334031109999760e-01,-6.055178046229999778e-01,0.000000000000000000e+00
2.600264679999999995e+00,-5.181392584320000161e+00,-2.271398725700000121e+00,-1.024056397960000098e+01,7.171496152879999197e-01,3.458635509009999609e-01,-6.004091501239999795e-01,0.000000000000000000e+00
2.605193118999999946e+00,-4.591695337819999168e+00,-2.204901031309999926e+00,-9.875085822839999139e+00,7.904182672499999729e-01,2.754264175889999944e-01,-5.994050502780000622e-01,0.000000000000000000e+00
2.610239171999999996e+00,-3.932888022480000245e+00,-2.083461932550000117e+00,-9.738079737119999635e+00,8.315451145169999725e-01,2.025831788780000087e-01,-6.131721138950000372e-01,0.000000000000000000e+00
2.615171752999999821e+00,-3.624614100470000100e+00,-1.620115960640000186e+00,-9.801099380140000150e+00,8.726102113720000109e-01,1.235180720690000067e-01,-6.173081994060000133e-01,0.000000000000000000e+00
2.620062723000000204e+00,8.457222180949999224e-01,-3.801151693850000068e+00,-1.543763694809999976e+01,7.954486608509999668e-01,1.149300858379999901e-01,-7.588369846340000668e-01,0.000000000000000000e+00
2.625289935000000074e+00,3.064465896800000255e+00,4.299193204630000209e-01,-1.526873116480000014e+01,6.697356104849999658e-01,-5.397018417719999517e-02,-8.466141819949999370e-01,0.000000000000000000e+00
2.630114174000000027e+00,-3.097069870220000021e-01,6.071436174700000077e-01,-1.444960440040000016e+01,2.796027064319999700e-01,-2.636531591419999931e-01,-1.080058336260000029e+00,0.000000000000000000e+00
2.635277101999999871e+00,-2.343804182830000027e+00,-1.169434751449999865e+00,-1.518548121920000149e+01,-3.254442811009999881e-01,-3.835253715519999496e-01,-1.241107940670000076e+00,0.000000000000000000e+00
2.640260893999999858e+00,-1.238657048499999941e-01,-2.810098337020000336e+00,-1.296924893880000162e+01,-6.418515443800000275e-01,-7.445093989370000775e-01,-9.240281581879999928e-01,0.000000000000000000e+00
2.645271590000000117e+00,-2.746331675030000419e+00,2.331218549759999981e+00,-1.612950862089999760e+01,-9.815701246259999069e-01,-8.999739289279999888e-01,-5.424958467479999991e-01,0.000000000000000000e+00
2.650164772000000113e+00,-4.324035750269999312e+00,7.000985261510000335e+00,-1.717726995339999974e+01,-1.159566760059999924e+00,-9.520690441130000847e-01,1.922765001649999819e-02,0.000000000000000000e+00
2.655226084999999792e+00,-7.743197128510000304e+00,1.177582475140000184e+01,-1.142926990630000184e+01,-1.074544310570000105e+00,-9.499620795250000027e-01,3.691282272339999615e-01,0.000000000000000000e+00
2.660166149000000146e+00,-6.679916155340000827e+00,6.248509774659999572e+00,-9.888811565860001096e+00,-4.848439991469999932e-01,-7.072030901909999168e-01,3.832655549050000277e-01,0.000000000000000000e+00
2.665194853000000030e+00,-4.264936495569999764e+00,-5.983888312689999989e-01,-1.078480295869999850e+01,1.432390064000000074e-01,-1.699447035790000171e-01,3.364516794680000311e-01,0.000000000000000000e+00
2.670191650000000028e+00,-1.530903599489999989e+00,-1.464480577770000069e+00,-8.593999134089999714e+00,5.696565508840000236e-01,1.786244809629999875e-01,2.689649462699999494e-01,0.000000000000000000e+00
2.675096735999999975e+00,-5.675039001950000772e-01,-1.585127210979999868e+00,-8.845050701189999032e+00,5.158397555349999442e-01,3.687129318710000159e-01,1.519345045090000068e-01,0.000000000000000000e+00
2.680172414999999919e+00,-1.014217667060000050e+00,-8.300396419249999047e-01,-1.040760163100000035e+01,1.311852931980000136e-01,4.084361717099999935e-03,5.628789588809999384e-02,0.000000000000000000e+00
2.685246683999999995e+00,-1.971557262599999971e+00,1.204526669229999847e+00,-1.033016650909999967e+01,-2.790435254570000079e-01,-4.816370904450000268e-01,-5.357501655820000319e-02,0.000000000000000000e+00
2.690200722999999794e+00,-2.403807839020000170e+00,1.497392375030000000e+00,-9.607157355229999141e+00,-5.104078650469999756e-01,-7.891859412190000977e-01,-1.022330969569999887e-01,0.000000000000000000e+00
2.695226451999999995e+00,-3.240681418619999921e+00,1.509675810279999864e+00,-8.463990359910001260e+00,-5.012101531029999890e-01,-8.839589953419999535e-01,-6.254395097490000888e-02,0.000000000000000000e+00
2.700217139999999905e+00,-4.122710044849999811e+00,1.014745855649999973e+00,-8.436696694789999285e+00,-2.477270513769999905e-01,-6.588733196260000424e-01,-3.236069902779999813e-02,0.000000000000000000e+00
2.705151272000000162e+00,-4.946336458730000274e+00,3.468191951129999673e-01,-9.599082769839998974e+00,-1.264934521170000062e-02,-2.865648567680000314e-01,-7.749762386080000232e-02,0.000000000000000000e+00
2.710144799000000049e+00,-4.641772204890000530e+00,-3.055167687900000040e-01,-9.585348258999999871e+00,1.375830173489999975e-01,-1.210808455939999945e-01,-1.859518438580000099e-01,0.000000000000000000e+00
2.715230404000000153e+00,-4.546415057369999957e+00,-6.753815065889999802e-01,-1.003326446049999987e+01,1.059656888250000012e-01,-2.050355635579999974e-02,-2.246097773310000156e-01,0.000000000000000000e+00
2.720234834000000212e+00,-3.983104590280000412e+00,-1.098121838800000027e+00,-9.774525261460000891e+00,-2.736368402840000033e-02,-1.694411598149999851e-02,-1.614399850369999945e-01,0.000000000000000000e+00
2.725159493000000044e+00,-3.255373668579999880e+00,-1.087017530329999815e+00,-9.281094094020000185e+00,-7.782860845330000221e-02,-4.771132022140000747e-03,-8.733566850420000638e-02,0.000000000000000000e+00
2.730073067999999825e+00,-3.212395819860000223e+00,-7.676535475730000835e-01,-9.370214977499999875e+00,-9.019305557010000307e-02,3.714058920740000158e-02,-6.073347851630000321e-02,1.000000000000000000e+00
2.735273161999999925e+00,-3.135427730990000494e+00,-3.254490017610000008e-01,-9.281444807160001531e+00,-5.761536583300000403e-02,6.598326377569999415e-03,-9.580732136960000422e-02,1.000000000000000000e+00
2.740120313999999890e+00,-3.258353853430000058e+00,-8.967557648369998968e-02,-9.278773542119999718e+00,-2.979635074729999888e-02,-2.580944914369999801e-03,-1.028559729460000044e-01,1.000000000000000000e+00
2.745084257999999888e+00,-3.050203562690000147e+00,-1.181065020020000134e-01,-9.444024894600000053e+00,-4.141316190359999733e-02,2.004275284709999827e-02,-9.754762053490000084e-02,1.000000000000000000e+00
2.750119581999999951e+00,-2.846798420649999883e+00,-3.217056870470000329e-01,-9.628381345039999317e+00,-7.886599749330000519e-02,5.495658889410000303e-02,-5.516732111569999653e-02,1.000000000000000000e+00
2.755237822999999864e+00,-2.681569864520000124e+00,-3.774112807209999976e-01,-9.696847563019998617e+00,-8.919377624989999198e-02,6.702805310489999557e-02,-4.024865850809999923e-02,0.000000000000000000e+00
2.760267706000000043e+00,-2.746209509949999905e+00,-3.126030737889999855e-01,-9.657215225339999876e+00,-1.202042102810000068e-01,1.070749387149999982e-01,-2.594918757679999868e-02,0.000000000000000000e+00
2.765202974000000147e+00,-2.856111023390000003e+00,-1.918836858749999874e-01,-9.639071665880001305e+00,-1.284701973200000069e-01,9.474282711740000806e-02,-1.683217845860000145e-02,0.000000000000000000e+00
2.770173842999999803e+00,-2.850414565319999927e+00,1.633451169969999950e-01,-9.566439560389998320e+00,-1.531892418859999994e-01,6.079336628319999963e-02,-3.200568258759999701e-02,0.000000000000000000e+00
2.775026251999999971e+00,-2.834413570849999786e+00,4.467950519399999654e-01,-9.509842643899999004e+00,-1.541045159099999895e-01,3.854949399830000234e-02,-3.766721859569999858e-02,0.000000000000000000e+00
2.780146187000000157e+00,-2.929890253089999952e+00,4.887857162560000357e-01,-9.486206916769999609e+00,-1.075179427859999925e-01,3.587365895509999486e-02,-1.683668978510000080e-02,1.000000000000000000e+00
2.785223087999999958e+00,-2.837013524210000082e+00,3.965056015630000208e-01,-9.426096439200000177e+00,-9.244464337829999545e-02,5.684627592560000109e-02,-3.975486382840000277e-02,1.000000000000000000e+00
2.790174352999999829e+00,-2.933447945569999771e+00,3.982531758829999657e-01,-9.378397699430001566e+00,-4.563441500070000018e-02,7.455969601869999464e-02,-3.414468467239999833e-02,1.000000000000000000e+00
2.795176586000000185e+00,-2.928675616600000087e+00,2.250118658320000020e-01,-9.452217553400000583e+00,-4.086727648969999682e-02,8.625457435849999410e-02,-1.175134256479999986e-02,1.000000000000000000e+00
2.800237277999999996e+00,-2.746879956559999503e+00,1.699773398189999840e-01,-9.569209609619999668e+00,-3.369517996910000035e-02,9.983929991720000285e-02,-1.127703115340000090e-02,1.000000000000000000e+00
2.805151810999999995e+00,-2.620735456590000290e+00,3.451331782549999505e-01,-9.612743630920000726e+00,-2.710017003120000073e-02,9.087438881400000668e-02,-3.587934188539999673e-03,1.000000000000000000e+00
2.810113464000000061e+00,-2.616577167870000054e+00,4.094671918039999858e-01,-9.754043614450001343e+00,-2.691268920899999792e-02,6.949418038130000808e-02,-1.783440634609999992e-02,1.000000000000000000e+00
2.814992850999999963e+00,-2.598895965230000105e+00,4.318961369619999657e-01,-9.762176067500000443e+00,-3.283583372829999847e-02,5.129154026510000103e-02,-2.690059691669999947e-02,1.000000000000000000e+00
2.820028515000000180e+00,-2.662807004119999821e+00,4.660443441480000559e-01,-9.680201548650000376e+00,-3.632319346069999566e-02,2.541187405590000087e-02,-2.251397259530000042e-02,1.000000000000000000e+00
2.825029890999999793e+00,-2.668810628450000166e+00,4.561387804770000165e-01,-9.607188334889999126e+00,-9.948615916070000301e-03,7.069615647200000637e-03,-3.883094713090000372e-02,1.000000000000000000e+00
2.830108941999999850e+00,-2.781972312730000230e+00,5.115141558169999936e-01,-9.559063478660000612e+00,1.244087121450000071e-03,1.397826708849999764e-04,-3.231240063910000015e-02,1.000000000000000000e+00
2.835160157999999875e+00,-2.817517088839999850e+00,3.286986146740000225e-01,-9.542861700930000524e+00,3.490835800769999386e-02,1.241295831280000029e-03,-3.843221068380000410e-02,1.000000000000000000e+00
2.840145006000000194e+00,-2.826891066389999985e+00,2.213568504550000038e-01,-9.452852928700000490e+00,2.728217095140000187e-02,-5.550176836550000693e-03,-5.638282746079999880e-02,1.000000000000000000e+00
2.845183710999999782e+00,-2.896500609190000297e+00,4.777812057670000057e-02,-9.463350357310000405e+00,1.028374303129999875e-02,2.727363025769999859e-03,-6.285286694769999516e-02,1.000000000000000000e+00
2.850112143000000042e+00,-2.919834430759999933e+00,-1.030587714039999936e-01,-9.433911496860000412e+00,-1.357597950849999922e-02,8.744114078580000893e-03,-5.253149941560000119e-02,1.000000000000000000e+00
2.855165836999999929e+00,-2.910191865410000300e+00,1.107431176449999964e-02,-9.431732983779999913e+00,-3.968376666310000078e-02,1.459784619510000152e-02,-3.704195842150000140e-02,1.000000000000000000e+00
2.860221543999999838e+00,-2.918787552059999513e+00,2.431468401220000242e-01,-9.425588489680000848e+00,-4.231643304229999736e-02,-4.522719420490000156e-03,-2.867256291209999836e-02,1.000000000000000000e+00
2.865156471000000149e+00,-2.918759202749999560e+00,4.061631087569999576e-01,-9.406135016660000403e+00,-3.783352673050000003e-02,-4.934839904310000039e-03,-5.531101021920000610e-03,1.000000000000000000e+00
2.870248893999999940e+00,-2.808232250889999726e+00,6.126393288090000722e-01,-9.437956972860000349e+00,-5.177216231819999070e-02,3.784409491350000047e-03,-9.028102271260000228e-03,1.000000000000000000e+00
2.875096349000000107e+00,-2.768380425230000164e+00,6.945643459649999407e-01,-9.446302191880000976e+00,-4.629104211930000490e-02,2.075655758379999979e-02,-2.242000959809999777e-02,1.000000000000000000e+00
2.880211667000000197e+00,-2.799646501109999797e+00,5.410370778230000344e-01,-9.459334107410001025e+00,-4.289840906859999220e-02,6.789477542040000049e-03,-2.298139221970000451e-02,1.000000000000000000e+00
2.885254551000000056e+00,-2.760767612139999994e+00,5.078117576349999718e-01,-9.448481874009999615e+00,-3.504800423980000690e-02,-6.740722805260000380e-03,-4.117597639560000022e-02,1.000000000000000000e+00
2.890118027999999839e+00,-2.781926427759999765e+00,5.517314903169999729e-01,-9.450570370719999502e+00,-3.660696744919999385e-02,3.712782636279999692e-04,-3.846572712060000038e-02,1.000000000000000000e+00
2.895289978000000097e+00,-2.781087638849999877e+00,5.076822129710000242e-01,-9.463954752950000326e+00,-3.488604724410000052e-02,5.978472530839999861e-03,-4.693235456940000189e-02,1.000000000000000000e+00
2.900067654999999966e+00,-2.817818409879999653e+00,4.901567488809999706e-01,-9.429574928960001046e+00,-9.654528694229999554e-04,-2.061742544170000122e-02,-3.066975809630000105e-02,1.000000000000000000e+00
2.905175518000000068e+00,-2.792579339200000010e+00,5.102656170599999541e-01,-9.442816103330001098e+00,2.103918604549999752e-02,-4.595667123790000389e-04,-2.774089574809999667e-02,1.000000000000000000e+00
2.910252691000000169e+00,-2.823886916140000203e+00,5.069498435760000365e-01,-9.439408925239998638e+00,1.980325207109999777e-02,-5.033906549220000526e-03,-4.059088230130000752e-02,1.000000000000000000e+00
2.915156098999999834e+00,-2.863967582109999466e+00,4.223377792930000374e-01,-9.447878062889998318e+00,2.375670149920000238e-02,-8.366163820029999879e-03,-2.029872685669999871e-02,1.000000000000000000e+00
2.920204625999999859e+00,-2.733522462340000292e+00,4.330778940919999820e-01,-9.420936279960001158e+00,4.294554889200000170e-02,-1.206514239310000139e-02,-3.832284361119999566e-02,1.000000000000000000e+00
2.925160669999999907e+00,-2.823932508840000022e+00,3.702535179209999749e-01,-9.399930901330000310e+00,3.821465373039999863e-02,4.716455005109999703e-03,-1.501042582089999987e-02,1.000000000000000000e+00
2.930210735999999816e+00,-2.785599271060000159e+00,2.596738677600000100e-01,-9.394449255050000502e+00,3.864414244889999989e-02,-7.971583399920000078e-04,-9.706532582639999102e-03,1.000000000000000000e+00
