t,ax,ay,az,wx,wy,wz,zv
5.184944999999999832e-03,2.655692203680000141e+00,-1.724029732309999979e-02,9.426237893490000630e+00,1.055431365970000215e-02,3.872367553409999941e-03,4.803264513609999814e-03,1.000000000000000000e+00
1.023684300000000068e-02,2.716395094190000137e+00,-3.170221597399999758e-02,9.409299033650000865e+00,-1.550815813240000000e-02,-5.491834599520000609e-03,-5.562504753470000167e-03,1.000000000000000000e+00
1.519465199999999946e-02,2.716974939900000052e+00,-1.604419657339999777e-02,9.446339016760001428e+00,-2.738205716009999707e-02,6.152237299829999874e-03,1.647262601180000128e-03,1.000000000000000000e+00
2.025553299999999918e-02,2.726380189370000373e+00,-7.860111516389999692e-03,9.432944697659999989e+00,-1.215000665979999950e-04,-8.096212521200000026e-03,7.772183045739999678e-03,1.000000000000000000e+00
2.513381900000000169e-02,2.749434609480000180e+00,-2.240157765999999800e-02,9.409832117619998826e+00,-3.570169676099999977e-03,1.179684139790000003e-02,1.175174955279999905e-02,1.000000000000000000e+00
3.019713599999999942e-02,2.721621304400000163e+00,-1.857221150549999769e-02,9.420708316419998951e+00,-1.268750056620000094e-02,-1.369652152060000030e-02,6.167550571260000183e-03,1.000000000000000000e+00
3.512085399999999996e-02,2.708525675990000270e+00,-3.639738348630000564e-02,9.417555405349999020e+00,7.613282068630000633e-04,6.384196691219999609e-03,1.007231185210000039e-03,1.000000000000000000e+00
4.017954099999999917e-02,2.675142461820000150e+00,-5.563263803590000334e-02,9.402759987270000508e+00,-2.487511932849999913e-02,2.484010532499999861e-03,2.367197722200000201e-02,1.000000000000000000e+00
4.523209000000000257e-02,2.746376683209999836e+00,-7.350658677019999976e-02,9.395949722739999288e+00,-5.508345086130000262e-03,8.985701948399999611e-03,6.197805516419999453e-03,1.000000000000000000e+00
5.010262199999999944e-02,2.680952317150000042e+00,-4.384615598919999746e-02,9.378457320669999930e+00,-2.606535889209999832e-02,2.566705457869999929e-02,1.131996046749999922e-02,1.000000000000000000e+00
5.513760999999999662e-02,2.706929054449999761e+00,-3.528602927749999868e-02,9.408038804460000293e+00,-2.547347545620000028e-02,5.685581825670000568e-03,6.358694285149998904e-03,1.000000000000000000e+00
6.020421900000000326e-02,2.658563082940000211e+00,-5.191564507310000159e-02,9.406094684650000204e+00,-7.246373221279999929e-03,-1.207762584090000049e-02,2.043106593189999987e-02,1.000000000000000000e+00
6.518635700000000033e-02,2.750605991350000057e+00,-6.980111528179999691e-02,9.410340067139999931e+00,-2.163724787529999749e-02,1.037243194880000004e-02,-9.799974504860000952e-04,1.000000000000000000e+00
7.016985000000000583e-02,2.649712544749999843e+00,-7.804939956530000666e-02,9.409874203189998454e+00,-2.771745249630000116e-02,5.606704391540000623e-03,1.739291101690000271e-02,1.000000000000000000e+00
7.518967399999999801e-02,2.759359498909999875e+00,-4.106665850559999831e-02,9.437205277709999507e+00,-8.113075979049999900e-03,3.538514021780000095e-03,-2.067837631329999884e-03,1.000000000000000000e+00
8.021549099999999988e-02,2.679118087460000019e+00,-3.635525224450000120e-02,9.423447385990000313e+00,-2.048221789300000081e-02,8.143741637469999878e-03,9.032154455780001118e-03,1.000000000000000000e+00
8.518628599999999995e-02,2.724840266449999771e+00,-6.511410824299999900e-02,9.404197911120000697e+00,-2.795869298279999790e-02,-9.876839816570000957e-03,3.269064472989999942e-03,1.000000000000000000e+00
9.018977599999999928e-02,2.728529184100000116e+00,-2.715040245509999645e-02,9.405419561869999612e+00,-2.459085360170000165e-02,1.486254855990000109e-02,1.118896808479999914e-02,1.000000000000000000e+00
9.521375599999999662e-02,2.752351958230000228e+00,-3.556610202769999729e-02,9.392536699419999024e+00,-1.020213402809999961e-02,-8.856872445900000742e-04,3.824914107099999881e-03,1.000000000000000000e+00
1.001914379999999938e-01,2.659243758680000180e+00,-4.242327901259999867e-02,9.402511565469998445e+00,-1.537452079360000085e-02,6.203282158819998886e-03,1.643974520270000128e-02,1.000000000000000000e+00
1.051134189999999996e-01,2.696854527419999759e+00,-1.850420375359999869e-02,9.421169504189998989e+00,-9.161282330750000064e-03,1.255899667740000003e-02,1.437219139189999974e-02,1.000000000000000000e+00
1.102549050000000003e-01,2.651779414149999958e+00,-5.988565127130000137e-02,9.433375490289998666e+00,-1.005238480870000034e-02,4.636751022189999558e-03,1.483144704249999939e-02,1.000000000000000000e+00
1.152542039999999990e-01,2.664320915820000302e+00,-5.875823184369999980e-02,9.421752272510000026e+00,-1.421671453859999976e-02,1.284136250620000058e-02,3.397454740480000072e-03,1.000000000000000000e+00
1.200679459999999948e-01,2.655098621699999661e+00,-3.337244389130000072e-02,9.475942127859999786e+00,-2.518933638929999816e-02,8.970053866509999571e-03,5.491128191349999715e-03,1.000000000000000000e+00
1.252301630000000054e-01,2.587176301339999984e+00,-3.578650787930000299e-02,9.450060667629999855e+00,1.732603763230000128e-03,3.954158630220000470e-03,1.531943585720000126e-02,1.000000000000000000e+00
1.302399150000000116e-01,2.634217453979999846e+00,-3.098464228920000049e-02,9.467078437930000590e+00,2.796818502250000230e-03,8.674941957000000328e-03,1.586880162359999985e-02,1.000000000000000000e+00
1.352656150000000057e-01,2.678067409360000095e+00,-4.374604748240000507e-02,9.514194409369999050e+00,-9.221347980200000558e-03,1.140988431869999903e-02,6.221305578949999811e-03,1.000000000000000000e+00
1.402253129999999903e-01,2.677595700190000372e+00,-6.567744578080000895e-02,9.460228425900000460e+00,-7.184180896729999363e-03,1.173920370639999940e-02,4.488148726520000374e-03,1.000000000000000000e+00
1.452058039999999939e-01,2.673874049320000168e+00,-5.513191740560000054e-02,9.447799152440000015e+00,-2.055312320590000144e-02,6.254877895120000524e-03,1.204239204530000058e-02,1.000000000000000000e+00
1.501576890000000108e-01,2.674026609540000265e+00,-5.770883238860000097e-02,9.418450308360000633e+00,-6.124913226809999660e-03,-1.613696687849999799e-03,1.152602396910000146e-02,1.000000000000000000e+00
1.551158099999999929e-01,2.672932092299999951e+00,-1.043461717329999955e-01,9.378983974889999686e+00,-2.136313915250000195e-02,7.460238877679999971e-03,-1.684441929680000147e-03,1.000000000000000000e+00
1.600936749999999908e-01,2.651917069060000021e+00,-9.000348413069998721e-02,9.399472636169999618e+00,-6.866933312270000200e-03,8.476871997119999821e-03,1.121941953900000045e-02,1.000000000000000000e+00
1.651579750000000124e-01,2.662135096210000107e+00,-1.128054638519999930e-01,9.367997885970000382e+00,-8.111297152939999158e-03,1.648315787320000017e-02,8.921223692600000615e-03,1.000000000000000000e+00
1.702389920000000056e-01,2.665924843879999617e+00,-8.284813248330000213e-02,9.391765715049999130e+00,-1.527662761510000140e-02,1.935500465329999947e-02,2.529931953179999794e-03,1.000000000000000000e+00
1.752067880000000022e-01,2.723130247659999892e+00,-7.857019943580000054e-02,9.363567794570000657e+00,-1.518176402900000069e-02,2.013891004029999890e-02,5.197061691430000492e-04,1.000000000000000000e+00
1.801672219999999880e-01,2.673042566929999975e+00,-9.144506124109999523e-02,9.384190895879999772e+00,2.159233903509999875e-03,1.947683095929999761e-02,1.970430277290000087e-02,1.000000000000000000e+00
1.851434839999999971e-01,2.716286665379999743e+00,-7.627181826639999052e-02,9.351796692760000695e+00,2.409589709710000145e-03,1.578614674509999996e-02,1.813874579970000192e-02,1.000000000000000000e+00
1.900444360000000110e-01,2.718994463029999586e+00,-5.309035140829999888e-02,9.411786758819999932e+00,-1.333731110209999873e-03,7.452154066409999791e-03,6.314161233600000880e-03,1.000000000000000000e+00
1.952003300000000052e-01,2.673439749559999523e+00,-9.340857986639998500e-02,9.407424471949999756e+00,-1.191516779360000076e-02,8.947869762780001276e-03,-5.194455850870000058e-03,1.000000000000000000e+00
2.001214839999999884e-01,2.637419757149999988e+00,-1.302197317850000147e-01,9.419286174660001620e+00,-5.913624074310000131e-03,1.435853168370000016e-02,7.477862760420000456e-03,1.000000000000000000e+00
2.052418169999999931e-01,2.673550516460000193e+00,-1.242479821660000122e-01,9.421661671619999012e+00,-5.775649100539999824e-03,1.846382953230000026e-02,1.171248266470000096e-03,1.000000000000000000e+00
2.102876469999999942e-01,2.690954363459999499e+00,-1.233831180980000108e-01,9.384640393219999766e+00,-1.943002082409999928e-02,1.260421611370000049e-02,-1.344534382220000102e-02,1.000000000000000000e+00
2.152741119999999897e-01,2.631409118559999705e+00,-1.551262825700000236e-01,9.411087086110001110e+00,-1.388992834839999913e-02,1.027777604760000095e-02,-1.805702038109999880e-02,1.000000000000000000e+00
2.202052310000000013e-01,2.644082722170000288e+00,-1.951947831839999925e-01,9.477712644669999520e+00,-9.385544806719998967e-03,1.551420055329999839e-02,-8.414569310839999409e-05,1.000000000000000000e+00
2.252007460000000072e-01,2.684447465779999931e+00,-1.545612142999999994e-01,9.501189381839999726e+00,-8.214376866820000123e-03,1.870769076049999882e-02,-1.103441230949999937e-03,1.000000000000000000e+00
2.302487559999999989e-01,2.720226342910000206e+00,-5.891930415689999867e-02,9.555503155830001205e+00,-3.432322759179999919e-03,-5.852248868910000590e-04,-2.255063317720000168e-02,1.000000000000000000e+00
2.352156469999999999e-01,2.612866038389999979e+00,-7.359445684989998626e-02,9.503512271830000913e+00,-8.267732337120000177e-03,-9.240997955199999753e-03,3.835110226650000065e-03,1.000000000000000000e+00
2.401843479999999920e-01,2.656578923390000124e+00,-8.850575638620000740e-02,9.420753324599999701e+00,-8.918518200520000189e-03,-1.863196492200000151e-02,-3.285549581050000237e-03,1.000000000000000000e+00
2.451662139999999934e-01,2.643531225770000326e+00,-9.709223681530000649e-02,9.383170320660001451e+00,6.638790946449999418e-03,-2.007460221649999977e-03,-1.302985567599999894e-02,1.000000000000000000e+00
2.502041249999999994e-01,2.625035491869999849e+00,-6.862803921469999568e-02,9.381234968690000287e+00,1.894318684939999900e-02,-4.149828106159999565e-03,-3.962588496510000176e-03,1.000000000000000000e+00
2.552364619999999973e-01,2.654127146320000019e+00,-4.502190350399999652e-02,9.356282313739999523e+00,6.743014790120000108e-03,-6.997557822609999818e-03,-1.444843597710000066e-02,1.000000000000000000e+00
2.601803910000000108e-01,2.627811678590000088e+00,-4.761256845109999858e-02,9.326829424760001430e+00,-1.387742464430000069e-03,-5.381207447499999560e-03,-1.767995767299999910e-02,1.000000000000000000e+00
2.652332059999999991e-01,2.637225988139999977e+00,-8.599935392269998646e-02,9.290074103810001205e+00,1.394181605429999950e-02,1.388872787359999965e-02,-2.485579624770000232e-02,1.000000000000000000e+00
2.702272250000000153e-01,2.590744515209999932e+00,-1.125813271059999954e-01,9.242526755220000112e+00,2.122637815770000297e-02,7.484070491049999926e-03,-8.011480793359998867e-03,1.000000000000000000e+00
2.752522359999999835e-01,2.635936532859999737e+00,-1.712504650279999818e-01,9.196524297979999929e+00,3.160116076470000090e-02,1.372315548360000109e-02,-1.597386971119999985e-02,1.000000000000000000e+00
2.802394639999999937e-01,2.614986976069999969e+00,-1.558621590970000192e-01,9.305199192230000804e+00,2.062729187310000101e-02,3.430327400569999768e-02,-3.797496482730000622e-02,1.000000000000000000e+00
2.851269069999999850e-01,2.493134620329999773e+00,-1.121874050190000000e-01,9.393871162900000016e+00,2.541228756309999587e-02,5.532052367930000852e-02,-1.016731280829999938e-02,1.000000000000000000e+00
2.902190800000000181e-01,2.674068110589999936e+00,-7.719669172610001129e-02,9.478763030499999687e+00,1.208460237830000054e-02,4.166446998719999795e-02,-4.065449908380000532e-02,1.000000000000000000e+00
2.951600979999999819e-01,2.591364985200000248e+00,-5.959558685010000328e-02,9.458983394280000567e+00,4.231105744839999683e-02,5.002556741240000299e-02,-1.909069903190000264e-02,1.000000000000000000e+00
3.001351640000000098e-01,2.729704365350000383e+00,-6.425089270950000431e-02,9.501025715710001762e+00,6.256036460399999610e-02,4.393834248189999736e-02,-3.082363307479999912e-02,1.000000000000000000e+00
3.052166640000000264e-01,2.684954538519999989e+00,-1.121784636599999913e-01,9.456342524380000114e+00,4.630321264270000070e-02,3.292753174899999691e-02,-2.509054541590000076e-02,1.000000000000000000e+00
3.101912199999999897e-01,2.664590964929999917e+00,-1.558995319650000044e-01,9.475549913669999214e+00,6.683160364630000294e-02,3.180506452919999727e-02,-2.638565935190000100e-02,1.000000000000000000e+00
3.152199880000000065e-01,2.740373351150000136e+00,-1.253674329159999989e-01,9.450060667629999855e+00,8.505473285910000736e-02,3.247890621419999985e-02,-4.169397056100000026e-02,1.000000000000000000e+00
3.202714059999999807e-01,2.728354996570000246e+00,-5.849591851250000168e-02,9.505094572590000013e+00,1.043816581369999968e-01,2.395113185050000079e-02,-2.036394178870000113e-02,1.000000000000000000e+00
3.252211050000000103e-01,2.781584190199999806e+00,-1.689892740629999821e-02,9.507899693139998831e+00,1.071068048480000034e-01,6.571566220370000065e-03,-1.790871471170000021e-02,1.000000000000000000e+00
3.302100009999999752e-01,2.763837521100000139e+00,-5.485003629079999998e-02,9.510117369189998726e+00,1.006370335820000045e-01,-9.438896551729998932e-03,-1.953315362329999944e-02,1.000000000000000000e+00
3.352132159999999805e-01,2.721054318170000208e+00,-1.307312615039999959e-01,9.527430323039999038e+00,1.256256699559999968e-01,-8.421098813409999204e-03,-2.129615843299999950e-02,1.000000000000000000e+00
3.402080490000000124e-01,2.730669995520000004e+00,-1.434650982700000077e-01,9.561382861520000276e+00,1.145143583420000083e-01,-9.258819743989999546e-03,-3.594531863930000570e-02,1.000000000000000000e+00
3.452131259999999813e-01,2.640001298080000058e+00,-9.784588646050000615e-02,9.583983984910000586e+00,1.150682866570000018e-01,-3.745589777830000272e-02,-3.630125522609999739e-02,1.000000000000000000e+00
3.502337830000000207e-01,2.643631179009999776e+00,-9.190397485659999866e-02,9.588360300299999750e+00,1.050344556569999949e-01,-4.168869182469999574e-02,-3.235240280630000131e-02,1.000000000000000000e+00
3.552517099999999983e-01,2.708598741219999884e+00,-1.320509566670000079e-01,9.491554707539998859e+00,1.031051576139999926e-01,-6.713666021820000052e-02,-5.344524607059999988e-02,1.000000000000000000e+00
3.601943009999999945e-01,2.672703544240000451e+00,-7.105486906939999237e-02,9.549404254439998851e+00,1.120011359449999966e-01,-6.865936517720000465e-02,-3.248248994349999669e-02,1.000000000000000000e+00
3.652443559999999922e-01,2.705548413740000324e+00,6.067833830220001161e-03,9.517337383570000142e+00,1.376918554309999876e-01,-8.858891576530000811e-02,-4.049172252419999674e-02,1.000000000000000000e+00
3.702315139999999838e-01,2.690018251650000192e+00,3.541065345430000066e-02,9.469570839260001094e+00,1.341781318190000127e-01,-9.349623322489998556e-02,-4.345527663829999721e-02,1.000000000000000000e+00
3.752087029999999768e-01,2.749733007900000192e+00,8.368495776680000275e-02,9.437651852430001043e+00,1.497580260040000111e-01,-9.051263332370000636e-02,-4.601722583169999548e-02,1.000000000000000000e+00
3.802554910000000010e-01,2.722816359409999887e+00,2.708611874699999936e-02,9.361426690889999236e+00,1.585337072609999953e-01,-7.804901152849999524e-02,-2.994849905370000273e-02,1.000000000000000000e+00
3.852327349999999928e-01,2.757388198830000192e+00,4.278781060919999851e-02,9.387654772599999475e+00,1.547048240900000260e-01,-9.488876909019999806e-02,-3.316674008969999754e-02,1.000000000000000000e+00
3.902256049999999754e-01,2.693582958399999949e+00,6.297852098639999952e-02,9.365003380330000127e+00,1.577084213499999887e-01,-7.481360435489999017e-02,-2.751457318659999984e-02,1.000000000000000000e+00
3.952120170000000265e-01,2.674098797990000165e+00,4.972892128430000253e-02,9.317028746240000103e+00,1.679163128139999905e-01,-7.016470283270000163e-02,-4.748401790859999722e-02,1.000000000000000000e+00
4.001882979999999979e-01,2.622783329029999777e+00,2.435465023980000129e-02,9.265155351139998885e+00,1.663814634080000021e-01,-7.370252162219999292e-02,-4.889166727659999268e-02,1.000000000000000000e+00
4.052303059999999846e-01,2.530997025740000073e+00,-2.854084759990000233e-02,9.165417212050000373e+00,1.582809984680000059e-01,-3.744038566949999675e-02,-4.676935076709999584e-02,1.000000000000000000e+00
4.102122300000000110e-01,2.574153738159999705e+00,-6.796903644979999937e-02,9.157654761359999895e+00,1.593786031009999937e-01,-2.089188434179999748e-02,-5.111484229559999648e-02,1.000000000000000000e+00
4.152293240000000107e-01,2.618438577830000114e+00,-9.797471873819998955e-02,9.146890790760000556e+00,1.487733572720000008e-01,-2.036700490860000011e-03,-5.294679850340000549e-02,1.000000000000000000e+00
4.201837999999999962e-01,2.741373468099999933e+00,-4.142188798430000707e-02,9.262882730030000289e+00,1.673794835810000214e-01,2.823315933349999918e-02,-6.676791608330000238e-02,1.000000000000000000e+00
4.252446659999999934e-01,2.751119493830000096e+00,3.709445780580000740e-02,9.415255896230000587e+00,1.801359057429999799e-01,1.712530106309999994e-02,-6.884457916019999513e-02,1.000000000000000000e+00
4.302082050000000102e-01,2.702115808939999919e+00,1.888075914809999797e-02,9.487348488019998527e+00,1.948857307429999741e-01,-1.060305535789999795e-02,-7.346022129060000849e-02,1.000000000000000000e+00
4.352029820000000160e-01,2.634573720070000125e+00,-2.946218652879999816e-02,9.523221765429999763e+00,1.723038852210000138e-01,-5.887654144320000373e-03,-5.985117331149999997e-02,1.000000000000000000e+00
4.402542449999999885e-01,2.655504864420000111e+00,-3.747315035850000420e-02,9.541274723989999984e+00,1.804332435130000245e-01,-4.974560346450000031e-03,-7.951249182219999323e-02,1.000000000000000000e+00
4.452138070000000170e-01,2.659082138380000071e+00,9.226712278029998958e-04,9.595929274249998642e+00,1.888618320229999981e-01,-2.628766931590000022e-02,-8.109916001560001086e-02,1.000000000000000000e+00
4.502025040000000033e-01,2.711754867170000249e+00,2.796932675569999832e-02,9.584466799990000396e+00,2.000694870949999982e-01,-3.421021625399999627e-02,-7.945113629099999353e-02,1.000000000000000000e+00
4.552392679999999747e-01,2.762011474719999971e+00,3.690477131949999878e-02,9.534302546889998453e+00,1.926765888929999893e-01,-3.692165017130000226e-02,-8.268071711060000217e-02,1.000000000000000000e+00
4.602292700000000236e-01,2.678785494500000031e+00,1.144927502179999973e-01,9.534749121619999102e+00,1.853880137210000001e-01,-4.465853422880000645e-02,-8.188404887910001595e-02,1.000000000000000000e+00
4.651890579999999886e-01,2.712701500370000129e+00,1.125306928979999954e-01,9.468706331389999065e+00,2.002977132799999838e-01,-4.793796688319999777e-02,-6.983071565630000199e-02,1.000000000000000000e+00
4.702199409999999746e-01,2.834426430329999747e+00,1.827602124920000015e-01,9.505402031100000926e+00,1.887769997120000154e-01,-7.088535279039999415e-02,-8.199435472489999266e-02,1.000000000000000000e+00
4.752433480000000099e-01,2.826965300670000403e+00,2.487025745529999887e-01,9.588055179870000444e+00,2.202561646699999764e-01,-8.734668046240000316e-02,-6.288205832240000015e-02,1.000000000000000000e+00
4.802673510000000090e-01,2.817323027580000083e+00,2.891137511249999847e-01,9.563038227510000766e+00,2.390918880699999527e-01,-1.041007563470000008e-01,-6.540896743540000613e-02,1.000000000000000000e+00
4.851365750000000143e-01,2.718170579430000178e+00,2.572491613630000229e-01,9.559587794800000538e+00,2.307993918659999866e-01,-1.136683896179999931e-01,-5.730336159469999469e-02,1.000000000000000000e+00
4.902024489999999846e-01,2.626527191740000156e+00,2.181192019750000100e-01,9.536264202359999942e+00,2.328160703180000290e-01,-1.128324046730000002e-01,-4.858613014219999304e-02,1.000000000000000000e+00
4.952761379999999769e-01,2.585566528059999758e+00,1.385953916090000015e-01,9.519144725249999439e+00,2.368696033949999891e-01,-1.179282292720000014e-01,-6.419097632169999679e-02,1.000000000000000000e+00
5.001724749999999498e-01,2.638306184600000215e+00,1.680034459299999949e-01,9.508648465680000328e+00,2.086431980129999919e-01,-1.054594367740000066e-01,-7.288438826800000547e-02,1.000000000000000000e+00
5.051788050000000085e-01,2.652907541399999847e+00,2.578121290079999905e-01,9.598414661319999652e+00,2.140982598070000076e-01,-1.098508015279999889e-01,-6.376365572209999333e-02,1.000000000000000000e+00
5.102530929999999909e-01,2.709935835050000019e+00,4.005100879640000056e-01,9.606094109909999901e+00,1.968385130170000052e-01,-9.844618290660001048e-02,-6.910104304549999354e-02,1.000000000000000000e+00
5.152835059999999467e-01,2.733282516100000059e+00,5.222889766029999992e-01,9.668912092869998531e+00,2.001270204780000173e-01,-1.177423521880000129e-01,-7.365731149910000053e-02,1.000000000000000000e+00
5.202685289999999796e-01,2.729585122890000548e+00,6.423156878119999913e-01,9.670626495569999648e+00,1.778481155629999810e-01,-1.330522745849999910e-01,-5.885826423759999565e-02,1.000000000000000000e+00
5.251033419999999730e-01,2.897152643349999668e+00,7.453824598589999795e-01,9.685714174590000169e+00,1.834034025670000234e-01,-1.293226778509999897e-01,-5.176866799589999873e-02,1.000000000000000000e+00
5.301557609999999476e-01,2.935893585159999652e+00,8.032502000030000699e-01,9.664332948389999345e+00,1.542633175850000038e-01,-1.410252302889999920e-01,-3.163539618249999741e-02,1.000000000000000000e+00
5.351839590000000424e-01,2.902234184400000139e+00,8.125788771009999634e-01,9.624960138420000533e+00,1.506319642070000075e-01,-1.481517106289999830e-01,-1.627686806020000113e-02,1.000000000000000000e+00
5.401925850000000029e-01,2.764922393729999595e+00,8.129792015310000064e-01,9.615746319870000391e+00,1.269560307260000076e-01,-1.358848512170000022e-01,7.636256050319998505e-04,1.000000000000000000e+00
5.452036190000000282e-01,2.729415611540000342e+00,7.768461772019999989e-01,9.545707738010001719e+00,1.190950572489999915e-01,-1.332461982970000181e-01,1.355434488510000139e-02,1.000000000000000000e+00
5.502179919999999891e-01,2.735008609240000332e+00,6.981241573389999067e-01,9.518945403289999163e+00,9.219903498889998883e-02,-1.218004748230000073e-01,2.159810252490000290e-02,1.000000000000000000e+00
5.552423770000000092e-01,2.808949459240000390e+00,6.657675097440000078e-01,9.515096326639998381e+00,5.139137804510000157e-02,-1.047843769189999996e-01,2.157279662790000108e-02,1.000000000000000000e+00
5.601925349999999915e-01,2.872333259399999950e+00,6.512859068609999635e-01,9.519181550129999891e+00,7.191881537440000284e-03,-1.098452657459999954e-01,2.391851134599999942e-02,1.000000000000000000e+00
5.652056869999999567e-01,2.861847228959999878e+00,6.257465380660000021e-01,9.461593869039999660e+00,-1.602435484530000120e-02,-7.310821861030000757e-02,4.045211523769999540e-02,1.000000000000000000e+00
5.701536510000000391e-01,2.916280537670000061e+00,6.480566426170000227e-01,9.439182130739999010e+00,-4.013066366310000244e-02,-9.617495536800001188e-02,4.283905029299999584e-02,0.000000000000000000e+00
5.752680420000000350e-01,2.966569001669999928e+00,6.302141119340000097e-01,9.327721405160000145e+00,-4.943498224019999415e-02,-8.835541456939999261e-02,5.161397159100000048e-02,0.000000000000000000e+00
5.802479430000000438e-01,2.983384527390000152e+00,6.527925120319999497e-01,9.331866249880000908e+00,-5.516853928569999399e-02,-8.198061585429999854e-02,5.993758141990000038e-02,0.000000000000000000e+00
5.851851329999999685e-01,3.009837065510000187e+00,5.857661906589999301e-01,9.294596549670000485e+00,-7.149262726310000315e-02,-8.070391416550000419e-02,6.821152567860000460e-02,0.000000000000000000e+00
5.901561800000000302e-01,2.990900894370000174e+00,5.458732292750000381e-01,9.363671839470001146e+00,-7.098909467460000344e-02,-8.733803033829999618e-02,9.325902163980000215e-02,0.000000000000000000e+00
5.952136209999999705e-01,3.078488576930000331e+00,4.969031178679999550e-01,9.346859236349999378e+00,-4.905629158020000102e-02,-5.875721201300000002e-02,8.171546459200000612e-02,1.000000000000000000e+00
6.001238840000000518e-01,2.956987226590000351e+00,4.385815330100000797e-01,9.315756242080000860e+00,-7.576111704110000122e-02,-9.571488946679999887e-02,9.933035075660001656e-02,1.000000000000000000e+00
6.051360519999999799e-01,2.988594078729999826e+00,3.942139834950000310e-01,9.272099471180000663e+00,-9.125248342750000297e-02,-5.970643833279999646e-02,9.792523831129999745e-02,0.000000000000000000e+00
6.101183430000000074e-01,2.984737111040000279e+00,3.459505225199999701e-01,9.197003021409999590e+00,-1.061685457829999873e-01,-6.554283201690000449e-02,1.034907847639999906e-01,0.000000000000000000e+00
6.151735249999999988e-01,3.026006694539999931e+00,2.754296735619999881e-01,9.169234139989999477e+00,-1.087232679130000074e-01,-6.290537863969999921e-02,1.026431396599999935e-01,0.000000000000000000e+00
6.201916480000000398e-01,2.997569704609999608e+00,2.005804582779999734e-01,9.160365189360000215e+00,-1.146205589179999929e-01,-4.956874996419999985e-02,9.307142347100000324e-02,0.000000000000000000e+00
6.252662900000000024e-01,2.948132596750000278e+00,1.407255629040000122e-01,9.108826140780001523e+00,-1.271201968189999976e-01,-5.128191784020000310e-02,9.961107373239999618e-02,1.000000000000000000e+00
6.302117969999999625e-01,2.961496228450000157e+00,4.199286997240000291e-02,9.080454617300000919e+00,-1.433392465109999958e-01,-3.124901838599999926e-02,6.549464166159998935e-02,1.000000000000000000e+00
6.352599110000000104e-01,2.775074077649999804e+00,-1.506487010479999958e-02,9.046566376219999484e+00,-1.493709981440000112e-01,-2.434702403840000376e-02,7.955097407100000795e-02,1.000000000000000000e+00
6.402548649999999508e-01,2.785309932720000159e+00,-4.462659774319999856e-02,9.053666563620000218e+00,-1.593638062480000062e-01,1.175880664960000065e-03,7.226648926730000477e-02,1.000000000000000000e+00
6.451704769999999645e-01,2.852301109709999505e+00,-6.627147528429999657e-02,9.057596888799999135e+00,-1.384301036599999979e-01,8.024806156750000780e-03,6.907961517570000709e-02,1.000000000000000000e+00
6.502111870000000238e-01,2.842000957240000236e+00,-1.486061692200000006e-01,9.018263826330001010e+00,-1.324194222689999978e-01,2.247517928480000007e-03,6.003814190630000353e-02,1.000000000000000000e+00
6.551826769999999911e-01,2.842479680659999897e+00,-1.630382795370000082e-01,8.990409020189998657e+00,-1.295490264889999910e-01,-2.066080924120000065e-04,3.899414092299999940e-02,1.000000000000000000e+00
6.601909070000000490e-01,2.810724359960000029e+00,-1.459948268109999836e-01,9.032273646980000237e+00,-1.041472703219999962e-01,3.359840717169999824e-03,3.006492555140000134e-02,1.000000000000000000e+00
6.652533210000000086e-01,2.778554028719999902e+00,-1.481922363900000095e-01,9.040355831150000299e+00,-9.021399915219999177e-02,1.241818536070000024e-03,2.166908420619999970e-02,1.000000000000000000e+00
6.702094029999999814e-01,2.803646968920000315e+00,-1.623795964330000119e-01,9.191683287689999204e+00,-9.030695259569998523e-02,2.109942026440000257e-02,5.447610281409999769e-03,1.000000000000000000e+00
6.752095409999999687e-01,2.836396853619999714e+00,-1.284578549460000108e-01,9.283071531579999203e+00,-5.803747475149999974e-02,1.594513840970000068e-02,-2.658191369849999871e-03,1.000000000000000000e+00
6.802065550000000460e-01,2.851229096570000010e+00,2.391454407269999818e-02,9.440243622489999709e+00,-3.533846139909999767e-02,-8.825669065120000933e-03,-1.135446969420000028e-02,1.000000000000000000e+00
6.851601069999999627e-01,2.797562388309999815e+00,1.126429484999999925e-01,9.507447857719999007e+00,-1.342897769060000072e-02,-2.067291364070000109e-02,-1.077309530229999916e-02,1.000000000000000000e+00
6.901382430000000401e-01,2.756634750120000366e+00,1.430118106780000065e-01,9.564433481260000036e+00,3.426214912909999674e-03,-4.460772126910000218e-02,-9.120268747209997820e-03,1.000000000000000000e+00
6.951636389999999999e-01,2.673314954129999865e+00,2.273751243640000086e-01,9.659172204620000812e+00,1.396373845639999924e-02,-5.072645470500000003e-02,-5.031102802600000319e-03,1.000000000000000000e+00
7.000845860000000087e-01,2.632325356620000001e+00,2.835017564619999875e-01,9.656029814940000122e+00,2.754986286159999756e-02,-4.715100675819999809e-02,-1.558170467620000055e-02,1.000000000000000000e+00
7.052110919999999838e-01,2.639970610679999830e+00,3.284246565710000065e-01,9.649167527959999546e+00,1.752978749569999994e-02,-6.304889172319999568e-02,8.406804408880000530e-04,1.000000000000000000e+00
7.102430010000000404e-01,2.759906611389999931e+00,3.956193567809999645e-01,9.740091076939998871e+00,1.619987934830000031e-02,-8.147947490220000533e-02,-1.513143628839999817e-02,1.000000000000000000e+00
7.151775649999999596e-01,2.798377504090000301e+00,5.677230959029999635e-01,9.739484927739999520e+00,1.573799364269999959e-02,-6.864938884969999655e-02,7.118855137380000492e-04,1.000000000000000000e+00
7.202251299999999912e-01,2.908751603469999836e+00,5.540318762139999631e-01,9.709324767280000046e+00,-4.172765766269999539e-04,-6.336747109889999396e-02,9.540924802419999476e-03,1.000000000000000000e+00
7.251418609999999987e-01,2.846819755689999898e+00,4.971139841399999648e-01,9.696558809209999907e+00,-6.707243621350000851e-03,-8.143647760150000969e-02,9.212592616680000818e-03,1.000000000000000000e+00
7.301027150000000132e-01,2.858170878529999737e+00,6.463470622199999349e-01,9.646126260569999999e+00,-1.208048220720000024e-02,-8.204001188280000967e-02,3.171357139950000542e-02,1.000000000000000000e+00
7.352092649999999452e-01,2.961098169040000450e+00,8.025072726809999724e-01,9.582907295589999208e+00,-2.933120168750000256e-02,-8.062663674349999920e-02,4.442581534389999920e-02,1.000000000000000000e+00
7.401917609999999481e-01,2.938868801579999968e+00,8.435366907490000621e-01,9.515650453390000152e+00,-2.714854292570000049e-02,-8.445859700439999063e-02,7.117399573329999396e-02,1.000000000000000000e+00
7.452092259999999468e-01,2.942026681090000206e+00,7.828228404589999689e-01,9.497833057150000258e+00,-5.395465344190000789e-02,-5.510903522369999669e-02,8.174771815539999542e-02,1.000000000000000000e+00
7.502009809999999890e-01,2.983618920670000119e+00,7.361589236350000176e-01,9.477108249029999598e+00,-7.160903513430000311e-02,-5.464427918200000234e-02,8.473998308180000216e-02,1.000000000000000000e+00
7.551835959999999570e-01,2.920210570600000111e+00,6.932104471379999522e-01,9.450790735469999149e+00,-1.318287998440000053e-01,-3.835298493500000072e-02,1.059018522499999976e-01,1.000000000000000000e+00
7.601245070000000048e-01,2.976867985099999725e+00,6.793852623379998956e-01,9.369465620439999753e+00,-1.513897776600000022e-01,-1.508617959920000029e-02,1.034156605599999973e-01,1.000000000000000000e+00
7.651531870000000124e-01,2.993774988500000234e+00,6.645644175639999762e-01,9.326396878560000658e+00,-2.137353867289999987e-01,7.377502042800000714e-03,1.171325892210000053e-01,1.000000000000000000e+00
7.701189130000000160e-01,3.036060178790000119e+00,7.202003070029999732e-01,9.310607188760000597e+00,-2.611001133920000106e-01,3.255803883080000266e-02,1.280110925440000047e-01,1.000000000000000000e+00
7.750479260000000536e-01,3.052581105479999835e+00,6.288520297999999897e-01,9.352046283600000010e+00,-2.653513848779999740e-01,3.617238625880000308e-02,1.474874466659999994e-01,1.000000000000000000e+00
7.801766289999999548e-01,3.188027102279999969e+00,6.704992875060000745e-01,9.390893608389999869e+00,-2.988260388369999854e-01,4.103704541919999532e-02,1.434288620949999982e-01,1.000000000000000000e+00
7.851351109999999967e-01,3.170085202870000174e+00,6.503961914800000521e-01,9.288149273230001057e+00,-3.394294679159999828e-01,5.092164501549999861e-02,1.744687855239999974e-01,1.000000000000000000e+00
7.900281770000000536e-01,3.168524821690000159e+00,5.490911318760000048e-01,9.248293648180000659e+00,-3.431287109849999739e-01,7.286272943020000170e-02,1.858892142770000311e-01,1.000000000000000000e+00
7.951230790000000104e-01,3.124268915849999662e+00,3.729620096949999852e-01,9.210902367419999237e+00,-3.635438084600000064e-01,5.788695439699999973e-02,1.866605728860000202e-01,1.000000000000000000e+00
8.000710309999999881e-01,3.110499625959999737e+00,2.343482330459999985e-01,9.145694274450001160e+00,-4.083237349989999876e-01,9.531575441360000400e-02,2.047861367460000193e-01,1.000000000000000000e+00
8.050851570000000512e-01,3.210417505519999715e+00,1.644846972200000035e-01,9.069296094430001176e+00,-4.304502010350000352e-01,9.110639244319999885e-02,2.023864388469999998e-01,1.000000000000000000e+00
8.101295950000000357e-01,3.195179896640000461e+00,1.563515317830000140e-01,8.961474017609999621e+00,-4.389843046670000026e-01,1.217598617080000029e-01,2.166794836520000156e-01,1.000000000000000000e+00
8.151673750000000274e-01,3.086600571720000019e+00,5.895322469279999644e-02,8.783619788670000261e+00,-4.568474590779999511e-01,1.390231847760000083e-01,2.169276475910000002e-01,1.000000000000000000e+00
8.202096859999999934e-01,2.928540884309999814e+00,6.221187486230000258e-02,8.680949103270000577e+00,-4.494311511519999969e-01,1.506872922180000074e-01,2.152823954820000107e-01,1.000000000000000000e+00
8.251517210000000047e-01,2.955531474829999894e+00,-4.981803575630000189e-03,8.622349614780000948e+00,-4.395191967490000295e-01,1.913501918320000272e-01,2.108094841239999961e-01,1.000000000000000000e+00
8.301484780000000230e-01,2.947538137979999640e+00,-7.658240945230000707e-02,8.734857219069999346e+00,-4.555188417430000025e-01,2.137128114699999859e-01,2.130158990619999970e-01,1.000000000000000000e+00
8.352383909999999689e-01,2.993694908999999793e+00,-2.114493505559999764e-01,8.968791647150000657e+00,-4.303271472449999857e-01,2.228036522869999980e-01,2.067848891019999913e-01,1.000000000000000000e+00
8.401773820000000281e-01,3.024446313359999472e+00,-3.043417336609999801e-01,9.119116648649999490e+00,-4.193244874479999940e-01,2.152972817419999962e-01,2.172993719579999761e-01,1.000000000000000000e+00
8.452444749999999951e-01,3.092233024640000050e+00,-4.400959196280000429e-01,9.246012843769999989e+00,-4.311714470390000109e-01,2.182083427910000151e-01,2.026413083080000066e-01,0.000000000000000000e+00
8.501683669999999804e-01,3.007389087830000030e+00,-4.562422408519999917e-01,9.416150799239998648e+00,-4.227730333810000296e-01,1.965226233010000101e-01,1.996304690839999785e-01,1.000000000000000000e+00
8.551882189999999717e-01,2.911464661819999744e+00,-4.987486361370000454e-01,9.415483275250000617e+00,-3.993808031080000043e-01,1.865402609110000109e-01,2.000581175090000163e-01,1.000000000000000000e+00
8.601834950000000202e-01,2.868776735959999602e+00,-4.876538261489999915e-01,9.428404131619998907e+00,-4.017947912219999584e-01,1.683164387939999895e-01,1.826752275230000278e-01,1.000000000000000000e+00
8.652213050000000516e-01,2.788013346459999653e+00,-5.257997246700000238e-01,9.400167048169999262e+00,-3.992574512960000432e-01,1.547377556560000089e-01,1.835536062719999861e-01,1.000000000000000000e+00
8.701627880000000204e-01,2.692009717729999974e+00,-5.494847343029999331e-01,9.369916286810001438e+00,-3.824856579300000559e-01,1.508026719089999856e-01,1.812992542980000066e-01,1.000000000000000000e+00
8.751899880000000298e-01,2.590524150459999841e+00,-5.973524739590000410e-01,9.294486075040000017e+00,-3.633483946320000268e-01,1.341805309060000173e-01,1.790606677530000024e-01,1.000000000000000000e+00
8.802068020000000104e-01,2.513966103700000065e+00,-6.641492608919999929e-01,9.218846604419999480e+00,-3.413305580619999668e-01,1.389371901750000027e-01,1.492782682179999987e-01,1.000000000000000000e+00
8.852319589999999572e-01,2.312111990490000046e+00,-7.393016055750000204e-01,9.275787804310001050e+00,-3.248128890989999684e-01,1.347590982909999957e-01,1.541802585119999847e-01,1.000000000000000000e+00
8.902078879999999472e-01,2.316213142200000075e+00,-7.806381168310000396e-01,9.282762904020000150e+00,-2.925063371659999967e-01,1.562974601980000044e-01,1.236972734329999934e-01,1.000000000000000000e+00
8.951196409999999659e-01,2.272593926829999944e+00,-7.889156774409999962e-01,9.424850238530000368e+00,-2.760338485240000361e-01,1.720419228079999863e-01,1.143723577260000041e-01,1.000000000000000000e+00
9.000829909999999989e-01,2.329308332220000111e+00,-8.295657408030000513e-01,9.542910800760001422e+00,-2.685561478140000014e-01,1.516685485840000014e-01,8.203157037500000137e-02,1.000000000000000000e+00
9.051429269999999860e-01,2.317395191590000181e+00,-7.861674747119999918e-01,9.637281275330000341e+00,-2.266186177729999918e-01,1.565315872430000088e-01,8.984868228440000271e-02,0.000000000000000000e+00
9.102030070000000084e-01,2.384101998690000279e+00,-7.798069997689999200e-01,9.690528296869999281e+00,-1.974895596500000072e-01,1.420081555839999843e-01,7.049214839939998978e-02,1.000000000000000000e+00
9.152181160000000260e-01,2.410672902489999991e+00,-7.218619566050000769e-01,9.800255330529999753e+00,-1.740194112060000076e-01,1.162866577509999999e-01,5.163446068760000479e-02,1.000000000000000000e+00
9.201692160000000120e-01,2.422894378420000105e+00,-7.155166061660001020e-01,9.865645794330001550e+00,-1.256640553470000088e-01,8.067854493860000809e-02,5.049649998549999436e-02,1.000000000000000000e+00
9.251770459999999474e-01,2.443523617209999887e+00,-7.033174881979999959e-01,9.906884982689998509e+00,-9.496038407089998912e-02,5.409750342369999687e-02,4.632458090779999899e-02,1.000000000000000000e+00
9.301998299999999498e-01,2.400998042299999913e+00,-7.485991568829999387e-01,9.874245280369999378e+00,-6.773570924999999798e-02,1.310194842520000236e-02,3.535610809919999958e-02,1.000000000000000000e+00
9.351460780000000472e-01,2.403225509089999878e+00,-7.673398054490000453e-01,9.771695006469999001e+00,-2.334986440840000274e-02,-1.178521849219999959e-02,2.478506788609999636e-02,1.000000000000000000e+00
9.401292679999999624e-01,2.338183858729999898e+00,-7.903950292789999610e-01,9.710434774349998577e+00,1.610508747399999954e-02,-4.576467350130000028e-02,3.673756495119999410e-02,1.000000000000000000e+00
9.451826890000000203e-01,2.400238894490000163e+00,-8.459942399690000281e-01,9.748789347180000675e+00,5.306867510080000294e-02,-6.435999274249999680e-02,2.090949751440000087e-02,1.000000000000000000e+00
9.501508189999999798e-01,2.366169890020000111e+00,-7.828293432649999772e-01,9.757109431760001783e+00,7.198806107039999735e-02,-6.487963348629999238e-02,1.504576113080000055e-02,1.000000000000000000e+00
9.551143930000000060e-01,2.529469085520000160e+00,-6.693751788470000408e-01,9.725134915349999076e+00,9.903451800349999390e-02,-9.045455604790000881e-02,-9.137596935030000908e-03,1.000000000000000000e+00
9.602104919999999710e-01,2.588143100540000408e+00,-4.884855277329999690e-01,9.779230078150000338e+00,1.439761370419999909e-01,-1.256228834389999938e-01,-9.825544431809999507e-03,1.000000000000000000e+00
9.651632620000000218e-01,2.538751293129999809e+00,-4.249789779839999726e-01,9.823577753929999545e+00,1.770431846379999785e-01,-1.700872778889999937e-01,3.058964153749999665e-03,1.000000000000000000e+00
9.701623900000000411e-01,2.506689390700000075e+00,-4.163591432750000099e-01,9.822412217280000135e+00,2.008024752140000202e-01,-1.801438778640000182e-01,-1.096607465300000056e-02,1.000000000000000000e+00
9.751124660000000111e-01,2.411786708950000246e+00,-3.937313145440000106e-01,9.803532160239999627e+00,2.432696372269999852e-01,-2.079272270199999939e-01,-3.915023058649999901e-03,1.000000000000000000e+00
9.801398089999999730e-01,2.403785627189999996e+00,-4.479309606350000417e-01,9.738588855689998880e+00,2.454320490359999940e-01,-2.343705594539999826e-01,2.317574620249999995e-02,1.000000000000000000e+00
9.851620570000000354e-01,2.539224463600000092e+00,-5.139616585670000459e-01,9.676436058630001114e+00,2.438606172799999972e-01,-2.282202988859999837e-01,-8.446664549409999695e-03,1.000000000000000000e+00
9.900601449999999470e-01,2.524373223680000056e+00,-5.169215678180000273e-01,9.628573068219999698e+00,2.268840968609999731e-01,-2.099425196649999936e-01,-8.797060698269999757e-03,1.000000000000000000e+00
9.951957500000000456e-01,2.641493874720000079e+00,-4.814483591050000011e-01,9.496215100560000621e+00,2.392012327910000014e-01,-2.169847339390000018e-01,-3.276719897989999880e-02,1.000000000000000000e+00
1.000084197999999924e+00,2.743598742929999723e+00,-3.970751816120000055e-01,9.405766183349999920e+00,2.083377540109999926e-01,-1.972157061099999720e-01,-3.988928347830000137e-02,1.000000000000000000e+00
1.005152185000000031e+00,2.795194782400000300e+00,-3.355851958500000176e-01,9.253139334650001047e+00,1.980357766149999921e-01,-1.889107823370000105e-01,-4.069263488049999766e-02,1.000000000000000000e+00
1.010171372000000067e+00,2.942357228220000120e+00,-2.797667346519999709e-01,9.156136758010001486e+00,1.779946833850000187e-01,-1.902934759859999936e-01,-5.456509068609999291e-02,1.000000000000000000e+00
1.015128253000000091e+00,3.006442454630000150e+00,-2.566297325570000010e-01,9.135417210589999115e+00,1.989681869750000165e-01,-1.743505299089999905e-01,-3.388721123340000113e-02,1.000000000000000000e+00
1.020053410000000049e+00,3.146866239850000024e+00,-1.818791918739999791e-01,9.154678960420000067e+00,2.004272639750000196e-01,-1.819659471510000071e-01,-3.474493697290000072e-02,1.000000000000000000e+00
1.025090577000000058e+00,3.128729694649999615e+00,-1.756197661529999843e-01,9.202701525309999298e+00,2.074314802890000198e-01,-1.923292577270000192e-01,-1.159746013580000012e-02,1.000000000000000000e+00
1.030079527999999911e+00,3.169616416320000241e+00,-2.088135769579999856e-01,9.195967833139999215e+00,2.091061323879999934e-01,-1.835194826130000234e-01,-3.337555378680000240e-02,1.000000000000000000e+00
1.035125282999999952e+00,3.034527854649999856e+00,-2.777460242129999868e-01,9.171225606069999259e+00,2.197564691309999985e-01,-1.880767196420000120e-01,-2.471104077990000231e-02,1.000000000000000000e+00
1.040105740000000001e+00,2.940572390620000309e+00,-3.157175160150000326e-01,9.126485131589999966e+00,2.073992937799999936e-01,-1.750476211310000030e-01,-3.622825071219999693e-02,1.000000000000000000e+00
1.045200222999999928e+00,2.883705132759999845e+00,-3.220124514409999916e-01,9.074849052380001169e+00,1.784448325629999776e-01,-1.612607240679999887e-01,-3.289361298079999940e-02,1.000000000000000000e+00
1.050125820999999959e+00,2.857486111140000062e+00,-3.891281681300000073e-01,9.003470746339999664e+00,1.582336127760000100e-01,-1.311908215279999901e-01,-3.209899365899999968e-02,1.000000000000000000e+00
1.055162939999999994e+00,2.889479332250000088e+00,-3.150038147879999917e-01,9.034825669550000882e+00,1.666903048750000005e-01,-1.143496036529999954e-01,-6.282153725620000240e-02,1.000000000000000000e+00
1.060167547999999904e+00,2.818299179129999832e+00,-2.684971891519999931e-01,9.044326488339999415e+00,1.540622115139999859e-01,-9.540972858669999335e-02,-6.234493851660000141e-02,1.000000000000000000e+00
1.065122139000000079e+00,2.767961615299999512e+00,-1.817874402039999782e-01,9.152173699600000489e+00,1.435573995109999945e-01,-6.734912842510000497e-02,-5.546984821559999834e-02,1.000000000000000000e+00
1.070151298000000084e+00,2.884936428120000507e+00,-1.620364820840000109e-01,9.262268397519999752e+00,1.616962254050000047e-01,-5.313924327490000127e-02,-7.496587187049999490e-02,1.000000000000000000e+00
1.075175253000000053e+00,2.905504876640000234e+00,-1.192817654599999805e-01,9.409830364050000284e+00,1.543228626250000013e-01,-6.848550587889999652e-02,-8.303166180849999578e-02,1.000000000000000000e+00
1.080161338999999998e+00,2.942762594150000410e+00,-7.649960827339999381e-02,9.575429507049999955e+00,1.744880378249999975e-01,-7.486139237880000408e-02,-6.987237930299999844e-02,1.000000000000000000e+00
1.085178128999999991e+00,2.842349332279999974e+00,-1.244400889380000014e-01,9.631080667129999995e+00,1.934938579800000169e-01,-9.323921799660001009e-02,-5.465435609219999880e-02,1.000000000000000000e+00
1.090184862000000088e+00,2.841739675950000432e+00,-1.887014025769999936e-01,9.615676177250000123e+00,2.027514427899999860e-01,-9.651100635530000804e-02,-5.371214821930000299e-02,1.000000000000000000e+00
1.095152067999999979e+00,2.833122069729999915e+00,-2.937958079940000133e-01,9.557447275639999518e+00,2.055395692590000212e-01,-1.150266304609999929e-01,-5.997753515840000688e-02,1.000000000000000000e+00
1.100187559000000093e+00,2.887741256409999568e+00,-3.027205256680000067e-01,9.509491346239999032e+00,2.105245292190000006e-01,-1.280330419540000042e-01,-6.799647957089999251e-02,1.000000000000000000e+00
1.105154296999999897e+00,2.861588578019999662e+00,-3.294010638550000092e-01,9.445593751349999678e+00,1.953198015690000011e-01,-1.195492222909999985e-01,-6.847320497039999232e-02,1.000000000000000000e+00
1.110184349999999931e+00,2.933078235479999574e+00,-2.899311684549999990e-01,9.340984791360000372e+00,2.112769186499999785e-01,-1.207324713470000060e-01,-9.605936706070000719e-02,1.000000000000000000e+00
1.115191189999999999e+00,2.857641886219999705e+00,-2.644153083989999597e-01,9.262301715269998681e+00,2.166581898930000083e-01,-1.244945079089999906e-01,-8.936379849910000561e-02,1.000000000000000000e+00
1.120191458999999945e+00,2.957416265660000043e+00,-2.308839727349999982e-01,9.178972859199999945e+00,2.094018608329999698e-01,-1.158962175249999976e-01,-9.920615702870000385e-02,1.000000000000000000e+00
1.125151924999999942e+00,3.011885522469999632e+00,-1.755784294959999992e-01,9.151756350970000398e+00,2.282394766810000031e-01,-1.195633038880000026e-01,-8.518292754889998653e-02,1.000000000000000000e+00
1.130207849999999903e+00,3.094562928899999843e+00,-1.405964383659999983e-01,9.101605541880001482e+00,2.433972209690000166e-01,-1.184519231320000088e-01,-7.529057562350000010e-02,1.000000000000000000e+00
1.135217402000000098e+00,3.128727648829999985e+00,-2.059140743910000126e-01,9.100594319009999822e+00,2.383228242400000363e-01,-1.128471791740000008e-01,-9.858449548479999991e-02,1.000000000000000000e+00
1.140192824000000105e+00,3.015152707570000423e+00,-2.268250710000000170e-01,9.141308022189999605e+00,2.462543696170000074e-01,-1.375662088390000037e-01,-8.484379202130000464e-02,1.000000000000000000e+00
1.145198375999999962e+00,3.087470632550000094e+00,-1.724959715769999735e-01,9.235095143909999749e+00,2.449601888659999893e-01,-1.222504973409999918e-01,-1.067652478810000027e-01,1.000000000000000000e+00
1.150179304999999985e+00,2.986872661769999659e+00,-1.279655048520000060e-01,9.277762319249999834e+00,2.304190993309999935e-01,-1.211089491840000032e-01,-9.892977774139997960e-02,1.000000000000000000e+00
1.155149382999999919e+00,3.068517510279999971e+00,-5.161628310059999947e-02,9.314615255349998790e+00,2.237845212220000157e-01,-1.183337047700000061e-01,-1.192051619290000058e-01,1.000000000000000000e+00
1.160170895999999896e+00,3.038481852969999952e+00,9.092014231790001080e-03,9.331275298250000461e+00,2.259693592790000261e-01,-1.094535365699999957e-01,-1.102337613700000024e-01,1.000000000000000000e+00
1.165140285999999969e+00,3.001875877369999834e+00,9.978861802610000664e-02,9.348536229660000529e+00,2.194582372900000244e-01,-9.120001643899999788e-02,-1.037904769180000020e-01,1.000000000000000000e+00
1.170178152000000082e+00,3.023021248989999687e+00,1.899589648899999983e-01,9.327250865039999894e+00,2.057749330999999737e-01,-1.097249016169999924e-01,-1.019222661849999989e-01,1.000000000000000000e+00
1.175197088000000001e+00,3.042032823450000478e+00,2.651693599030000015e-01,9.364497184369998450e+00,2.160202115769999931e-01,-1.188361793759999951e-01,-1.029795557259999966e-01,1.000000000000000000e+00
1.180085545999999930e+00,2.941173571389999797e+00,3.229553217819999822e-01,9.411723045930001419e+00,2.087102532389999987e-01,-1.012739613649999842e-01,-9.294949471949999487e-02,1.000000000000000000e+00
1.185110314999999970e+00,3.004754647680000001e+00,4.708059325270000373e-01,9.490349423399999651e+00,2.131894528870000027e-01,-1.137890368700000127e-01,-6.949627399440000408e-02,1.000000000000000000e+00
1.190087021000000078e+00,3.123815619129999721e+00,4.772790375309999833e-01,9.438451478380001092e+00,1.972166448830000030e-01,-1.115610003470000056e-01,-7.625177502629999771e-02,1.000000000000000000e+00
1.195107818000000099e+00,3.104999859499999904e+00,4.516512963319999630e-01,9.392450190179999936e+00,1.892845183610000204e-01,-1.104026213290000002e-01,-3.771373257039999788e-02,1.000000000000000000e+00
1.200086827000000023e+00,3.159116065090000092e+00,3.875727553819999782e-01,9.269089767969999727e+00,1.679967641829999969e-01,-1.067255884409999966e-01,-3.112054057419999867e-02,1.000000000000000000e+00
1.205122481000000079e+00,3.163185506490000076e+00,3.546499983370000053e-01,9.160643421779999684e+00,1.275589466089999957e-01,-8.791972696779999652e-02,-4.530734196309999656e-02,1.000000000000000000e+00
1.210154211000000091e+00,3.102196200249999869e+00,4.231034299029999834e-01,9.094823334389998237e+00,8.822503685949999175e-02,-9.378179907800000825e-02,-3.340307623149999655e-02,1.000000000000000000e+00
1.215128325000000009e+00,3.133915280600000131e+00,5.003347362850000257e-01,9.093671241750000078e+00,7.652494311330000631e-02,-4.626239091160000427e-02,-2.728682942690000002e-02,1.000000000000000000e+00
1.220157155000000104e+00,3.117268389439999954e+00,5.760094608739999567e-01,9.171223852509999830e+00,2.843919582659999723e-02,-2.007517032329999684e-03,-2.231559716170000013e-02,1.000000000000000000e+00
1.225166631000000006e+00,3.134567022509999745e+00,7.196978373739999491e-01,9.297871625820000929e+00,-3.909734543409999936e-03,-8.366961032150000560e-03,-5.892761051649999214e-03,1.000000000000000000e+00
1.230214203999999922e+00,3.163537388660000005e+00,7.732789862400000214e-01,9.445168803939999691e+00,-2.620885334909999614e-02,1.895337179299999911e-02,6.762356497350000342e-05,1.000000000000000000e+00
1.235196377999999928e+00,3.116987526670000008e+00,7.764601004940000495e-01,9.531486904950000394e+00,-6.764440238480000367e-02,2.139974571759999805e-02,2.197803929450000207e-02,1.000000000000000000e+00
1.240138532000000016e+00,3.132517104240000183e+00,7.641652670659999647e-01,9.625611295800000633e+00,-8.429353684189999640e-02,3.459051996469999363e-02,3.966484218840000270e-02,1.000000000000000000e+00
1.245118849000000028e+00,3.139341689559999704e+00,8.242791787019999594e-01,9.703636784769999579e+00,-1.094238832590000016e-01,2.822461165489999896e-02,5.875446647410000056e-02,1.000000000000000000e+00
1.250140116000000079e+00,3.192873957779999827e+00,7.511356165579999855e-01,9.659542791499999836e+00,-1.495470404619999860e-01,3.399232029910000119e-02,7.978489249939998973e-02,1.000000000000000000e+00
1.255125507999999890e+00,3.112313981899999860e+00,6.009086686029999624e-01,9.578723872419999452e+00,-2.065722346310000235e-01,3.485123068089999998e-02,9.295700490469999133e-02,1.000000000000000000e+00
1.260107926000000100e+00,3.099904289929999557e+00,5.474261212730000548e-01,9.438861812749999913e+00,-2.492104619739999860e-01,4.547646641730000022e-02,1.032718569040000089e-01,1.000000000000000000e+00
1.265107801999999948e+00,3.137079882109999662e+00,5.712240897610000312e-01,9.332766413589999033e+00,-2.746819853779999820e-01,5.273070186380000163e-02,1.319132596250000011e-01,1.000000000000000000e+00
1.270156886999999957e+00,3.133211223980000071e+00,5.782373295239999766e-01,9.288319369099999889e+00,-2.927124798300000386e-01,7.340276241300000559e-02,1.252790093420000084e-01,1.000000000000000000e+00
1.275148181000000047e+00,3.047591626620000049e+00,5.011390749380000287e-01,9.290482684620000597e+00,-3.213765621190000088e-01,7.979851216080000031e-02,1.342109888790000150e-01,1.000000000000000000e+00
1.280156553000000086e+00,2.938409951890000205e+00,4.206654986990000511e-01,9.303053412369999720e+00,-3.233234882350000117e-01,8.884274214510001766e-02,1.560977548359999967e-01,1.000000000000000000e+00
1.285141375999999891e+00,2.982357522429999630e+00,3.056676302369999987e-01,9.349057038659999819e+00,-3.414223492149999761e-01,1.037335917349999914e-01,1.583407670260000011e-01,1.000000000000000000e+00
1.290156303000000060e+00,2.986072451300000097e+00,2.119694654400000045e-01,9.387390568709999883e+00,-3.407112061979999940e-01,1.166411861779999976e-01,1.677419990299999775e-01,1.000000000000000000e+00
1.295179293999999981e+00,2.986505289760000181e+00,1.483546330110000200e-01,9.466051432969999624e+00,-3.316033482549999856e-01,9.605916589500000657e-02,1.863216608759999948e-01,1.000000000000000000e+00
1.300162215999999926e+00,3.148070939459999718e+00,8.492474696110001442e-02,9.470203291949999880e+00,-3.471903800960000064e-01,9.413197636600001417e-02,1.830017417669999868e-01,1.000000000000000000e+00
1.305203633000000085e+00,3.190020029659999423e+00,1.425938980769999968e-02,9.439106727420000453e+00,-3.392989635470000098e-01,7.671229541299999510e-02,1.894207447769999941e-01,1.000000000000000000e+00
1.310111746000000021e+00,3.191566382320000006e+00,-5.121249263919999684e-02,9.289687734850000211e+00,-3.220848143099999672e-01,6.699146330359999346e-02,1.876028627160000184e-01,1.000000000000000000e+00
1.315177376000000065e+00,3.057018795659999899e+00,-3.935030130810000110e-02,9.254817496989998560e+00,-3.010776042939999897e-01,6.540316343310000058e-02,2.160677462819999839e-01,1.000000000000000000e+00
1.320186228999999933e+00,3.064671940759999824e+00,-2.184541147509999892e-01,9.150508396739999384e+00,-2.940927445890000325e-01,7.132649421689998825e-02,2.097112089400000046e-01,1.000000000000000000e+00
1.325182786000000057e+00,2.784770711280000199e+00,-3.793102827429999935e-01,9.690614806110000146e+00,-2.749885022640000121e-01,4.315676912669999532e-02,2.052136808630000142e-01,1.000000000000000000e+00
1.330150439999999934e+00,3.109675157829999925e+00,3.298911854599999999e-02,9.084272129760000425e+00,-3.008610308169999970e-01,5.541951581840000307e-02,1.967833489180000062e-01,0.000000000000000000e+00
1.335222455999999891e+00,2.838699285340000600e+00,-6.246085470119999705e-01,9.140266988709999652e+00,-2.976059317590000197e-01,4.183216765520000185e-02,2.022469192740000143e-01,0.000000000000000000e+00
1.340151187000000021e+00,2.878944201970000449e+00,-8.004889185959999098e-01,9.137084267020000539e+00,-3.028635978699999454e-01,4.721466451880000637e-02,1.606441289189999844e-01,1.000000000000000000e+00
1.345161754999999904e+00,2.798910880309999794e+00,-6.597090864869999960e-01,9.023336307280001023e+00,-3.114151060579999908e-01,8.467826247220000546e-02,1.284294724460000037e-01,1.000000000000000000e+00
1.350181749999999958e+00,2.765260247379999647e+00,-7.221678807489999574e-01,9.087248515219998879e+00,-2.898852229120000290e-01,6.545954942699999668e-02,1.092870980500000033e-01,0.000000000000000000e+00
1.355144169999999981e+00,2.744828576989999824e+00,-7.356837073389999038e-01,9.187172532270000858e+00,-2.607046961780000172e-01,8.314734697339999647e-02,1.073000282049999948e-01,0.000000000000000000e+00
1.360135453999999910e+00,2.689428176809999904e+00,-8.237539127190000032e-01,9.158404118420000017e+00,-2.226453721520000040e-01,5.729547888040000675e-02,1.053663566709999860e-01,1.000000000000000000e+00
1.365158553999999969e+00,2.549040631950000080e+00,-8.968722673569999859e-01,9.161101686939998601e+00,-1.746543496849999877e-01,5.188321694730000516e-02,8.900594711300000017e-02,1.000000000000000000e+00
1.370162705000000036e+00,2.485260233700000043e+00,-1.041404364669999971e+00,9.192127524330000909e+00,-1.325055658819999926e-01,3.340021520849999898e-02,6.069881469010000169e-02,1.000000000000000000e+00
1.375061048999999924e+00,2.365234070479999673e+00,-1.115457369810000099e+00,9.114512369730000785e+00,-5.134941637519999103e-02,3.644830733539999867e-02,4.162940010430000309e-02,1.000000000000000000e+00
1.380089496000000082e+00,2.522375912390000252e+00,-1.238069238670000072e+00,9.164733321439999969e+00,-1.725978218019999857e-02,2.143714390699999819e-02,1.836285740139999983e-02,1.000000000000000000e+00
1.385110523000000038e+00,2.594682439190000078e+00,-1.158443036510000024e+00,9.308677097480000384e+00,1.755375787620000114e-02,2.162907272580000262e-02,-2.382628805940000330e-02,1.000000000000000000e+00
1.390109822000000106e+00,2.568686412659999529e+00,-9.067703418410000271e-01,9.398110115639999762e+00,2.585619315509999488e-02,5.936872679739999686e-03,-4.202139750120000017e-02,1.000000000000000000e+00
1.395123534999999970e+00,2.695610664829999781e+00,-6.936286725499999362e-01,9.478680028390000345e+00,5.432806909080000607e-02,-3.365673590450000106e-03,-5.839147418740000400e-02,1.000000000000000000e+00
1.400074062999999924e+00,2.905388849040000387e+00,-5.120132644449999493e-01,9.529242340899999775e+00,7.822308689359999678e-02,-2.659449353809999889e-02,-6.668584048749999493e-02,1.000000000000000000e+00
1.405073690000000042e+00,2.940103019549999974e+00,-4.074579708730000083e-01,9.529882976889998858e+00,7.024160772560000821e-02,-3.213196620349999949e-02,-7.534063607450000588e-02,1.000000000000000000e+00
1.410055979000000015e+00,2.863152466339999869e+00,-3.223199830199999782e-01,9.457510399120000244e+00,1.012351214890000045e-01,-6.017345562580000279e-02,-6.247935071589999501e-02,1.000000000000000000e+00
1.415071744000000020e+00,2.862986169860000096e+00,-2.248511588450000098e-01,9.435179324839999992e+00,1.042388305070000021e-01,-5.137823149559999497e-02,-6.767188012600000580e-02,1.000000000000000000e+00
1.420041821000000093e+00,2.953897736140000063e+00,-1.437455774460000002e-01,9.362644249980000666e+00,9.922376275060000583e-02,-5.468253791330000141e-02,-7.106459885839999657e-02,1.000000000000000000e+00
1.425024464000000046e+00,3.002884762149999887e+00,-1.239013241530000087e-01,9.357416870730000724e+00,9.495452046389998846e-02,-4.811264574529999782e-02,-5.231434851879999959e-02,1.000000000000000000e+00
1.430096636999999893e+00,3.257992618909999916e+00,-1.232889187420000005e-01,9.363049323649999423e+00,6.188431754709999844e-02,-5.082803964609999836e-02,-7.453213632110000653e-02,0.000000000000000000e+00
1.435073414000000103e+00,3.276487768279999990e+00,-1.070698976080000087e-01,9.350727017700000587e+00,4.975311830640000155e-02,-5.255089700220000326e-02,-5.970648303630000236e-02,0.000000000000000000e+00
1.440135329000000075e+00,3.260134014850000206e+00,-1.014660771180000004e-01,9.295700126999999924e+00,1.887791603800000051e-02,-4.453666880730000610e-02,-5.548309162259999761e-02,0.000000000000000000e+00
1.445072721999999921e+00,3.208744603870000045e+00,-1.029957709039999864e-01,9.229603560760001102e+00,5.252160597589999695e-03,-3.972940146919999582e-02,-5.810402333740000841e-02,0.000000000000000000e+00
1.450118245000000083e+00,3.184924167820000207e+00,-1.295971063749999930e-01,9.167421537610000115e+00,1.838492043320000269e-02,-2.553925476970000247e-02,-6.353024393320000351e-02,1.000000000000000000e+00
1.455166688999999902e+00,3.149381729799999974e+00,-1.856375945600000077e-01,9.156731801299999418e+00,1.440652459859999984e-02,-2.804063260560000007e-02,-4.460940510030000222e-02,0.000000000000000000e+00
1.460107078999999919e+00,3.210431534049999591e+00,-1.957859905429999992e-01,9.101836428029999482e+00,2.837498858570000268e-02,-3.067112714049999994e-02,-3.440984711049999839e-02,0.000000000000000000e+00
1.465104978999999918e+00,3.192282129370000554e+00,-2.100236651340000038e-01,9.226036808189999050e+00,2.416884154079999847e-02,-2.596095204349999769e-02,-3.624950721859999947e-02,0.000000000000000000e+00
1.470111143000000009e+00,3.117746528349999657e+00,-2.531117692980000000e-01,9.308003728260000997e+00,4.547375068070000359e-02,-3.971957787869999368e-02,-3.022073581809999951e-02,0.000000000000000000e+00
1.475107163999999971e+00,3.061741732530000260e+00,-3.191382842440000367e-01,9.354114906569998666e+00,6.430737674240000201e-02,-5.340202525259999528e-02,-2.174115180970000172e-02,1.000000000000000000e+00
1.480117531999999958e+00,3.065405807999999954e+00,-2.462858870669999978e-01,9.375935693230001533e+00,7.671939581629999561e-02,-7.723327726129999848e-02,-3.035567142069999988e-02,1.000000000000000000e+00
1.485107798000000034e+00,2.978896276059999959e+00,-2.219712925589999997e-01,9.412090125680000696e+00,7.896775752310000729e-02,-5.972521007059999887e-02,-2.512060105799999998e-02,0.000000000000000000e+00
1.490117949000000053e+00,3.103618926529999822e+00,-2.374426919300000327e-01,9.451131511729998991e+00,1.029990538949999979e-01,-7.687775790689999056e-02,-3.413709998129999673e-02,0.000000000000000000e+00
1.495142780999999976e+00,3.202178961750000052e+00,-2.868037571500000049e-01,9.421313296570000162e+00,1.120814830060000017e-01,-7.641088962550000863e-02,-4.565941914919999234e-02,0.000000000000000000e+00
1.500116667999999986e+00,3.143101918880000234e+00,-3.136997464519999945e-01,9.342404010510001910e+00,1.039312556389999920e-01,-8.312273025510001634e-02,-2.068567275999999913e-02,1.000000000000000000e+00
1.505093033000000080e+00,3.170641959969999757e+00,-3.023351248130000113e-01,9.256946325719999535e+00,1.056342720989999900e-01,-1.067973375320000057e-01,-3.965891525150000430e-02,1.000000000000000000e+00
1.510109257000000094e+00,3.074097648500000446e+00,-2.959941582889999978e-01,9.277730755069999447e+00,1.044624298809999907e-01,-8.849808573719998572e-02,-3.983623161910000016e-02,1.000000000000000000e+00
1.515105012000000029e+00,3.096614308469999965e+00,-3.768437464989999874e-01,9.287440832699999760e+00,1.195323169229999954e-01,-9.926047176119999482e-02,-4.421617835760000004e-02,1.000000000000000000e+00
1.520061255999999972e+00,3.127682815950000084e+00,-4.044338738120000221e-01,9.279167509869999719e+00,1.198953464629999854e-01,-1.033917441960000017e-01,-4.149333387609999840e-02,1.000000000000000000e+00
1.525113812999999929e+00,3.241789672119999910e+00,-4.366356961710000095e-01,9.293211232799999166e+00,1.297797262670000173e-01,-1.182616502049999990e-01,-6.728704273699999405e-02,1.000000000000000000e+00
1.530070792999999929e+00,3.205963156459999741e+00,-3.625700872789999751e-01,9.351979063589999086e+00,1.205987781289999949e-01,-1.249120458960000096e-01,-4.789124429229999619e-02,1.000000000000000000e+00
1.535065789999999986e+00,3.285672068469999818e+00,-3.922028628679999906e-01,9.365223745079999773e+00,1.520900428299999940e-01,-1.492325067520000048e-01,-6.752496957780000642e-02,1.000000000000000000e+00
1.540067491999999927e+00,3.120529144800000321e+00,-4.187640124589999679e-01,9.271032718739999012e+00,1.767820417880000272e-01,-1.526005864140000112e-01,-6.311403214930000338e-02,1.000000000000000000e+00
1.545085472000000015e+00,2.991229103409999812e+00,-3.830693064829999717e-01,9.079069884939999113e+00,1.886901855469999834e-01,-1.838318705559999766e-01,-6.167796254159999686e-02,1.000000000000000000e+00
1.550104163000000090e+00,2.809690925259999528e+00,-3.089276732119999869e-01,9.042581105980000089e+00,2.080514729019999898e-01,-1.563699990509999915e-01,-6.903275102380000694e-02,1.000000000000000000e+00
1.555065914000000049e+00,2.749307768230000004e+00,-1.994625236310000049e-01,9.014258682339999496e+00,2.220848202710000163e-01,-1.445274055000000113e-01,-8.561571687459999802e-02,1.000000000000000000e+00
1.560101984000000108e+00,2.812678708900000046e+00,-1.410241074599999922e-01,9.070765582459999976e+00,2.427953630689999864e-01,-1.193156465889999990e-01,-8.699094504120000182e-02,1.000000000000000000e+00
1.565108061999999967e+00,2.893300936359999742e+00,-3.547272465580000173e-02,9.209361567720000252e+00,2.494315057990000029e-01,-1.279693841929999965e-01,-8.388116955759999938e-02,1.000000000000000000e+00
1.570128795000000022e+00,2.996681815859999709e+00,3.082254706260000032e-02,9.348188439130000305e+00,2.335909754039999786e-01,-1.068667173389999947e-01,-8.697323501110000576e-02,1.000000000000000000e+00
1.575113164000000010e+00,3.139296973640000044e+00,1.381884547749999970e-01,9.442357838169998629e+00,2.172394096849999956e-01,-1.025509834290000005e-01,-9.159447252749999824e-02,1.000000000000000000e+00
1.580041888000000005e+00,3.167526458299999792e+00,1.720040050749999938e-01,9.392391737989999712e+00,1.897778064009999766e-01,-1.128277257080000096e-01,-7.562631368639999296e-02,1.000000000000000000e+00
1.585085509000000004e+00,3.221174461860000005e+00,2.562058993879999802e-01,9.381015188460001042e+00,1.607110798359999981e-01,-9.337571263310000258e-02,-6.558742374180000223e-02,1.000000000000000000e+00
1.590155535999999925e+00,3.225375128420000070e+00,3.140517382279999770e-01,9.333837842219999459e+00,1.230475828049999998e-01,-7.636900991200000488e-02,-5.361374840139999931e-02,1.000000000000000000e+00
1.595227951000000033e+00,3.310357596909999867e+00,4.065879465730000142e-01,9.322467137900000367e+00,9.235928952689999305e-02,-7.703708857299999824e-02,-6.468443572519999574e-02,1.000000000000000000e+00
1.600170032999999936e+00,3.219713449389999926e+00,4.265045801160000094e-01,9.276559957719999971e+00,5.719462409619999882e-02,-5.564203485850000019e-02,-4.286678135400000256e-02,1.000000000000000000e+00
1.605108283999999941e+00,3.292450184300000249e+00,4.852232745339999931e-01,9.213594090720000906e+00,4.593623802069999457e-02,-6.354573369030000474e-02,-2.845719270409999974e-02,1.000000000000000000e+00
1.610117457999999946e+00,3.256736481359999935e+00,4.715666512340000449e-01,9.141351276810000925e+00,1.784376241270000177e-02,-5.383701995019999492e-02,-3.372753504659999589e-03,1.000000000000000000e+00
1.615148256999999976e+00,3.206184105730000233e+00,4.395450442790000412e-01,9.122220459880001187e+00,-8.327360264960001002e-04,-2.927231788639999763e-02,1.058889739220000153e-02,1.000000000000000000e+00
1.620177497000000022e+00,3.195969293450000137e+00,3.671525196980000016e-01,9.122840637610000414e+00,-3.203810751440000493e-02,-8.897547610100000476e-03,7.199362851679999911e-03,1.000000000000000000e+00
1.625108296000000063e+00,3.150278678640000329e+00,3.246025044670000081e-01,9.141899558340000453e+00,-4.189177975059999587e-02,-9.853180497879998959e-03,1.214265450840000017e-02,1.000000000000000000e+00
1.630097673999999941e+00,3.244957780759999633e+00,2.744074909079999847e-01,9.166053756389999307e+00,-7.826492935419999963e-02,2.713987231250000048e-02,3.248486667870000011e-02,1.000000000000000000e+00
1.635125621999999890e+00,3.386734149630000079e+00,2.899783137990000204e-01,9.220259978350000551e+00,-8.930171281099999470e-02,2.695232257249999958e-02,3.198770806190000260e-02,1.000000000000000000e+00
1.640086713000000085e+00,3.395753030130000294e+00,2.227256728570000122e-01,9.310673239730000716e+00,-1.001502200959999977e-01,4.114951193329999951e-02,6.063949316739999928e-02,1.000000000000000000e+00
1.645099327000000056e+00,3.362192705830000072e+00,1.525668347450000184e-01,9.411719538799999896e+00,-1.232972517610000096e-01,2.902165800330000142e-02,5.899143591519999397e-02,1.000000000000000000e+00
1.650139699999999987e+00,3.257829537300000133e+00,5.193379265109999976e-02,9.423775887299999710e+00,-1.121424287560000149e-01,2.233596332370000118e-02,5.850248783829999771e-02,1.000000000000000000e+00
1.655077024999999979e+00,3.171386348600000016e+00,-4.329497011350000313e-02,9.372602164899999977e+00,-1.305741220709999983e-01,1.373765058820000141e-02,4.937410354610000107e-02,1.000000000000000000e+00
1.660161500000000068e+00,3.045126697820000228e+00,-1.277936554159999905e-01,9.315974853270001077e+00,-1.279370337719999973e-01,2.406848780809999963e-02,4.161244258280000219e-02,1.000000000000000000e+00
1.665130911000000102e+00,2.885860264969999811e+00,-2.013662018279999966e-01,9.289930311430000032e+00,-1.245005950329999972e-01,4.030487313869999394e-02,5.829244479539999468e-02,1.000000000000000000e+00
1.670129811000000020e+00,2.877513292379999754e+00,-2.003831821400000046e-01,9.243777632060000471e+00,-1.245259121060000029e-01,4.082442820070000117e-02,5.171540752050000217e-02,1.000000000000000000e+00
1.675039592000000077e+00,2.824830334470000093e+00,-1.979150749940000176e-01,9.228840175169999327e+00,-9.470178186889999239e-02,4.874153435229999776e-02,4.088687896729999854e-02,1.000000000000000000e+00
1.680158715999999997e+00,2.828589394740000262e+00,-1.883880440450000082e-01,9.232206436739998523e+00,-7.082035392519998862e-02,5.725662037729999793e-02,3.066859021779999930e-02,1.000000000000000000e+00
1.685171854000000025e+00,2.851250431620000025e+00,-2.756759399409999811e-01,9.192532597989998777e+00,-4.505427181719999508e-02,4.644435644150000236e-02,2.520589530470000034e-02,1.000000000000000000e+00
1.690169199000000066e+00,2.945781941970000428e+00,-3.045323060640000024e-01,9.202627291029999768e+00,-4.527684673669999521e-02,4.749114438890000151e-02,2.805727720259999780e-02,1.000000000000000000e+00
1.695153415000000052e+00,2.992982961340000081e+00,-3.507205864660000172e-01,9.222946440960001269e+00,-2.660393901169999867e-02,6.431183218960000170e-02,1.199030317370000133e-02,1.000000000000000000e+00
1.700295120999999909e+00,3.002891776420000269e+00,-3.394093207159999959e-01,9.309947263539999796e+00,-3.482553362850000084e-02,4.250591620799999693e-02,1.181784272190000012e-02,1.000000000000000000e+00
1.705051863000000001e+00,3.072886811399999640e+00,-3.600799874960000091e-01,9.409664944360001115e+00,-1.977941021320000006e-02,5.914276465769999908e-02,-6.370801012959999114e-03,1.000000000000000000e+00
1.710076726999999908e+00,2.995104483540000473e+00,-3.715119935499999748e-01,9.428863565820000403e+00,-3.881541267039999993e-02,4.418977722530000041e-02,-2.706970646979999645e-02,1.000000000000000000e+00
1.715073891999999933e+00,2.908982489620000056e+00,-3.551298908079999483e-01,9.366521383680000312e+00,-3.802523761990000278e-02,4.629905149340000220e-02,-4.223911836739999842e-02,1.000000000000000000e+00
1.720171067999999970e+00,2.850098923500000048e+00,-3.523598781060000018e-01,9.266820069480001365e+00,-6.244911253449999394e-02,6.356749683619999924e-02,-3.665842860940000253e-02,1.000000000000000000e+00
1.725110142999999985e+00,2.860650128129999636e+00,-3.352751800529999993e-01,9.160655112220000618e+00,-6.990771740669998735e-02,6.716291606430001282e-02,-5.963928624990000316e-02,1.000000000000000000e+00
1.730102862999999935e+00,2.864963315149999801e+00,-4.161163474949999830e-01,9.025424219470000509e+00,-5.798239260910000026e-02,7.957126945259999917e-02,-8.808610588310000766e-02,1.000000000000000000e+00
1.735126799999999969e+00,2.765515683450000317e+00,-4.395488071390000195e-01,8.893302983179999899e+00,-7.579643279310001314e-02,1.238047853109999902e-01,-1.100884601469999946e-01,1.000000000000000000e+00
1.740128848999999978e+00,2.797185371690000366e+00,-4.328338196700000085e-01,8.868874644369999061e+00,-8.326952159400000109e-02,1.598404049870000010e-01,-1.182840242980000012e-01,1.000000000000000000e+00
1.745140358000000003e+00,2.871739677419999914e+00,-2.418656229390000190e-01,8.976218582279999580e+00,-8.698473125700000030e-02,1.936573088170000234e-01,-1.255047768349999981e-01,1.000000000000000000e+00
1.750136128000000069e+00,2.968540886260000011e+00,-1.235802389719999894e-01,9.076402711560000114e+00,-7.555590569969999892e-02,2.105549871919999982e-01,-1.339424550530000091e-01,1.000000000000000000e+00
1.755120395999999916e+00,2.959914512220000127e+00,-2.761898808129999994e-01,9.167320415329999861e+00,-5.555311217899999710e-02,2.077266275880000068e-01,-1.439599543810000104e-01,1.000000000000000000e+00
1.760169984000000021e+00,2.971374063859999914e+00,-1.654804667919999861e-01,9.206266524310001031e+00,-4.027198255060000093e-02,2.244889438149999805e-01,-1.246678307650000012e-01,1.000000000000000000e+00
1.765174492999999956e+00,3.266404765680000377e+00,-2.613472991310000215e-01,9.217102391110000070e+00,-2.105485275390000036e-02,2.132426649329999813e-01,-1.412553638220000185e-01,1.000000000000000000e+00
1.770171485000000100e+00,3.189043878100000118e+00,-8.236257745610001124e-02,9.284846724550000374e+00,5.564207676800000425e-03,2.239407151939999951e-01,-1.155909448860000105e-01,1.000000000000000000e+00
1.775113936999999975e+00,3.220884246740000290e+00,3.743314714169999891e-02,9.367405765299999132e+00,2.735368721189999908e-02,2.150504738089999979e-01,-1.254604160789999923e-01,1.000000000000000000e+00
1.780168438000000020e+00,3.055278381740000437e+00,4.358616247930000714e-02,9.351101696229999760e+00,6.775272637609999760e-02,1.801792681219999970e-01,-1.003453359009999907e-01,1.000000000000000000e+00
1.785157284000000066e+00,2.955133999940000145e+00,-8.654280401650000240e-04,9.378263843919999232e+00,9.450432658199998948e-02,1.735302954909999917e-01,-9.708678722380001402e-02,1.000000000000000000e+00
1.790046503999999983e+00,2.875175789350000066e+00,-3.000182581389999881e-02,9.427600998539999111e+00,1.137930601839999972e-01,1.739981919530000087e-01,-7.763119786980000880e-02,1.000000000000000000e+00
1.795117070999999953e+00,2.984960982929999673e+00,-1.182838039310000061e-01,9.283418737579999913e+00,1.329416632650000096e-01,1.635651141410000009e-01,-8.519043028349999880e-02,1.000000000000000000e+00
1.800065108000000080e+00,2.965015927009999608e+00,-2.357279421679999987e-01,9.330039618980000782e+00,1.280040889980000041e-01,1.731292009350000050e-01,-6.944346427919999287e-02,1.000000000000000000e+00
1.805099087999999963e+00,3.035013007819999942e+00,-2.050759978649999982e-01,9.437095387599999441e+00,1.352604478599999938e-01,1.584563255310000029e-01,-8.777580410240000408e-02,1.000000000000000000e+00
1.810099292000000082e+00,3.165295922769999937e+00,-1.464645358149999910e-01,9.547292376849998874e+00,1.079305484889999944e-01,1.337613314389999863e-01,-8.351472765210000981e-02,1.000000000000000000e+00
1.815171534000000086e+00,3.194933812920000005e+00,2.455787434439999847e-02,9.802982125139999781e+00,1.246367990970000117e-01,8.260080963370000640e-02,-8.108411729339999596e-02,1.000000000000000000e+00
1.820161273000000079e+00,3.159424692650000033e+00,1.126002784020000008e-01,9.917483533589999567e+00,1.216487437490000045e-01,6.012961640950000020e-02,-9.201709926130000050e-02,1.000000000000000000e+00
1.825144588999999984e+00,2.992993774999999967e+00,7.504823585469999614e-02,9.945021528859999904e+00,1.182136535640000014e-01,2.957363612950000137e-02,-5.685489252209999927e-02,1.000000000000000000e+00
1.830171253000000053e+00,2.893395044390000059e+00,4.777582815489999149e-03,9.867897372649998999e+00,1.400261074299999908e-01,-6.717035081239999643e-03,-5.276326462630000214e-02,1.000000000000000000e+00
1.835106589000000010e+00,2.763682915059999967e+00,-1.247838928400000135e-03,9.808280816070000796e+00,1.351258605719999895e-01,-3.645182400940000234e-02,-4.491260647769999836e-02,1.000000000000000000e+00
1.840170756000000019e+00,2.650663269599999872e+00,-1.745024685440000126e-02,9.665696637960000004e+00,1.412332355979999954e-01,-4.538868740199999974e-02,-4.992927238349999935e-02,1.000000000000000000e+00
1.845162503000000065e+00,2.512754097559999789e+00,-1.860333044620000181e-02,9.489774253860000286e+00,1.300656944509999968e-01,-5.610110983249999572e-02,-3.735799714919999653e-02,1.000000000000000000e+00
1.850171653999999943e+00,2.627058229870000261e+00,-3.208453210579999618e-03,9.369778339650000731e+00,1.435663849119999946e-01,-2.807115018370000270e-02,-5.198492109780000758e-02,1.000000000000000000e+00
1.855095420999999911e+00,2.563671507110000025e+00,7.401032590810001366e-02,9.342901438640000222e+00,1.449970006939999834e-01,-3.636407852169999677e-02,-5.383045971390000572e-02,1.000000000000000000e+00
1.860165081999999970e+00,2.645399649990000324e+00,3.049141997870000176e-02,9.295530031130001092e+00,1.428567618129999994e-01,-2.489810809490000318e-02,-5.628142505880000257e-02,1.000000000000000000e+00
1.865166671000000109e+00,2.669444542439999957e+00,3.119577113909999949e-02,9.252830122569999816e+00,1.406740099190000037e-01,-1.645217835900000120e-02,-5.457149818540000391e-02,1.000000000000000000e+00
1.870158632000000098e+00,2.733068581090000393e+00,6.251997269709999583e-02,9.312484088539999760e+00,1.714854240419999842e-01,7.392680738119999581e-03,-6.846214830879999991e-02,1.000000000000000000e+00
1.875162462000000030e+00,2.823611898590000280e+00,5.607574216089999952e-02,9.306516120050000396e+00,1.641247421500000025e-01,1.049309782679999983e-02,-6.513339281079999488e-02,1.000000000000000000e+00
1.880120404999999995e+00,2.978884293359999713e+00,1.347311356619999845e-01,9.388488300820000632e+00,1.700504571200000259e-01,2.225856855509999663e-02,-6.150282546880000284e-02,1.000000000000000000e+00
1.885170852999999980e+00,3.098945381769999674e+00,2.175614219619999845e-01,9.394677218580000044e+00,1.622769981620000024e-01,1.332152634859999716e-03,-5.009789019819999717e-02,1.000000000000000000e+00
1.890105114000000031e+00,3.176113669379999838e+00,2.476366258219999950e-01,9.471715450079999599e+00,1.957012265920000105e-01,-7.427702657879999178e-04,-3.132663294670000320e-02,1.000000000000000000e+00
1.895141522000000078e+00,3.192404586709999936e+00,2.505740857800000110e-01,9.388888698310001502e+00,1.932606846090000052e-01,-3.395389532670000515e-03,-3.315744921570000503e-02,1.000000000000000000e+00
1.900273223999999983e+00,3.180497875809999542e+00,2.120119711410000107e-01,9.327398749080000329e+00,1.847249418499999907e-01,-2.447115257380000006e-02,-3.360847756270000236e-02,1.000000000000000000e+00
1.905158766000000004e+00,3.058392422099999841e+00,1.491590355959999947e-01,9.312537864560001211e+00,1.882878243919999806e-01,-2.781304717059999640e-02,-1.688073761760000221e-02,1.000000000000000000e+00
1.910143739000000007e+00,3.027789486309999667e+00,4.648939137380000280e-02,9.221211579989999407e+00,1.878800839189999905e-01,-2.990022301669999910e-02,-4.347210749979999594e-02,1.000000000000000000e+00
1.915195141999999962e+00,2.880806488709999780e+00,3.402551695560000061e-02,9.143414054560000892e+00,1.767136603589999910e-01,-6.514091510330000112e-03,-9.966042824089998975e-03,1.000000000000000000e+00
1.920173957000000042e+00,2.968868218519999935e+00,4.477743179019999520e-02,9.137012370820000839e+00,1.873486936089999999e-01,-1.346294581890000036e-02,-3.592165187000000148e-02,1.000000000000000000e+00
1.925122580000000028e+00,2.926159834389999936e+00,4.597247309389999870e-02,9.138161540860000542e+00,1.746183633800000023e-01,8.782619610430000140e-03,-3.945953026409999842e-02,1.000000000000000000e+00
1.930152502000000103e+00,2.851955949539999757e+00,2.743321515160000029e-02,9.167661191589999703e+00,1.786802262070000258e-01,2.427723444999999730e-02,-3.881059959529999798e-02,1.000000000000000000e+00
1.935138420999999997e+00,2.904516742379999794e+00,1.236313686539999845e-02,9.225355840189999768e+00,1.870374381540000075e-01,2.300945855680000193e-02,-4.974750429389999951e-02,1.000000000000000000e+00
1.940044646999999900e+00,2.866163338590000276e+00,1.598209797250000133e-02,9.370721757980000177e+00,1.952221095560000008e-01,8.882360532879999410e-03,-3.847416862849999813e-02,1.000000000000000000e+00
1.945183748999999906e+00,2.993224368879999986e+00,-3.684766627079999815e-03,9.465331886519999571e+00,2.091199606659999988e-01,8.886979892850000243e-03,-5.418191477659999727e-02,1.000000000000000000e+00
1.950135546999999914e+00,2.946051406559999641e+00,3.035168728099999977e-02,9.548678862770000109e+00,2.207339256999999999e-01,-2.742410823700000208e-02,-4.731024429200000186e-02,1.000000000000000000e+00
1.955175287999999956e+00,2.948951511909999823e+00,2.992701614520000206e-02,9.633622168300000510e+00,2.267333567139999950e-01,-2.650403790180000038e-02,-4.607171192769999452e-02,1.000000000000000000e+00
1.960110411999999913e+00,2.870792459700000077e+00,-5.040667898199999381e-04,9.650964348249999603e+00,2.543423175810000103e-01,-6.472324579950000656e-02,-5.404379963869999914e-02,1.000000000000000000e+00
1.965156708999999946e+00,2.794667835909999454e+00,-9.096206349719999917e-02,9.613230537659999797e+00,2.793261110779999834e-01,-7.056879997249999870e-02,-6.122196465730000287e-02,1.000000000000000000e+00
1.970126846000000098e+00,2.750952905090000122e+00,-1.331011963729999970e-01,9.547240938919999920e+00,2.700758278370000154e-01,-8.567897230389999452e-02,-5.510111898180000689e-02,1.000000000000000000e+00
1.975141462999999931e+00,2.730324543079999611e+00,-1.308990284200000076e-01,9.494621109369999701e+00,2.992548644540000136e-01,-9.719174355270000787e-02,-7.817626744510000614e-02,1.000000000000000000e+00
1.980175569000000024e+00,2.737622006610000103e+00,-7.565981471469999942e-02,9.424555054969999901e+00,3.120059072970000069e-01,-1.139214709400000053e-01,-9.668513387440000328e-02,1.000000000000000000e+00
1.985148410999999946e+00,2.741604354250000153e+00,-1.440075277339999960e-02,9.372830128430001295e+00,3.234918117519999803e-01,-1.019274070859999964e-01,-9.666208922860000663e-02,1.000000000000000000e+00
1.990066604999999988e+00,2.819367685150000025e+00,4.516175493269999203e-02,9.405430667789998367e+00,3.408833444120000222e-01,-1.187672689560000105e-01,-1.089160069820000049e-01,1.000000000000000000e+00
1.995139752999999905e+00,2.826731784170000150e+00,1.188205685559999975e-01,9.404270976360001200e+00,3.861639797689999654e-01,-1.457213014360000114e-01,-1.139872446660000066e-01,1.000000000000000000e+00
2.000163004000000022e+00,2.814060518650000287e+00,7.622117035789999218e-02,9.428526296689998532e+00,4.052399694919999740e-01,-1.408287733789999885e-01,-1.141449064020000070e-01,1.000000000000000000e+00
2.005168907999999917e+00,2.780264924290000383e+00,9.581639906000000151e-02,9.475033196320000073e+00,4.284810721869999894e-01,-1.425300538539999995e-01,-1.200370565059999950e-01,1.000000000000000000e+00
2.010158575999999808e+00,2.759767787449999954e+00,3.977020722059999847e-02,9.436441307599999107e+00,4.437944889069999621e-01,-1.664656996729999838e-01,-1.428342610599999951e-01,1.000000000000000000e+00
2.015160740999999867e+00,2.701124459819999934e+00,-1.362227008110000054e-02,9.435583229469999722e+00,4.552417397500000407e-01,-1.563187688590000068e-01,-1.556774973870000134e-01,1.000000000000000000e+00
2.020122650999999880e+00,2.729048239529999975e+00,1.699228879520000082e-02,9.424092698160000836e+00,4.806235730650000315e-01,-1.780745238070000069e-01,-1.526704281569999933e-01,1.000000000000000000e+00
2.025147948999999947e+00,2.837935899750000157e+00,3.841071433639999498e-03,9.441499175510001507e+00,5.001748800280000351e-01,-1.799304783339999991e-01,-1.741363406179999851e-01,1.000000000000000000e+00
2.030110704999999793e+00,2.858584720030000081e+00,2.607782305390000249e-02,9.414072239400001152e+00,5.048432946209999717e-01,-1.997706592079999954e-01,-1.882863789799999743e-01,1.000000000000000000e+00
2.035101561999999920e+00,2.863093721889999888e+00,7.751754857769999063e-02,9.317756475990000453e+00,5.283346176150000018e-01,-1.956648677589999941e-01,-1.959138661619999888e-01,1.000000000000000000e+00
2.040080441999999827e+00,2.853652232059999516e+00,1.162750944569999889e-01,9.252443753599999710e+00,5.610652565959999283e-01,-1.999344080689999803e-01,-2.088810801509999870e-01,1.000000000000000000e+00
2.045165658999999803e+00,2.853787548880000191e+00,1.926958973070000136e-01,9.157093620339999518e+00,5.763160586359999948e-01,-2.016679048539999908e-01,-2.122820764779999869e-01,1.000000000000000000e+00
2.050141984000000139e+00,2.966735005889999943e+00,2.456721573490000254e-01,9.138070939969999529e+00,5.949205756190000249e-01,-2.046256065370000155e-01,-2.185753434899999903e-01,1.000000000000000000e+00
2.055115101999999805e+00,3.036563159870000028e+00,2.072325731109999902e-01,9.129887048989999698e+00,6.306968331340000455e-01,-2.261300235990000018e-01,-2.169376313689999891e-01,1.000000000000000000e+00
2.060135562000000142e+00,3.065163523669999890e+00,1.746692422289999880e-01,9.205952636060001026e+00,6.550944447519999603e-01,-2.212848365309999787e-01,-2.415999919179999955e-01,1.000000000000000000e+00
2.065142225000000220e+00,2.971549420429999699e+00,1.469858654079999882e-01,9.272887406689999779e+00,6.836799979209999822e-01,-2.383146137000000109e-01,-2.589363455770000155e-01,1.000000000000000000e+00
2.070127103999999996e+00,2.870176081359999909e+00,1.929705677959999699e-01,9.316445977909999954e+00,6.876617670060000131e-01,-2.539167404170000197e-01,-2.826676964759999855e-01,1.000000000000000000e+00
2.075067773999999865e+00,2.698516030890000028e+00,2.443985389499999938e-01,9.299299612800000503e+00,7.135059833529999729e-01,-2.549225389959999810e-01,-2.801328301430000001e-01,1.000000000000000000e+00
2.080120415000000111e+00,2.799244642310000142e+00,1.948173281740000207e-01,9.232149153589999102e+00,7.434642910959998741e-01,-2.710237503049999774e-01,-2.959166765210000105e-01,1.000000000000000000e+00
2.085109576999999881e+00,2.876977870329999742e+00,2.489817750869999791e-01,9.203080295489998619e+00,7.812855839730000751e-01,-2.583571672439999856e-01,-3.088321089739999858e-01,1.000000000000000000e+00
2.090030984000000203e+00,3.059406275320000201e+00,3.363055460140000341e-01,9.196082983949999345e+00,8.110733032229999750e-01,-2.993683218959999892e-01,-3.244170248509999910e-01,1.000000000000000000e+00
2.095085939000000064e+00,3.083760964379999692e+00,4.186379383939999865e-01,9.242084272150000501e+00,8.372331857679999878e-01,-2.985649406909999803e-01,-3.327762484549999789e-01,1.000000000000000000e+00
2.100173251999999824e+00,3.132979461050000136e+00,5.097052797640000410e-01,9.188478354169999918e+00,8.803490400309998964e-01,-3.165874481200000035e-01,-3.582368195060000038e-01,1.000000000000000000e+00
2.105143974999999834e+00,3.087964261280000233e+00,5.712933556050000528e-01,9.160428902250000505e+00,9.084737896919999889e-01,-3.525167703630000537e-01,-3.579275608060000224e-01,1.000000000000000000e+00
2.110140603000000059e+00,3.065475658359999578e+00,5.781782197479999885e-01,9.119463270129999799e+00,9.422013163569999961e-01,-3.673622012139999837e-01,-3.608600199220000082e-01,1.000000000000000000e+00
2.115147971999999932e+00,3.044103199990000341e+00,6.137952573789999811e-01,9.096430769590000409e+00,9.791607856749999783e-01,-3.704361021520000130e-01,-3.718591332439999952e-01,1.000000000000000000e+00
2.120108441000000177e+00,3.016165099490000223e+00,6.193039377979999704e-01,9.037337944629999953e+00,1.016044616700000125e+00,-3.917783498759999650e-01,-3.790910542010000328e-01,1.000000000000000000e+00
2.125121130000000136e+00,2.969849338509999992e+00,6.907080358630000028e-01,9.019309535990000626e+00,1.052855491639999919e+00,-3.921098709110000247e-01,-3.902379274369999762e-01,1.000000000000000000e+00
2.130192768000000125e+00,3.074038027260000305e+00,8.268827853290000585e-01,8.997018209200000172e+00,1.082976341249999974e+00,-3.960798382760000180e-01,-3.948996365070000514e-01,0.000000000000000000e+00
2.135157643999999966e+00,3.215607475379999691e+00,1.047610233570000160e+00,9.003905630630001156e+00,1.117495775220000098e+00,-4.066131114959999904e-01,-3.907110691069999864e-01,0.000000000000000000e+00
2.140119458000000030e+00,3.352520037599999725e+00,1.295183457040000041e+00,9.075946199969999739e+00,1.167080283160000009e+00,-4.241117239000000150e-01,-3.914819657799999963e-01,0.000000000000000000e+00
2.145073935000000098e+00,3.393371687950000215e+00,1.581311744339999770e+00,9.184909848029999324e+00,1.221344947810000026e+00,-4.425980746750000083e-01,-3.729682266709999916e-01,0.000000000000000000e+00
2.150167362999999998e+00,3.444911028789999996e+00,1.811963935879999932e+00,9.318675344400000782e+00,1.243443131449999850e+00,-4.609794914720000136e-01,-3.708030283450000075e-01,0.000000000000000000e+00
2.155098923000000166e+00,3.417045993519999936e+00,1.924214642799999986e+00,9.372547804360001678e+00,1.291567206379999888e+00,-5.224906206130000008e-01,-3.512664735320000231e-01,0.000000000000000000e+00
2.160165060999999831e+00,3.466231172450000120e+00,2.020594119100000086e+00,9.398900973759999999e+00,1.329820394520000004e+00,-5.419844388960000092e-01,-3.293347656730000184e-01,0.000000000000000000e+00
2.165176735999999824e+00,3.577090717269999942e+00,2.113964038320000238e+00,9.382588136860000816e+00,1.338017344470000092e+00,-5.743390917780000215e-01,-2.992778122429999854e-01,0.000000000000000000e+00
2.170167487000000062e+00,3.666621935109999786e+00,2.181533015200000314e+00,9.392641913360000316e+00,1.353824973109999830e+00,-5.851378440860000030e-01,-2.699043154720000004e-01,0.000000000000000000e+00
2.175109151000000018e+00,3.714031336540000616e+00,2.287703671550000095e+00,9.291623086819999600e+00,1.342149734499999969e+00,-6.274256110189999625e-01,-2.639812827110000204e-01,0.000000000000000000e+00
2.180122138000000209e+00,3.543624208740000281e+00,2.359074671070000129e+00,9.223198369889999526e+00,1.347564101220000143e+00,-6.311882734300000575e-01,-2.561290860179999962e-01,0.000000000000000000e+00
2.185127232999999780e+00,3.390333927689999971e+00,2.354002336240000215e+00,9.119432874990000215e+00,1.304096102709999982e+00,-6.548324227330000191e-01,-2.531480789180000079e-01,0.000000000000000000e+00
2.190117857999999806e+00,3.333107773380000083e+00,2.317653842529999952e+00,9.016554099800000444e+00,1.263139128679999779e+00,-6.347934603689999733e-01,-2.530253529550000047e-01,0.000000000000000000e+00
2.195157039999999782e+00,3.250509861930000355e+00,2.268348105959999916e+00,8.911381660710000929e+00,1.196568965910000060e+00,-6.163352131839999748e-01,-2.635744214060000146e-01,0.000000000000000000e+00
2.200118736999999935e+00,3.289805807270000049e+00,2.248391944120000208e+00,8.818668890219999668e+00,1.111932277680000025e+00,-5.770781040190000599e-01,-2.764836251739999917e-01,0.000000000000000000e+00
2.205173632000000161e+00,3.282778100590000303e+00,2.275766127129999816e+00,8.666920577919999147e+00,1.048750877379999835e+00,-5.539715290069999742e-01,-3.056734204289999757e-01,1.000000000000000000e+00
2.210116675000000086e+00,3.269297856769999733e+00,2.284307014849999984e+00,8.569182088219999827e+00,9.561581015590000510e-01,-5.138165950779999269e-01,-3.095111250879999942e-01,1.000000000000000000e+00
2.215117338000000213e+00,3.438731755630000109e+00,2.377336742329999808e+00,8.500134855479998919e+00,8.686770796780000081e-01,-4.808771610260000329e-01,-3.511446118350000090e-01,1.000000000000000000e+00
2.220156327999999846e+00,3.543319088309999643e+00,2.558265556409999864e+00,8.448526833320000762e+00,7.819578647609999322e-01,-4.276787936689999681e-01,-3.590778112410000222e-01,0.000000000000000000e+00
2.225149526000000044e+00,3.719905781530000510e+00,2.694915376049999978e+00,8.372876841310000984e+00,7.314202189449999780e-01,-3.941087424759999736e-01,-3.613695502279999916e-01,1.000000000000000000e+00
2.230181191999999868e+00,3.918308000719999740e+00,2.809455655199999846e+00,8.355707679840000068e+00,6.735176444050000599e-01,-3.488554954529999863e-01,-3.667849302289999947e-01,1.000000000000000000e+00
2.235123676000000170e+00,3.962547539940000085e+00,2.992248509589999994e+00,8.349334637680000171e+00,6.224533319470000325e-01,-3.472370803360000369e-01,-3.480955958370000047e-01,1.000000000000000000e+00
2.240212746000000088e+00,3.961665496409999765e+00,3.067576430030000356e+00,8.390822247839999193e+00,5.946967005730000588e-01,-3.256375193600000162e-01,-3.337770700450000128e-01,1.000000000000000000e+00
2.245132309000000159e+00,3.943029769519999839e+00,3.033447073679999662e+00,8.418340369369998299e+00,5.601693987850000500e-01,-2.979330420490000075e-01,-3.278620839120000019e-01,1.000000000000000000e+00
2.250175637999999978e+00,3.982112948899999783e+00,2.968262361579999897e+00,8.471828213929999407e+00,5.199754238129999928e-01,-2.991251647470000163e-01,-3.093906044959999768e-01,1.000000000000000000e+00
2.255171289999999829e+00,3.952401116719999941e+00,2.826364996690000186e+00,8.404352176030000621e+00,4.799326658250000488e-01,-2.772410213950000091e-01,-3.087081909180000028e-01,1.000000000000000000e+00
2.260183566999999893e+00,3.867034325080000112e+00,2.577671390889999969e+00,8.346215628879999571e+00,4.414608776569999837e-01,-2.538690567019999955e-01,-3.220590651040000085e-01,1.000000000000000000e+00
2.265179215999999940e+00,3.796414728459999388e+00,2.393012888759999957e+00,8.278364912439998946e+00,3.629148006440000018e-01,-2.226410806180000035e-01,-3.411374390129999767e-01,1.000000000000000000e+00
2.270114439999999956e+00,3.707290045590000194e+00,2.397904606330000021e+00,8.253719131489999583e+00,3.015502393250000246e-01,-1.974572837350000165e-01,-3.640497326850000159e-01,1.000000000000000000e+00
2.275154045999999930e+00,3.759655900380000304e+00,2.440730917749999840e+00,8.273535592589999155e+00,2.295595258469999844e-01,-1.484880596400000030e-01,-3.899596333500000012e-01,1.000000000000000000e+00
2.280182265000000097e+00,3.857380946070000149e+00,2.605906428509999984e+00,8.302420326289999153e+00,2.084283828740000066e-01,-1.182093098760000072e-01,-4.074847400190000357e-01,1.000000000000000000e+00
2.285157836000000220e+00,3.945612771760000026e+00,2.956617224240000397e+00,8.352202886589999764e+00,1.762976795430000188e-01,-1.041174009440000020e-01,-3.835414648059999876e-01,1.000000000000000000e+00
2.290128479999999911e+00,4.186269201569999154e+00,3.361277344549999935e+00,8.331161267609999754e+00,1.887864619489999785e-01,-8.599160611629999562e-02,-3.741126954559999551e-01,1.000000000000000000e+00
2.295131986999999985e+00,4.245751610369999263e+00,3.827582604659999443e+00,8.410792438210000554e+00,2.232971489429999845e-01,-8.429775387049999458e-02,-3.028585314750000257e-01,1.000000000000000000e+00
2.300169109000000045e+00,4.348466719430000182e+00,4.078123007360000329e+00,8.384632745560001155e+00,2.838567793369999870e-01,-9.121365100150000127e-02,-2.546594142909999747e-01,1.000000000000000000e+00
2.305144869999999901e+00,4.257460460599999941e+00,3.946379079950000257e+00,8.394372633799999761e+00,3.625805377960000242e-01,-1.230634152889999999e-01,-1.887856423849999798e-01,1.000000000000000000e+00
2.310208491000000031e+00,4.204123714949999702e+00,3.646044426509999603e+00,8.436596741549999834e+00,4.404161870480000074e-01,-1.466400027280000129e-01,-1.287928968669999896e-01,1.000000000000000000e+00
2.315207379999999926e+00,4.087396154880000410e+00,3.269849645440000341e+00,8.461284023560001089e+00,4.633256495000000474e-01,-1.538096815349999924e-01,-1.014659479259999997e-01,1.000000000000000000e+00
2.320166461999999985e+00,3.917286840980000573e+00,2.929204608909999674e+00,8.456853347639999186e+00,4.494595825670000266e-01,-1.473893076180000095e-01,-9.635386615989999237e-02,1.000000000000000000e+00
2.325161950000000033e+00,3.728210960799999807e+00,2.725401407459999703e+00,8.468637893449999510e+00,4.282962977889999689e-01,-1.309664398429999932e-01,-9.164350479839998564e-02,1.000000000000000000e+00
2.330139228000000173e+00,3.719829209169999817e+00,2.716713950880000006e+00,8.394629823429999860e+00,3.673079609870000262e-01,-1.140062138440000039e-01,-1.224063038830000005e-01,1.000000000000000000e+00
2.335169248000000142e+00,3.699738022769999635e+00,2.781491835739999807e+00,8.334702885739998734e+00,3.096288144589999791e-01,-6.091747805480000888e-02,-1.253233551980000027e-01,1.000000000000000000e+00
2.340168644999999881e+00,3.759924195930000490e+00,2.984101151229999527e+00,8.260490233060000520e+00,2.568501532079999761e-01,-4.666107147930000087e-02,-1.384097039699999920e-01,1.000000000000000000e+00
2.345155693999999791e+00,3.952706237149999691e+00,3.169870098820000148e+00,8.213930726460000997e+00,2.103547155860000240e-01,-1.733701676129999897e-02,-1.683316081760000138e-01,1.000000000000000000e+00
2.350161531999999998e+00,3.960646382499999785e+00,3.301735899040000533e+00,8.247459486569999498e+00,1.833327561620000101e-01,1.274740882220000079e-02,-1.377412527799999897e-01,1.000000000000000000e+00
2.355112843000000122e+00,4.040881071950000347e+00,3.354347545290000454e+00,8.174404771749999910e+00,1.416435986759999877e-01,1.693006232379999990e-02,-1.081113293769999928e-01,1.000000000000000000e+00
2.360186303999999957e+00,4.162035508540000706e+00,3.389107600759999617e+00,8.229684760430000523e+00,1.384836286309999998e-01,2.882070653140000188e-02,-1.099838316439999963e-01,1.000000000000000000e+00
2.365158588999999978e+00,4.063874994040000743e+00,3.405267000659999876e+00,8.285022616770000070e+00,1.154305636879999902e-01,5.460092797880000681e-02,-9.270393848419999916e-02,1.000000000000000000e+00
2.370164813000000148e+00,4.034731609409999642e+00,3.362956383679999828e+00,8.320390282749999145e+00,9.718323498960002027e-02,5.061017721889999460e-02,-8.954723924400000146e-02,1.000000000000000000e+00
2.375171477999999947e+00,3.947782809270000026e+00,3.237943518090000250e+00,8.291801901639999528e+00,7.051889598369999457e-02,9.845602512360000780e-02,-6.871946901080000503e-02,1.000000000000000000e+00
2.380201487999999976e+00,3.841689455940000553e+00,3.134107296040000268e+00,8.326716563160001527e+00,3.560376539829999964e-02,7.790729403500000483e-02,-6.967851519579999764e-02,1.000000000000000000e+00
2.385134270000000001e+00,3.805536777069999488e+00,3.094978523959999617e+00,8.329803423260001338e+00,1.682661846279999776e-02,1.159231886270000039e-01,-6.591279059650000105e-02,1.000000000000000000e+00
2.390168944000000018e+00,3.845107155430000478e+00,3.122705904319999615e+00,8.379237608510001323e+00,-4.370275884869999350e-02,1.387106031179999865e-01,-7.409925013780001291e-02,1.000000000000000000e+00
2.395165119000000065e+00,3.930003699210000256e+00,3.256867706530000017e+00,8.538177293629999554e+00,-7.767788320780000255e-02,1.494155973200000098e-01,-6.386724114419999043e-02,1.000000000000000000e+00
2.400203975000000156e+00,3.975597283389999959e+00,3.290886003729999842e+00,8.621384569139999954e+00,-8.601651340719999872e-02,1.624247580770000199e-01,-7.585734874010000017e-02,1.000000000000000000e+00
2.405187682999999854e+00,3.841725404040000402e+00,3.297095672020000201e+00,8.621151344910000347e+00,-9.940919280050000695e-02,1.588900387290000105e-01,-5.800025165080000683e-02,1.000000000000000000e+00
2.410161168000000131e+00,3.811412098839999985e+00,3.306205737929999611e+00,8.695036080810000456e+00,-1.234895661470000044e-01,1.723145246510000284e-01,-4.526083543900000228e-02,1.000000000000000000e+00
2.415162426999999834e+00,3.798089383669999819e+00,3.359335270569999921e+00,8.774285558609999924e+00,-1.281514763830000070e-01,1.642935574049999847e-01,-4.105502367019999571e-02,1.000000000000000000e+00
2.420177071999999985e+00,3.688655195480000426e+00,3.385934815950000232e+00,8.798562506259999694e+00,-1.317296475170000036e-01,1.584378927950000071e-01,-1.253779511899999997e-02,1.000000000000000000e+00
2.425167883999999940e+00,3.651929100630000313e+00,3.543508473399999747e+00,8.831901296760001685e+00,-1.273573488000000198e-01,1.532472968099999888e-01,-4.826177377250000407e-03,1.000000000000000000e+00
2.430124360000000205e+00,3.488263556040000157e+00,3.513352112330000221e+00,8.873623884720000632e+00,-1.150385811920000001e-01,1.343028098340000032e-01,2.818612754340000040e-02,1.000000000000000000e+00
2.435152226000000031e+00,3.473352694899999982e+00,3.398078550469999737e+00,8.854009083670000280e+00,-9.605578333139998259e-02,1.445984840389999970e-01,3.002466633919999989e-02,1.000000000000000000e+00
2.440211797999999987e+00,3.360040788490000541e+00,3.326892552129999903e+00,8.858093138110001874e+00,-9.607935696839998985e-02,1.436743885279999910e-01,6.894462555650000823e-02,1.000000000000000000e+00
2.445162343999999877e+00,3.406269747969999706e+00,3.230430658239999975e+00,8.848941278889999040e+00,-8.124870061869998716e-02,1.326153874400000099e-01,8.960482478139999984e-02,1.000000000000000000e+00
2.450154221000000021e+00,3.383607834300000228e+00,3.136969991990000040e+00,8.887966298330001180e+00,-1.002547070380000044e-01,1.288817673919999962e-01,9.791605919600000763e-02,1.000000000000000000e+00
2.455163316000000151e+00,3.433312653190000230e+00,3.051518736939999865e+00,8.902236231219999851e+00,-1.334339678289999942e-01,1.240209117530000071e-01,7.157056033610000034e-02,1.000000000000000000e+00
2.460136336999999784e+00,3.416757531970000095e+00,3.034735067659999785e+00,8.905808244489998415e+00,-1.352309435610000166e-01,1.283143013720000059e-01,7.671986520290000056e-02,1.000000000000000000e+00
2.465168171000000186e+00,3.487234505259999562e+00,3.028741672469999813e+00,8.935583205029999476e+00,-1.618777662520000105e-01,1.230469942090000046e-01,8.923202753070000326e-02,1.000000000000000000e+00
2.470159182999999814e+00,3.567944995519999996e+00,3.095333328749999779e+00,8.952831276950000472e+00,-1.702233701939999955e-01,1.044276654719999975e-01,8.433222025630000840e-02,1.000000000000000000e+00
2.475065663000000082e+00,3.581997486269999698e+00,3.109342564879999937e+00,8.936238454069998838e+00,-1.823134422300000113e-01,1.008029580120000102e-01,8.943839371200000554e-02,1.000000000000000000e+00
2.480056269999999952e+00,3.516443648610000139e+00,3.020110329979999619e+00,8.916604363790000320e+00,-1.851447224619999776e-01,8.927238732580000669e-02,1.070904657239999946e-01,1.000000000000000000e+00
2.485070514999999869e+00,3.559284426940000134e+00,2.931481613939999953e+00,8.831215068060000561e+00,-1.993159204720000299e-01,8.197673410180000841e-02,8.433051407339998973e-02,1.000000000000000000e+00
2.490135484000000066e+00,3.502486142659999580e+00,2.837026091430000285e+00,8.786894280300000304e+00,-2.059234976770000225e-01,7.523885369299999903e-02,1.055705174800000007e-01,1.000000000000000000e+00
2.495124542000000112e+00,3.594697685630000361e+00,2.729104938159999882e+00,8.692959859060000127e+00,-2.125167399639999732e-01,6.424459069969999658e-02,8.790917694569999608e-02,1.000000000000000000e+00
2.500106162999999881e+00,3.650185471839999973e+00,2.615007434329999825e+00,8.605117324949999258e+00,-2.173439115289999835e-01,9.211247414349998941e-02,9.030006825919999203e-02,1.000000000000000000e+00
2.505114864999999913e+00,3.695670919459999926e+00,2.567259594729999872e+00,8.603034088939999435e+00,-2.049628496170000092e-01,8.781033009289998525e-02,9.107238799330000245e-02,1.000000000000000000e+00
2.510145767000000028e+00,3.761633922450000167e+00,2.550367496639999843e+00,8.597978559119999531e+00,-2.067587226629999941e-01,6.683554500339999871e-02,8.612870424990000384e-02,1.000000000000000000e+00
2.515139952000000179e+00,3.732354928739999966e+00,2.476246906160000094e+00,8.552163733400000467e+00,-2.111860066649999812e-01,7.900742441420000040e-02,9.299933910369999335e-02,1.000000000000000000e+00
2.520172431000000213e+00,3.825404091580000721e+00,2.435130175129999852e+00,8.627672271110000679e+00,-1.791081428530000019e-01,6.652073562150000174e-02,7.232499867680000638e-02,1.000000000000000000e+00
2.525136090999999805e+00,3.825851250819999549e+00,2.414965777370000399e+00,8.653867035079999326e+00,-1.693444103000000256e-01,5.768726766110000154e-02,7.570312172170000353e-02,1.000000000000000000e+00
2.530102009000000152e+00,3.901216580669999878e+00,2.384774491120000395e+00,8.632776900770000594e+00,-1.479579955339999919e-01,4.457190632819999637e-02,7.943218946459999763e-02,1.000000000000000000e+00
2.535152628000000075e+00,3.793572490769999472e+00,2.356875845849999873e+00,8.653498201760001507e+00,-1.113931387659999883e-01,2.111202105879999777e-02,7.135669142010001020e-02,1.000000000000000000e+00
2.540124242000000088e+00,3.737631700100000121e+00,2.309248710009999872e+00,8.617787421439999207e+00,-6.848305463789999825e-02,1.127931661899999986e-02,5.475344881419999532e-02,1.000000000000000000e+00
2.545112786999999877e+00,3.673847794709999448e+00,2.361324788080000125e+00,8.574228265689999517e+00,-3.573612123730000173e-02,2.556242048739999686e-03,5.395910143849999563e-02,1.000000000000000000e+00
2.550076618999999933e+00,3.620400282159999428e+00,2.396038081799999997e+00,8.583464880589998458e+00,1.658455654979999749e-02,-1.973290694880000268e-03,6.058736890549999698e-02,1.000000000000000000e+00
2.555121860999999939e+00,3.563500875599999951e+00,2.418600626749999982e+00,8.549599435870000264e+00,3.280050680040000333e-02,-3.940606489780000554e-03,5.976055562500000307e-02,1.000000000000000000e+00
2.560121194000000155e+00,3.533976382690000140e+00,2.395179126890000010e+00,8.572613231709999226e+00,8.976605534550000098e-02,-2.753689419479999918e-03,5.002931877969999525e-02,1.000000000000000000e+00
2.565076175000000180e+00,3.548594982890000527e+00,2.365637975099999846e+00,8.604384919030000134e+00,1.450205594300000012e-01,-2.227646112440000159e-02,4.422183334830000201e-02,1.000000000000000000e+00
2.570198206999999790e+00,3.534943181890000119e+00,2.348089751190000296e+00,8.622337924349999128e+00,1.698671579359999906e-01,-2.268844842909999507e-02,2.572441659869999925e-02,1.000000000000000000e+00
2.575159769999999959e+00,3.430973688849999981e+00,2.384680236959999977e+00,8.694743819870000223e+00,2.071036398409999979e-01,-4.567379876969999974e-02,2.035575546319999887e-02,1.000000000000000000e+00
2.580128077999999991e+00,3.345891851629999802e+00,2.479713120960000072e+00,8.777995519050000084e+00,2.199357450010000214e-01,-4.249955713749999781e-02,9.239925071599999762e-03,1.000000000000000000e+00
2.585127184000000078e+00,3.273614258669999888e+00,2.521332833079999780e+00,8.763146324960001010e+00,2.477279901499999937e-01,-4.936414957050000440e-02,1.820630580190000028e-02,1.000000000000000000e+00
2.590138856999999906e+00,3.396674528889999767e+00,2.523638771929999969e+00,8.785978919019999722e+00,2.684756517410000209e-01,-5.777825415130000836e-02,2.899166895079999598e-03,1.000000000000000000e+00
2.595153192999999803e+00,3.488714806940000024e+00,2.511124158270000351e+00,8.891799592879999992e+00,2.908930778500000147e-01,-9.810018539430000184e-02,-9.909435175360001985e-03,1.000000000000000000e+00
2.600135879000000205e+00,3.529302253399999589e+00,2.550691614029999776e+00,8.951885520530000306e+00,3.019732236859999919e-01,-8.464980870489999254e-02,-1.432599406689999931e-02,1.000000000000000000e+00
2.605104798999999804e+00,3.571314471959999626e+00,2.536808634629999837e+00,9.007325083679999622e+00,2.771676182750000272e-01,-1.081773936749999970e-01,-2.738557942210000096e-02,1.000000000000000000e+00
2.610069129999999848e+00,3.544278288730000170e+00,2.565783092440000246e+00,9.050500793060001214e+00,3.029159009460000163e-01,-1.085693910720000044e-01,-3.430370613929999840e-02,1.000000000000000000e+00
2.615112537999999986e+00,3.551852231119999814e+00,2.656745219870000341e+00,9.118816204399999847e+00,2.766247987750000137e-01,-1.406471431259999905e-01,-4.117668420080000669e-02,1.000000000000000000e+00
2.620123634000000035e+00,3.542713815890000006e+00,2.724879721679999811e+00,9.147656514439999498e+00,2.550774514679999827e-01,-1.516292095179999910e-01,-5.557648837569999223e-02,1.000000000000000000e+00
2.625177279999999946e+00,3.592563011690000252e+00,2.830397613199999718e+00,9.253684109049999051e+00,2.609961032869999586e-01,-1.654641032220000030e-01,-8.520442247390000445e-02,1.000000000000000000e+00
2.630164317999999835e+00,3.616100539140000514e+00,2.792257852159999665e+00,9.149576084319999580e+00,2.318961173300000400e-01,-1.738103926179999925e-01,-7.481010258200000707e-02,1.000000000000000000e+00
2.635143101000000154e+00,3.824538706919999864e+00,2.722135683669999917e+00,8.676310337549999474e+00,2.110441476110000159e-01,-1.718884408470000014e-01,-8.467478305099999936e-02,1.000000000000000000e+00
2.640218511000000046e+00,4.549917512540000430e+00,2.590381527119999916e+00,8.072100581579999101e+00,2.099112868309999935e-01,-1.816281825299999875e-01,-6.308632344009999782e-02,1.000000000000000000e+00
2.645136570000000020e+00,5.174728450249999945e+00,2.603409350999999816e+00,7.622917136659999926e+00,2.423354238269999905e-01,-1.620651483540000160e-01,-5.927015841009999897e-02,1.000000000000000000e+00
2.650170145000000144e+00,5.287894810710000115e+00,2.683061856649999743e+00,7.252801967769999081e+00,3.021589517590000384e-01,-1.590844690799999850e-01,-5.572610720990000405e-02,1.000000000000000000e+00
2.655180307999999822e+00,5.007057761680000496e+00,2.771013696339999832e+00,7.011972519480000443e+00,3.781804442409999467e-01,-1.324719190599999985e-01,-2.701879665259999605e-02,1.000000000000000000e+00
2.660126104000000158e+00,4.737145719019999923e+00,2.976380786110000010e+00,6.967512615499999562e+00,4.270865023139999717e-01,-1.122635602949999950e-01,-2.684273384509999749e-02,1.000000000000000000e+00
2.665161332999999910e+00,4.388795514949999976e+00,3.026914164779999972e+00,6.909158626210000875e+00,4.657560884949999980e-01,-7.308305054899999487e-02,-3.033774672080000092e-03,1.000000000000000000e+00
2.670210287000000182e+00,4.178697305010000029e+00,2.942121958149999994e+00,6.909497648910000400e+00,4.946926236150000489e-01,-3.740147501230000476e-02,7.689021527770001189e-03,1.000000000000000000e+00
2.675199957999999878e+00,4.147307895009999967e+00,2.781822382870000165e+00,7.056570955139999768e+00,5.101250410080000464e-01,3.273750469090000448e-02,7.248098030690000582e-03,1.000000000000000000e+00
2.680153767000000187e+00,4.198955664659999698e+00,2.697516790720000390e+00,7.226650458419999978e+00,4.685530364509999934e-01,5.418597906830000671e-02,2.044041175399999939e-04,1.000000000000000000e+00
2.685099893999999932e+00,4.441505945400000321e+00,2.694017842680000108e+00,7.465813434810000260e+00,4.448340833189999843e-01,9.778182953600000893e-02,-1.477372087539999962e-02,1.000000000000000000e+00
2.690183092999999914e+00,4.698671026940000495e+00,2.836161875820000233e+00,7.768205313039999282e+00,4.127169847489999821e-01,1.266409605739999833e-01,-4.267073795199999298e-02,1.000000000000000000e+00
2.695165519000000121e+00,4.796254326069999685e+00,3.068749565470000107e+00,8.041368174180000494e+00,3.748326301569999686e-01,1.278813034300000095e-01,-4.483596980569999613e-02,1.000000000000000000e+00
2.700183082000000123e+00,4.845985740709999767e+00,3.364261036540000305e+00,8.277551257969999909e+00,3.562810420989999671e-01,1.292343288660000034e-01,-2.568247169260000004e-02,1.000000000000000000e+00
2.705175625999999944e+00,4.847587915210000098e+00,3.512177223330000153e+00,8.588740190650000272e+00,3.369988501070000364e-01,1.222472414369999982e-01,-2.280403301120000059e-02,1.000000000000000000e+00
2.710166915999999926e+00,5.225478394280000494e+00,2.122342282830000038e+00,9.705827572809999637e+00,2.754774689669999832e-01,1.673786640169999951e-01,5.888248980050000275e-02,1.000000000000000000e+00
2.715208055000000176e+00,6.263446062499999911e+00,2.068570068370000126e+00,9.966043274100000460e+00,2.128468155860000210e-01,1.629482507710000028e-01,1.365388631820000087e-01,1.000000000000000000e+00
2.720155571999999911e+00,6.987244320930000363e+00,2.173200655670000092e+00,1.009303649990000018e+01,1.560466140509999822e-01,1.271257698540000092e-01,1.767813861369999795e-01,1.000000000000000000e+00
2.725137292999999961e+00,7.444104876349999955e+00,1.741211214400000040e+00,1.048791727669999929e+01,1.102965101599999859e-01,3.280931711199999712e-02,1.633147448299999971e-01,1.000000000000000000e+00
2.730177305000000221e+00,7.599054615039999128e+00,9.980782139680000054e-01,1.101915999609999908e+01,3.834498301150000149e-02,-6.345465779299999665e-02,1.789586991070000188e-01,1.000000000000000000e+00
2.735155422000000058e+00,8.081916457669999332e+00,6.437573379869999668e-01,1.122761219240000052e+01,-5.649293586609999834e-02,-1.608570218089999948e-01,1.863260865209999950e-01,1.000000000000000000e+00
2.740083395000000088e+00,8.815106229299999541e+00,5.218644310479999548e-01,1.134207911410000058e+01,-1.274749189620000001e-01,-2.602488994599999605e-01,2.116661369800000025e-01,1.000000000000000000e+00
2.745082102000000024e+00,9.385769104979999611e+00,3.481526356740000105e-01,1.115522032540000019e+01,-1.826884448530000093e-01,-3.728175759319999893e-01,2.316500544550000040e-01,0.000000000000000000e+00
2.750175055999999785e+00,9.947926602649999950e+00,1.857726008499999970e-01,1.077776531519999992e+01,-2.413049340250000008e-01,-5.077272653580000572e-01,2.654539644719999814e-01,0.000000000000000000e+00
2.755146959000000173e+00,1.013924763139999996e+01,3.080699786709999513e-02,1.041588547519999963e+01,-2.567722201350000066e-01,-6.152057051659999276e-01,3.124797344210000216e-01,0.000000000000000000e+00
2.760124626000000081e+00,1.021591702959999992e+01,2.337257902990000080e-01,1.038191540100000054e+01,-3.291616439820000406e-01,-7.399372458460000690e-01,3.478274047370000233e-01,0.000000000000000000e+00
2.765102830000000012e+00,1.103802485559999980e+01,-1.900384050679999881e-01,1.043665119980000000e+01,-3.639699220660000401e-01,-8.247455358509999668e-01,4.169110059740000485e-01,0.000000000000000000e+00
2.770146281000000155e+00,1.097061662219999967e+01,-4.667817550450000241e-01,1.006781905649999942e+01,-4.618548452849999819e-01,-9.065542817120000318e-01,5.187337994580000222e-01,0.000000000000000000e+00
2.775227977000000124e+00,1.045562010419999943e+01,-7.445465935570000360e-01,9.907960502959999971e+00,-5.743566155429999931e-01,-9.773823022840000263e-01,6.073710918429999772e-01,0.000000000000000000e+00
2.780160565000000084e+00,1.025609472620000062e+01,-1.953737966659999881e+00,9.624156420820000335e+00,-6.670363545419999429e-01,-9.103030562399999637e-01,7.187907099720000081e-01,0.000000000000000000e+00
2.785176293000000136e+00,9.282719649400000606e+00,-1.787231645690000148e+00,8.826844597889998312e+00,-8.538308143619999235e-01,-8.317852616310000835e-01,8.548595309259999775e-01,0.000000000000000000e+00
2.790158576000000057e+00,8.890387387999998836e+00,-1.879266224650000039e+00,8.980491437290000434e+00,-9.780592322350000201e-01,-7.286689281460000389e-01,9.359713196750000241e-01,0.000000000000000000e+00
2.795184808000000132e+00,8.764437533819998905e+00,-2.072927971319999951e+00,8.574070444780000244e+00,-1.128135085110000047e+00,-5.228528380390000674e-01,1.056474566459999931e+00,0.000000000000000000e+00
2.800046946000000148e+00,8.301896594680000518e+00,-2.671168297489999954e+00,7.447563492369999594e+00,-1.308170080180000028e+00,-3.388345241549999831e-01,1.202053546909999993e+00,0.000000000000000000e+00
2.805186570000000046e+00,6.945299030130000162e+00,-2.224333023140000254e+00,6.830868933350000560e+00,-1.492651820180000088e+00,-1.747312843800000182e-01,1.336052775379999780e+00,0.000000000000000000e+00
2.810124304999999989e+00,5.735909796360000534e+00,-8.521537124470000002e-01,7.194762451249999913e+00,-1.638569235800000135e+00,4.219801723960000389e-02,1.412660241129999994e+00,0.000000000000000000e+00
2.815180162999999958e+00,5.936196221859999511e+00,2.009885093560000169e-01,7.945329474139999348e+00,-1.663320541379999851e+00,3.445632755759999721e-01,1.395311713219999916e+00,0.000000000000000000e+00
2.820191545000000133e+00,6.792698484909998946e+00,1.011242085309999927e+00,8.263741343810000473e+00,-1.622254610060000157e+00,6.649858355520000819e-01,1.297545313839999936e+00,0.000000000000000000e+00
2.825030490000000061e+00,7.725842089089999476e+00,1.563906436040000125e+00,8.440480889510000750e+00,-1.549689531329999870e+00,9.331767559049999328e-01,1.171051859859999933e+00,0.000000000000000000e+00
2.830107821999999995e+00,8.953313507509999880e+00,1.610520303169999945e+00,8.533954707490000402e+00,-1.425720334049999982e+00,1.120995640750000133e+00,1.009161472319999975e+00,0.000000000000000000e+00
2.835143335000000153e+00,9.939212550319998840e+00,1.845446811029999745e+00,8.547702662339998980e+00,-1.285040259360000103e+00,1.249779224399999888e+00,7.828003764149999988e-01,0.000000000000000000e+00
2.840104204000000188e+00,1.047091119679999949e+01,1.942484751240000085e+00,8.466096392280000771e+00,-1.147858381270000061e+00,1.257697105410000127e+00,5.937085151669999616e-01,0.000000000000000000e+00
2.845077836999999832e+00,1.099976789789999998e+01,2.247653546840000072e+00,8.458833123279999811e+00,-1.047092795369999996e+00,1.246586441989999905e+00,3.687551617620000166e-01,0.000000000000000000e+00
2.850073513999999975e+00,1.089997948999999977e+01,2.282576391670000149e+00,8.255428273490000635e+00,-9.326291680339999779e-01,1.162735342980000031e+00,2.211756408209999969e-01,0.000000000000000000e+00
2.855019416999999837e+00,1.070704401169999898e+01,2.288873153719999998e+00,8.079611687859999947e+00,-8.229606747630000552e-01,1.038037061690000096e+00,7.432789355520000307e-02,0.000000000000000000e+00
2.859995747999999782e+00,1.065592289629999989e+01,2.161990548739999962e+00,7.862500384289998756e+00,-7.278892993929999555e-01,8.881017565729999452e-01,-3.115780465299999857e-02,0.000000000000000000e+00
2.865005721999999810e+00,1.059866079390000060e+01,1.962089907680000023e+00,7.694881133630000036e+00,-6.498687863350000038e-01,7.586734890940000087e-01,-1.345594674349999964e-01,0.000000000000000000e+00
2.870023921000000033e+00,1.018910033429999906e+01,1.883965634520000210e+00,7.615833315880000676e+00,-5.773879885670000212e-01,5.944992303850000770e-01,-1.808706372980000143e-01,0.000000000000000000e+00
2.875098676999999991e+00,9.537924829039999608e+00,1.602832963540000044e+00,7.591386856889998924e+00,-5.400099158290000423e-01,4.647881090640000323e-01,-2.039482295510000043e-01,0.000000000000000000e+00
2.880044010999999848e+00,8.960736350990000432e+00,1.512652926399999931e+00,7.496845117410000370e+00,-4.974848330020000264e-01,3.975677192209999822e-01,-2.495422661300000233e-01,0.000000000000000000e+00
2.885142565999999853e+00,8.340703587460000179e+00,1.254159518860000100e+00,7.491490312380000738e+00,-5.110362768170000347e-01,3.481832146639999848e-01,-2.697264850140000392e-01,0.000000000000000000e+00
2.890085184999999779e+00,7.901689654380001038e+00,1.039392513389999939e+00,7.490374460089999076e+00,-5.172368884089999508e-01,3.081130683419999738e-01,-3.111719191069999835e-01,0.000000000000000000e+00
2.895128355000000209e+00,7.420586053590000120e+00,8.619719996929999795e-01,7.547213368639999587e+00,-5.648440122600000279e-01,3.078066706659999818e-01,-3.484021723269999926e-01,0.000000000000000000e+00
2.900139558999999867e+00,7.045760807310000651e+00,6.087232878769999189e-01,7.509732071510000218e+00,-6.637991070750000056e-01,3.432333767409999625e-01,-4.246799051760000165e-01,0.000000000000000000e+00
2.905224712999999959e+00,6.470974129690000076e+00,4.656389051529999934e-01,7.518335649199999970e+00,-7.421177029610001030e-01,3.562447428700000196e-01,-4.858842492100000632e-01,0.000000000000000000e+00
2.910162865999999848e+00,6.168652978609999060e+00,4.099722187169999588e-01,7.536258843910000671e+00,-8.687617778780000188e-01,4.115785360340000198e-01,-5.737442970280000054e-01,0.000000000000000000e+00
2.915134289000000045e+00,5.861537578980000163e+00,5.417002544400000286e-01,7.534336935930000756e+00,-9.945586323739999957e-01,4.417482018469999772e-01,-6.337972283359999404e-01,0.000000000000000000e+00
2.920119863000000038e+00,5.701312530230000064e+00,5.183924075560000233e-01,7.548184844019999673e+00,-1.090210437770000151e+00,4.730604290959999902e-01,-6.636199355129999145e-01,0.000000000000000000e+00
2.925130322999999866e+00,5.624537333589999299e+00,2.902460978899999988e-01,7.558142174410001246e+00,-1.200907111170000041e+00,4.723103642459999807e-01,-6.746512651440000896e-01,0.000000000000000000e+00
2.930152441999999802e+00,5.504473030319999793e+00,8.765180643799999616e-02,7.611294503410000800e+00,-1.295127153399999953e+00,5.174932479860000489e-01,-6.733325719830000056e-01,0.000000000000000000e+00
2.935124390999999999e+00,5.247615991810000047e+00,2.470006614399999911e-02,7.666025041510000193e+00,-1.397019147870000033e+00,5.221728682520000442e-01,-6.559595465659999736e-01,0.000000000000000000e+00
2.940096222000000203e+00,4.918819506250000195e+00,-1.162427539569999974e-01,7.596891884049999710e+00,-1.470977544779999757e+00,5.454679727550000301e-01,-6.421259045599999604e-01,0.000000000000000000e+00
2.945083416000000121e+00,4.598191129579999981e+00,-1.547177931010000063e-01,7.581891298789999567e+00,-1.555383443829999823e+00,5.552826523780000079e-01,-5.944206118579999920e-01,0.000000000000000000e+00
2.950155888999999920e+00,4.411892897419999571e+00,-2.507505748580000082e-01,7.542571680319999139e+00,-1.631708025929999861e+00,5.643991827959999874e-01,-5.452061891560000539e-01,0.000000000000000000e+00
