t,ax,ay,az,wx,wy,wz,zv
4.947191000000000088e-03,2.864749380140000135e+00,3.754934132559999860e+00,-8.599192026560000812e+00,-3.041411750020000040e-03,-6.041107699279999778e-03,-3.217278281229999856e-03,1.000000000000000000e+00
1.000546499999999984e-02,2.851025098430000071e+00,3.686738840469999889e+00,-8.642980314880000847e+00,3.223164239899999756e-03,-3.853848902509999889e-03,2.738901879639999912e-03,1.000000000000000000e+00
1.503460499999999950e-02,2.834939348289999828e+00,3.683480715459999999e+00,-8.629454478350000457e+00,-1.428419142029999957e-03,9.749474935229998640e-03,-1.056252233679999888e-02,1.000000000000000000e+00
1.997371599999999900e-02,2.795173155090000083e+00,3.713020698190000246e+00,-8.644520530060001207e+00,-2.059138379990000257e-03,-2.620444167409999910e-03,5.783064290879999861e-03,1.000000000000000000e+00
2.493735799999999975e-02,2.857548654979999547e+00,3.734640409330000299e+00,-8.610756207619999714e+00,2.628055633980000243e-03,7.256880402570000180e-03,2.142738550900000032e-03,1.000000000000000000e+00
3.000480300000000003e-02,2.801215357860000310e+00,3.703794020169999701e+00,-8.616628899049999291e+00,-8.076837286350000908e-03,8.699567057190001063e-03,8.661177009340000066e-03,1.000000000000000000e+00
3.495167500000000149e-02,2.838481550940000542e+00,3.710803898930000067e+00,-8.633243349239998921e+00,2.971302019430000245e-04,-1.200607512150000077e-02,-6.227132864299999432e-03,1.000000000000000000e+00
3.996943499999999760e-02,2.833961735429999962e+00,3.734738901269999634e+00,-8.598862356210000613e+00,-5.702454596760000820e-03,4.134221002459999642e-03,2.785899676380000287e-03,1.000000000000000000e+00
4.506792800000000015e-02,2.854768668870000248e+00,3.680600191580000402e+00,-8.671143748569999588e+00,1.781439059409999710e-04,1.514166872949999909e-02,-5.760141648350000513e-04,1.000000000000000000e+00
5.001782099999999703e-02,2.828831094539999924e+00,3.720500532560000018e+00,-8.601842833330000104e+00,-7.510175928469999679e-03,-3.177483798940000138e-03,2.390688285229999963e-03,1.000000000000000000e+00
5.508180099999999968e-02,2.873905038759999808e+00,3.709588093399999842e+00,-8.618948866429999356e+00,1.110825035720000055e-02,-3.066294360910000027e-03,-9.197207167739999620e-03,1.000000000000000000e+00
5.999547400000000003e-02,2.778672978919999981e+00,3.714494277880000528e+00,-8.620079916289999034e+00,-8.912988938389999546e-03,7.674603722989998926e-03,5.237164907159999779e-03,1.000000000000000000e+00
6.498305499999999790e-02,2.791334015319999917e+00,3.688187577969999964e+00,-8.638789877449999821e+00,-4.469533450899999989e-03,8.339058607820000815e-03,9.923887439070000135e-03,1.000000000000000000e+00
6.989444400000000002e-02,2.865359620990000522e+00,3.686971480179999983e+00,-8.624495394640000256e+00,-8.505298756060000742e-03,4.746865015479999513e-03,-1.771451090460000009e-03,1.000000000000000000e+00
7.492136300000000471e-02,2.860088987109999703e+00,3.699004740059999907e+00,-8.603464297050001264e+00,-1.125109614799999977e-03,5.936791189009999782e-03,-4.550184123219999828e-03,1.000000000000000000e+00
7.987278400000000222e-02,2.847418013850000040e+00,3.716908353280000021e+00,-8.594199040580001281e+00,2.163376426319999976e-03,1.085515134040000024e-03,1.731900032609999746e-03,1.000000000000000000e+00
8.488949499999999537e-02,2.839725413520000075e+00,3.684189740509999922e+00,-8.663205356789999811e+00,1.481857523320000147e-02,3.187392838300000426e-03,1.279118470849999883e-02,1.000000000000000000e+00
8.992584800000000267e-02,2.838986285590000325e+00,3.726434306519999407e+00,-8.609785316769999142e+00,1.765021355819999848e-03,2.034485712649999889e-02,2.690093126149999906e-03,1.000000000000000000e+00
9.494110399999999839e-02,2.823051342089999860e+00,3.739636025659999863e+00,-8.591149005360000146e+00,-7.824776694180000242e-03,6.454331800339999786e-03,6.946404464539999990e-03,1.000000000000000000e+00
9.997178299999999462e-02,2.842441978999999730e+00,3.710974579319999744e+00,-8.599629248930000358e+00,-1.257799216549999920e-03,1.114320941270000032e-02,7.169849239289999981e-03,1.000000000000000000e+00
1.049305789999999960e-01,2.839846701809999985e+00,3.715547294059999395e+00,-8.620012696269998997e+00,-8.636937476690000753e-03,1.081616710870000019e-02,9.945212863390000269e-03,1.000000000000000000e+00
1.099401899999999932e-01,2.835653049509999857e+00,3.710726742039999859e+00,-8.632713187889999418e+00,2.193929976780000044e-04,-1.682478561999999761e-02,8.091014809909998981e-03,1.000000000000000000e+00
1.149372800000000028e-01,2.820718222970000078e+00,3.722505150380000405e+00,-8.651506151160001323e+00,-2.613932825619999685e-03,6.450125947590000085e-04,7.210324518380000110e-03,1.000000000000000000e+00
1.199426059999999933e-01,2.846211268409999828e+00,3.715722358369999423e+00,-8.608650175260001092e+00,-3.806785447520000254e-03,-6.725317798550001051e-04,-4.224048461770000054e-03,1.000000000000000000e+00
1.248968089999999975e-01,2.795883641440000122e+00,3.725224638469999405e+00,-8.607704418839999150e+00,3.373389830809999865e-03,1.507305074479999875e-02,1.313467137520000182e-02,1.000000000000000000e+00
1.299219179999999974e-01,2.872163455789999986e+00,3.713469026479999879e+00,-8.597651811380000453e+00,-9.011863730850000476e-03,1.128877978770000123e-02,-1.580370590090000166e-02,1.000000000000000000e+00
1.349792939999999997e-01,2.747406903040000348e+00,3.715915250590000163e+00,-8.598269651020000737e+00,-6.443768739699999928e-03,5.814891774209999913e-03,8.514295332130000435e-03,1.000000000000000000e+00
1.398843220000000054e-01,2.817738914900000058e+00,3.739443425699999768e+00,-8.623815011160001376e+00,2.915513701739999661e-03,-1.089567225429999807e-02,2.620500978079999804e-03,1.000000000000000000e+00
1.449667679999999959e-01,2.808375458750000053e+00,3.704993459080000662e+00,-8.624359201039998979e+00,-6.965428590770000698e-03,2.996717579659999992e-03,-5.494441837070000202e-03,1.000000000000000000e+00
1.499028910000000103e-01,2.797435254800000326e+00,3.673818276359999579e+00,-8.644992823749999999e+00,-9.641033830119999457e-04,-1.778496545740000136e-03,2.053902484480000200e-03,1.000000000000000000e+00
1.548971130000000029e-01,2.831246338989999778e+00,3.706130354159999918e+00,-8.622541337959999552e+00,-6.425810046489999899e-03,9.410156868400000596e-03,-7.948840036990000024e-03,1.000000000000000000e+00
1.599207280000000120e-01,2.800458694270000048e+00,3.728553782890000168e+00,-8.636289877330000309e+00,3.624635515729999688e-03,1.287787128240000002e-02,5.842760205270000444e-03,1.000000000000000000e+00
1.649764099999999900e-01,2.854464717489999970e+00,3.709559744090000333e+00,-8.638110078500000455e+00,-4.991170950229999355e-03,2.604736015199999536e-03,-1.538143306970000089e-02,1.000000000000000000e+00
1.699439919999999882e-01,2.767290291909999755e+00,3.685851243980000191e+00,-8.637335002469999523e+00,-3.207717835900000120e-02,1.659365138039999889e-03,-2.725079189989999904e-03,1.000000000000000000e+00
1.749502300000000121e-01,2.856419066429999987e+00,3.723775024180000504e+00,-8.630846809489998606e+00,-1.476856321100000063e-02,6.731727160510000973e-03,-7.738106418399999346e-03,1.000000000000000000e+00
1.800097850000000055e-01,2.812256976359999605e+00,3.698014852240000483e+00,-8.590794785089999053e+00,-7.082624360919999654e-03,8.524708449839999216e-03,1.069656573239999948e-03,1.000000000000000000e+00
1.849824170000000101e-01,2.843655738709999881e+00,3.759789171369999572e+00,-8.588459035619999682e+00,-7.059240713720000247e-03,4.833661019800000562e-03,7.801197469229999640e-03,1.000000000000000000e+00
1.899681679999999928e-01,2.891079753180000100e+00,3.694178635080000106e+00,-8.608409352239998924e+00,-9.706387296320000135e-03,-9.305754676459998542e-03,-7.164439186449999414e-03,1.000000000000000000e+00
1.949431399999999870e-01,2.806181163569999804e+00,3.710867904069999668e+00,-8.614926186789999107e+00,6.997381569819999779e-04,1.369423884899999971e-02,7.864648476239998950e-03,1.000000000000000000e+00
1.999425360000000040e-01,2.890712673429999935e+00,3.725212948030000248e+00,-8.605562730629999990e+00,-7.290054112669999871e-03,2.275084704159999888e-02,-1.885246858000000011e-02,1.000000000000000000e+00
2.049061950000000132e-01,2.819888786409999515e+00,3.716893740239999744e+00,-8.599884100480000626e+00,-2.423548605290000175e-03,1.598373800520000096e-02,-3.421482397240000004e-03,1.000000000000000000e+00
2.099171430000000005e-01,2.822314552250000386e+00,3.713377548810000039e+00,-8.602806709919999406e+00,-4.878947511319999160e-03,1.143146492540000024e-02,-2.418234944340000140e-04,1.000000000000000000e+00
2.149511920000000131e-01,2.799200803170000196e+00,3.735983348369999568e+00,-8.607368318749999858e+00,-2.016286551950000061e-02,4.494073800739999819e-03,8.191145956520000729e-03,1.000000000000000000e+00
2.199466300000000041e-01,2.858423099729999972e+00,3.703834352180000344e+00,-8.604065770069999175e+00,-5.439468659459999883e-03,1.389341335740000051e-02,-4.679432138800000002e-03,1.000000000000000000e+00
2.248916360000000059e-01,2.806505280959999737e+00,3.717019704700000204e+00,-8.601153097499999234e+00,-2.552235033360000446e-03,1.110280863940000216e-03,-1.948300981890000111e-03,1.000000000000000000e+00
2.298825409999999958e-01,2.857536672279999745e+00,3.732177818609999864e+00,-8.621403273839998604e+00,-3.264446509999999971e-03,1.193496957420000192e-02,-6.837607361380000463e-03,1.000000000000000000e+00
2.348769089999999948e-01,2.824932041270000305e+00,3.691584526930000276e+00,-8.641232009910000400e+00,9.922919794920000147e-03,5.040959455069999283e-03,2.094367984680000055e-03,1.000000000000000000e+00
2.398644450000000095e-01,2.884354244319999871e+00,3.713073597430000206e+00,-8.615147136060000932e+00,6.190973334010000002e-03,6.954365409910000587e-03,1.684761140499999987e-03,1.000000000000000000e+00
2.448952590000000040e-01,2.834280592120000275e+00,3.709600660619999601e+00,-8.624424667489998697e+00,7.551728049289999989e-05,6.701597012579999435e-04,1.751431729640000020e-03,1.000000000000000000e+00
2.499269769999999946e-01,2.817917486339999833e+00,3.726381699549999649e+00,-8.616872060160000402e+00,-6.715742638330000208e-04,1.077375467870000068e-02,1.159923151140000025e-03,1.000000000000000000e+00
2.549201110000000048e-01,2.807657665870000319e+00,3.707361941780000336e+00,-8.612199392169999967e+00,8.774221641939999655e-04,-6.673200055960000314e-03,9.919754229490001032e-03,1.000000000000000000e+00
2.599628840000000052e-01,2.874987281040000120e+00,3.717780167679999970e+00,-8.633395909460000794e+00,-1.339161652140000158e-03,-9.529540548099999604e-04,-9.532435797150000650e-04,1.000000000000000000e+00
2.649149780000000232e-01,2.803299178399999647e+00,3.720469845159999789e+00,-8.614335819680000839e+00,1.328221289440000051e-03,5.823485553260000303e-04,4.032732918860000050e-03,1.000000000000000000e+00
2.699290560000000005e-01,2.859261304119999902e+00,3.741680098709999847e+00,-8.616001122540000168e+00,-2.004441060129999799e-02,8.133562281729999136e-03,6.889563985169999856e-03,1.000000000000000000e+00
2.749162339999999816e-01,2.842274513480000042e+00,3.706909229579999909e+00,-8.654645033710000490e+00,-1.251734886320000038e-02,3.642007708549999979e-03,1.013674493879999916e-02,1.000000000000000000e+00
2.799570769999999986e-01,2.843267616169999901e+00,3.711943424350000242e+00,-8.628055717469999664e+00,-8.298039436340000699e-03,2.306744921949999746e-03,6.245803087950000006e-03,1.000000000000000000e+00
2.848754210000000175e-01,2.831818585920000242e+00,3.714328273660000068e+00,-8.626915899789999287e+00,9.206469170749999320e-03,4.956598393619999869e-03,8.824418298899999041e-03,1.000000000000000000e+00
2.899278909999999931e-01,2.886594716719999898e+00,3.693891927089999694e+00,-8.639561446349999230e+00,8.037212304769999344e-03,1.580131240190000078e-03,-1.461006235329999998e-03,1.000000000000000000e+00
2.949176989999999776e-01,2.882707646160000081e+00,3.723996265719999865e+00,-8.596848093780000255e+00,2.507364843039999996e-04,1.703579351310000045e-02,-9.454743936659999390e-03,1.000000000000000000e+00
2.998600699999999786e-01,2.821504112650000007e+00,3.753787592869999301e+00,-8.602203483330001177e+00,-7.721222005779999550e-03,1.074805296960000024e-02,-6.484449841080000337e-04,1.000000000000000000e+00
3.049653509999999956e-01,2.823506976909999633e+00,3.726241706559999756e+00,-8.624622235889999544e+00,-1.528565771879999979e-02,1.402033213529999857e-02,6.268307566639999551e-03,1.000000000000000000e+00
3.100405569999999944e-01,2.909809880350000100e+00,3.721552087440000101e+00,-8.607356628310000701e+00,-6.133718416089999938e-03,2.602620050310000023e-03,-1.923994533720000191e-02,1.000000000000000000e+00
3.149665119999999763e-01,2.835655972120000090e+00,3.733236680010000086e+00,-8.638007202639998994e+00,6.821998395030000155e-03,2.422374486920000208e-02,-1.481402292850000045e-02,1.000000000000000000e+00
3.200158069999999855e-01,2.848015395220000023e+00,3.727710902330000575e+00,-8.586845170680000194e+00,3.563767531890000163e-03,1.240627374499999984e-02,-1.361578516659999946e-02,1.000000000000000000e+00
3.250482250000000239e-01,2.801504403940000110e+00,3.709444885530000402e+00,-8.643439749089999680e+00,-1.692444086069999978e-02,-1.258731167760000075e-02,1.915237866339999928e-03,1.000000000000000000e+00
3.299155400000000071e-01,2.819264224769999938e+00,3.735824066150000178e+00,-8.629751999999999867e+00,-4.267950542270000126e-03,7.909208070489998641e-04,-4.794730339199999337e-03,1.000000000000000000e+00
3.348967039999999895e-01,2.789536902770000104e+00,3.750409933130000262e+00,-8.594041804189998857e+00,1.234455313529999980e-02,8.441386744379998988e-03,3.213756717739999717e-03,1.000000000000000000e+00
3.399787109999999890e-01,2.865395861349999684e+00,3.727580261680000451e+00,-8.607896726539999932e+00,-3.264984115960000138e-03,-4.299296066160000415e-03,-1.180236414070000121e-02,1.000000000000000000e+00
3.449370689999999851e-01,2.844874759110000095e+00,3.715945937990000392e+00,-8.567947577989999175e+00,-9.758060798049998305e-03,3.978680353609999852e-03,-4.194671288129999537e-03,1.000000000000000000e+00
3.498972510000000202e-01,2.852006510680000329e+00,3.692769352799999627e+00,-8.627903157260000455e+00,1.426976872609999822e-03,-3.161442931739999809e-03,8.042914792899999096e-03,1.000000000000000000e+00
3.549682339999999936e-01,2.838259432620000133e+00,3.703756026240000221e+00,-8.613573603130001644e+00,-4.629489034409999676e-03,-1.393705792729999816e-02,4.829296842219999754e-03,1.000000000000000000e+00
3.599373029999999862e-01,2.857121661740000373e+00,3.720433020280000669e+00,-8.605700093280001184e+00,-8.660424500700000458e-03,-1.729001291099999766e-03,-1.753999269569999795e-03,1.000000000000000000e+00
3.648818070000000024e-01,2.827112600179999991e+00,3.702496966090000452e+00,-8.624125392279999858e+00,1.783525012429999779e-02,-9.690044447780000667e-03,-2.361687831580000074e-03,1.000000000000000000e+00
3.700171420000000211e-01,2.865246808270000223e+00,3.711999830709999948e+00,-8.622057353839998939e+00,-7.307686842979999910e-03,-7.071949075909999757e-03,-1.805917173619999913e-02,1.000000000000000000e+00
3.750276289999999735e-01,2.807661757520000467e+00,3.720274614850000106e+00,-8.618047533680000427e+00,-1.095661427829999930e-02,-1.356329582629999843e-02,7.878792472180000742e-03,1.000000000000000000e+00
3.799619810000000042e-01,2.824180930649999866e+00,3.709717565000000050e+00,-8.616848679280000312e+00,1.537988241760000069e-02,2.651668619360000065e-04,5.786397494380000027e-03,1.000000000000000000e+00
3.851141459999999905e-01,2.828986577359999810e+00,3.732337393080000343e+00,-8.616848094759999910e+00,-3.900859272109999908e-03,-1.112572290000000096e-02,-1.620101742450000010e-03,1.000000000000000000e+00
3.899644580000000138e-01,2.881299532919999962e+00,3.696063133650000054e+00,-8.664558524960000341e+00,1.253731315960000033e-03,9.431468322869999976e-03,-1.044249162079999987e-02,1.000000000000000000e+00
3.949102990000000202e-01,2.804329982749999672e+00,3.702446697209999638e+00,-8.620051859239998393e+00,3.922955133020000068e-03,-1.356390118599999986e-02,1.277407072479999801e-02,1.000000000000000000e+00
3.999185279999999953e-01,2.894123066399999722e+00,3.740442373610000093e+00,-8.618586462859999742e+00,-5.146309733390000592e-03,2.863570116459999699e-04,1.502868719400000160e-03,1.000000000000000000e+00
4.049260179999999987e-01,2.786560517300000317e+00,3.731283500119999541e+00,-8.609123637989998912e+00,1.239834073929999871e-02,-5.473073571920000248e-03,5.968733690679999676e-03,1.000000000000000000e+00
4.099486600000000203e-01,2.829019310590000114e+00,3.724101771919999582e+00,-8.609417652499999463e+00,1.061337254939999884e-02,-7.517737336460000516e-03,-5.172741599380000291e-03,1.000000000000000000e+00
4.149514990000000014e-01,2.819654977649999950e+00,3.727603350299999896e+00,-8.607722539019999175e+00,-4.592083394530000091e-03,-4.127481020989999354e-03,8.243066258730000380e-05,1.000000000000000000e+00
4.199017540000000159e-01,2.855590798909999783e+00,3.716455641080000483e+00,-8.650016789389999516e+00,6.524725817140000945e-03,-1.549522741700000254e-03,-2.155319321900000303e-03,1.000000000000000000e+00
4.249903839999999988e-01,2.850923976140000260e+00,3.702396136069999955e+00,-8.624892869530000894e+00,6.415174342689999691e-03,1.469339709730000006e-02,-1.481839106419999968e-03,1.000000000000000000e+00
4.300979750000000212e-01,2.810099213800000051e+00,3.737027888989999713e+00,-8.624076292450000736e+00,1.703293249010000288e-02,-1.513911038639999956e-02,1.379152759909999968e-03,1.000000000000000000e+00
4.350269270000000077e-01,2.835074372840000301e+00,3.714287064869999710e+00,-8.631687351970001032e+00,5.301727913319999493e-03,-1.405567047190000099e-03,2.289431169629999908e-03,1.000000000000000000e+00
4.400850479999999787e-01,2.802905210640000089e+00,3.709647714630000426e+00,-8.631866800190000077e+00,8.306514937430000030e-04,-6.412477698180000553e-03,2.481979783620000095e-03,1.000000000000000000e+00
4.449914380000000169e-01,2.846636508079999572e+00,3.703548813230000292e+00,-8.634095582160000504e+00,-2.395437099039999986e-03,-1.548802200700000013e-02,-7.635143119839999087e-04,1.000000000000000000e+00
4.500647229999999999e-01,2.802617625869999962e+00,3.682289167580000022e+00,-8.618320505399999831e+00,6.860254332420000906e-03,-5.798243451859999738e-03,1.645247265700000225e-02,1.000000000000000000e+00
4.550593720000000175e-01,2.901565783619999728e+00,3.726245213690000391e+00,-8.607882113489999654e+00,4.368406953290000241e-04,9.232492186129998696e-03,3.725864924489999484e-03,1.000000000000000000e+00
4.600417019999999968e-01,2.868953846090000148e+00,3.723857441769999888e+00,-8.621304489650000846e+00,-1.965439645570000050e-03,-4.311281256379999836e-03,-7.663738448170000044e-03,1.000000000000000000e+00
4.650329080000000226e-01,2.848472783600000113e+00,3.694359544609999713e+00,-8.582516201569999836e+00,9.713872335850000719e-03,7.523891516030000413e-03,5.233312025670000360e-03,1.000000000000000000e+00
4.700154550000000264e-01,2.859263934459999934e+00,3.707324240119999725e+00,-8.600229552909999242e+00,1.689758151770000272e-02,-2.097914740440000314e-02,7.829000242050000724e-03,1.000000000000000000e+00
4.750728109999999837e-01,2.941438359800000235e+00,3.721370885649999849e+00,-8.610963128370000774e+00,-7.915646769109999786e-03,-1.503905560819999987e-02,-1.245974097400000084e-02,1.000000000000000000e+00
4.800759900000000080e-01,2.861266506459999803e+00,3.729915134369999663e+00,-8.592645965920000961e+00,1.326617971060000192e-02,-1.390190795060000130e-02,-3.184461966159999637e-04,1.000000000000000000e+00
4.850577130000000015e-01,2.853480674890000124e+00,3.737065590649999880e+00,-8.604844353229999854e+00,2.370023634280000232e-03,-9.175347164270000744e-03,-1.246651634569999941e-03,1.000000000000000000e+00
4.900078299999999776e-01,2.794315369210000011e+00,3.743128543949999720e+00,-8.602895557250000991e+00,1.318525709210000008e-02,-2.173871546979999972e-02,1.401433534919999981e-02,1.000000000000000000e+00
4.950759869999999951e-01,2.834585128020000067e+00,3.710907943819999666e+00,-8.620192729010000221e+00,-2.296271733940000257e-03,-2.496976871039999820e-03,2.351573202760000227e-03,1.000000000000000000e+00
4.999369730000000067e-01,2.827973893190000254e+00,3.738808050400000305e+00,-8.562763453349999665e+00,8.951012976469999854e-03,2.391515299679999873e-03,-1.233958825470000097e-02,1.000000000000000000e+00
5.050660780000000294e-01,2.793624464340000113e+00,3.727799165129999981e+00,-8.593973415129999793e+00,1.301395799959999960e-02,-3.520069643860000274e-03,-4.772513173520000380e-03,1.000000000000000000e+00
5.100607440000000103e-01,2.789592140080000338e+00,3.744510353699999960e+00,-8.583610426549999062e+00,8.618132211270000329e-03,-9.529771050439998998e-04,9.274039417510000077e-03,1.000000000000000000e+00
5.149809770000000064e-01,2.832646268909999598e+00,3.743129712990000080e+00,-8.601772106180000321e+00,1.212682481859999988e-02,1.035185623910000151e-02,6.213386543100000298e-03,1.000000000000000000e+00
5.199840999999999491e-01,2.808213838450000388e+00,3.734709090650000007e+00,-8.610232476010001079e+00,2.124598249790000254e-02,1.373337861150000089e-02,1.858218386770000077e-02,1.000000000000000000e+00
5.250345929999999939e-01,2.861913572190000199e+00,3.716816875609999737e+00,-8.617183025800001062e+00,1.603718101979999949e-02,5.566595587880000459e-03,2.190237864850000035e-03,1.000000000000000000e+00
5.299537819999999844e-01,2.854185316029999697e+00,3.694372404090000561e+00,-8.592448982040000516e+00,2.085643447940000242e-02,1.142721902579999990e-02,-1.869266503489999979e-03,1.000000000000000000e+00
5.349470830000000454e-01,2.865140425279999903e+00,3.679483754770000115e+00,-8.657205239590000545e+00,1.126471627499999947e-02,1.113561261450000082e-02,-3.798553720120000175e-03,1.000000000000000000e+00
5.399714319999999734e-01,2.892964544009999805e+00,3.668632105889999995e+00,-8.663819104770000834e+00,1.249640807509999965e-02,-4.302332643420000297e-03,-7.203419692810001176e-03,1.000000000000000000e+00
5.449429489999999543e-01,2.824305433809999766e+00,3.684753804130000532e+00,-8.605426537030000489e+00,1.350936014209999994e-02,-1.875706948340000104e-04,2.652095165099999791e-03,1.000000000000000000e+00
5.499151650000000391e-01,2.819182099449999868e+00,3.665314067380000207e+00,-8.641832898410001462e+00,1.599079929289999938e-02,1.789283752440000083e-02,2.833758108319999955e-02,1.000000000000000000e+00
5.549985870000000432e-01,2.870854711280000249e+00,3.706128016070000086e+00,-8.611416132839998738e+00,1.615716516970000169e-02,1.082967966789999924e-02,1.218963600700000149e-02,1.000000000000000000e+00
5.599453370000000429e-01,2.804211032550000038e+00,3.701365916240000331e+00,-8.620328922609999722e+00,6.796137429770000675e-03,-4.035187885169999773e-03,1.959736831490000233e-02,1.000000000000000000e+00
5.649826460000000328e-01,2.824101143409999626e+00,3.704868663660000117e+00,-8.635338860219999191e+00,5.484309513119999110e-04,1.571710035199999980e-02,7.720652967689999903e-03,1.000000000000000000e+00
5.699881340000000352e-01,2.796100206800000265e+00,3.688304482349999969e+00,-8.626756909830000097e+00,-2.416635863480000052e-03,1.802850887179999889e-02,8.166436105969999276e-03,1.000000000000000000e+00
5.749914689999999773e-01,2.873210626750000163e+00,3.695012455560000131e+00,-8.649008489130000754e+00,1.948221586640000100e-02,7.671231403949999895e-03,2.872079610820000087e-03,1.000000000000000000e+00
5.799950529999999826e-01,2.847490786819999897e+00,3.734813720069999565e+00,-8.592724291849998863e+00,7.251352071759999823e-03,1.370507013049999945e-02,1.947906333950000148e-03,1.000000000000000000e+00
5.850006439999999586e-01,2.870861141019999785e+00,3.704765495550000232e+00,-8.616066588989999886e+00,7.161024957899999981e-03,4.827134311199999216e-03,4.687932319939999530e-03,1.000000000000000000e+00
5.899995489999999565e-01,2.850887443520000009e+00,3.721186761249999808e+00,-8.644682442619998852e+00,1.130013912920000037e-02,-3.779951250179999691e-03,1.526692695920000079e-02,1.000000000000000000e+00
5.949831850000000255e-01,2.919969747580000163e+00,3.713077981340000111e+00,-8.615112064750000798e+00,-7.822513580320000076e-03,-5.116130923849999956e-04,-3.912329673769999842e-03,1.000000000000000000e+00
5.999712600000000062e-01,2.925612429639999679e+00,3.697392336430000093e+00,-8.625617676670000122e+00,-4.645925946529999746e-03,-1.179581042380000062e-02,-7.200476247819999689e-03,1.000000000000000000e+00
6.049890279999999843e-01,2.917348751430000053e+00,3.650836044700000116e+00,-8.643294203139998189e+00,2.578581916170000037e-03,-1.469217892740000073e-02,-4.243327770380000107e-03,1.000000000000000000e+00
6.100055340000000159e-01,2.963876986109999834e+00,3.706904553399999802e+00,-8.614565536779998922e+00,-2.573240082709999949e-03,-2.226548269389999959e-02,-1.291424036029999861e-02,1.000000000000000000e+00
6.149898649999999689e-01,2.908158606019999759e+00,3.690200379100000205e+00,-8.644933787039999373e+00,1.627593766899999980e-03,-1.963239535689999954e-02,-2.324861846859999776e-02,1.000000000000000000e+00
6.199878460000000091e-01,2.868625052530000108e+00,3.710843646419999420e+00,-8.593937759289998368e+00,1.506376545879999952e-02,-2.564349025490000530e-02,-1.074635237459999927e-02,1.000000000000000000e+00
6.249693899999999580e-01,2.921024809589999993e+00,3.709339379330000241e+00,-8.621955647030000947e+00,1.543473219500000057e-03,-3.029648214580000012e-02,-1.463870704170000016e-02,1.000000000000000000e+00
6.299859920000000502e-01,2.853015103199999736e+00,3.704651806040000217e+00,-8.633644331260001081e+00,-1.125711249190000174e-03,-3.322828933599999979e-02,-8.311852812770000390e-03,1.000000000000000000e+00
6.349590000000000511e-01,2.863898024009999599e+00,3.705032622049999613e+00,-8.599548000389999558e+00,4.552752710880000019e-03,-2.193445712329999964e-02,-1.968545466659999896e-02,1.000000000000000000e+00
6.400032780000000088e-01,2.839097929269999820e+00,3.733166537380000261e+00,-8.639653216280001047e+00,2.300483733419999774e-02,-2.331660687919999767e-02,-9.092109277840000267e-03,1.000000000000000000e+00
6.449818139999999866e-01,2.828857690290000448e+00,3.739428520390000177e+00,-8.611670984380001670e+00,1.211756002160000074e-02,-2.989841625090000274e-02,-3.554935799910000169e-03,1.000000000000000000e+00
6.499445600000000045e-01,2.846853657960000117e+00,3.765834004489999831e+00,-8.594439863599999896e+00,1.542764622720000159e-02,-2.316737920049999691e-02,-1.976262964310000064e-02,1.000000000000000000e+00
6.550201460000000253e-01,2.796674791819999673e+00,3.758815065639999897e+00,-8.577895556030000535e+00,1.904270425440000164e-02,-2.710427343849999837e-02,-6.761511787770000705e-03,1.000000000000000000e+00
6.599916869999999935e-01,2.833180521920000139e+00,3.729059394330000110e+00,-8.573384216090000010e+00,1.719608344140000078e-02,-1.106361765409999941e-02,-4.072148818520000303e-03,1.000000000000000000e+00
6.649893439999999822e-01,2.833999729349999885e+00,3.731457687639999854e+00,-8.576597332909999594e+00,1.945059932770000152e-02,-2.186554297799999866e-02,-8.495317772029999451e-03,1.000000000000000000e+00
6.699443170000000114e-01,2.786391298220000312e+00,3.710995329850000246e+00,-8.606158358440000100e+00,2.737284451720000192e-02,-1.621766202150000044e-02,9.314517490569999142e-03,1.000000000000000000e+00
6.749943130000000124e-01,2.881598808129999689e+00,3.718053139399999818e+00,-8.611262988100000015e+00,3.755946084859999867e-02,-2.720139175649999991e-02,-1.648730784650000170e-02,1.000000000000000000e+00
6.799961719999999543e-01,2.821290469900000097e+00,3.703511988349999839e+00,-8.638832547550000740e+00,2.545003779229999819e-02,-9.287040680649999783e-03,-7.428578101100000684e-03,1.000000000000000000e+00
6.850180519999999884e-01,2.862493710170000316e+00,3.704547468879999972e+00,-8.660067058760001046e+00,1.593462750320000232e-02,-8.500981144609998791e-03,-2.366719394919999941e-02,1.000000000000000000e+00
6.900172940000000033e-01,2.853296842749999840e+00,3.639124271860000093e+00,-8.648509891960001639e+00,2.824369631709999773e-02,-2.522048307579999923e-03,-2.048805542290000128e-02,1.000000000000000000e+00
6.949796059999999720e-01,2.784906904879999701e+00,3.758067462139999648e+00,-8.668270238959999929e+00,1.504942309110000008e-02,-4.054217133670000132e-03,-6.502010859550000528e-03,1.000000000000000000e+00
6.999611850000000413e-01,2.773312620930000083e+00,3.667772274190000292e+00,-8.680249430569999092e+00,1.685441657900000126e-02,-2.805816009640000122e-02,-1.603458635509999800e-02,1.000000000000000000e+00
7.049784970000000373e-01,2.850091909229999665e+00,3.698258597869999331e+00,-8.697173677360000354e+00,3.138112602760000092e-03,-6.121304817500000141e-03,-2.300371415909999856e-02,1.000000000000000000e+00
7.099823979999999590e-01,2.808159770170000069e+00,3.740224639200000034e+00,-8.671502060489999053e+00,2.675308100879999693e-02,-3.417066484690000489e-02,-2.468193136159999718e-02,1.000000000000000000e+00
7.149569510000000072e-01,2.818408484719999940e+00,3.673439798430000458e+00,-8.685757380329999222e+00,1.606068015099999802e-02,-1.366447471079999809e-02,-2.422568202020000325e-02,1.000000000000000000e+00
7.199478649999999647e-01,2.860793920509999921e+00,3.687603932860000100e+00,-8.680001593289999207e+00,2.160793170330000193e-02,-1.880266517400000156e-02,-2.268426306549999744e-02,1.000000000000000000e+00
7.250176280000000251e-01,2.830828405839999728e+00,3.675880469580000032e+00,-8.683076762949999861e+00,1.458068471399999975e-02,-3.878683969380000013e-02,-3.402041643859999437e-02,1.000000000000000000e+00
7.300211570000000316e-01,2.798212084390000243e+00,3.693809509509999867e+00,-8.671390416810000445e+00,1.685495674610000202e-02,-4.179379343990000106e-02,-2.673388272520000122e-02,1.000000000000000000e+00
7.350164350000000235e-01,2.849693557559999757e+00,3.682029932119999405e+00,-8.649263925189998758e+00,1.636519096789999794e-02,-2.725994214420000145e-02,-3.478182852269999514e-02,1.000000000000000000e+00
7.399963609999999914e-01,2.840817592670000113e+00,3.665184595789999999e+00,-8.675133694989998645e+00,1.420194562520000169e-02,-3.977560997010000376e-02,-4.274369031190000667e-02,1.000000000000000000e+00
7.450345680000000081e-01,2.780515099659999656e+00,3.703530693050000266e+00,-8.665435892319999667e+00,-9.922595694659998994e-03,-3.233341872690000118e-02,-4.829858988519999952e-02,1.000000000000000000e+00
7.500135350000000090e-01,2.745217576309999963e+00,3.676216569669999323e+00,-8.657120483910000885e+00,3.474739147349999949e-03,-3.128841146829999809e-02,-3.180772066120000213e-02,1.000000000000000000e+00
7.550434839999999870e-01,2.790332437059999560e+00,3.688274671730000343e+00,-8.638127029630000564e+00,-5.793735035700000409e-04,-4.254785552619999578e-02,-3.818635642530000124e-02,1.000000000000000000e+00
7.600485719999999779e-01,2.760818465540000322e+00,3.691826518999999696e+00,-8.649419408019999977e+00,-1.421212218700000120e-02,-3.989028558140000208e-02,-4.109229147430000506e-02,1.000000000000000000e+00
7.650087509999999869e-01,2.751980494570000157e+00,3.684742405950000244e+00,-8.643400586120000284e+00,-1.030002348120000015e-02,-4.227822273969999295e-02,-3.954216092819999584e-02,1.000000000000000000e+00
7.699840030000000279e-01,2.731274975670000327e+00,3.675245094290000125e+00,-8.644311271219999426e+00,5.173345562070000308e-05,-4.207609221339999456e-02,-3.117951564490000285e-02,1.000000000000000000e+00
7.749808299999999539e-01,2.792669355569999734e+00,3.700607791339999952e+00,-8.588069159519999829e+00,-2.688036300239999513e-03,-3.629504144190000281e-02,-3.947513550519999442e-02,1.000000000000000000e+00
7.800272499999999498e-01,2.782664678909999800e+00,3.701591833949999799e+00,-8.615268716610000155e+00,-3.896107664329999647e-03,-9.683703072370000720e-03,-4.697318375109999639e-02,1.000000000000000000e+00
7.850317810000000396e-01,2.780193028100000241e+00,3.727850895319999580e+00,-8.594696468700000480e+00,-2.723286394030000144e-03,-3.725856542590000320e-02,-4.076103866100000417e-02,1.000000000000000000e+00
7.900261259999999952e-01,2.755824018259999786e+00,3.694321550680000232e+00,-8.626262988839998869e+00,-5.693744868039999837e-03,-3.274642676120000095e-02,-2.915990911420000137e-02,1.000000000000000000e+00
7.950272550000000438e-01,2.755690747270000074e+00,3.690398532019999678e+00,-8.671282864780000210e+00,-1.050873426719999958e-03,-3.261512145400000118e-02,-2.246947027740000408e-02,1.000000000000000000e+00
7.999508260000000037e-01,2.792242070070000359e+00,3.700045189030000348e+00,-8.653638487020000269e+00,7.658012211320000193e-03,-3.424832224849999607e-02,-3.125932812690000034e-02,1.000000000000000000e+00
8.050308550000000452e-01,2.754361252229999835e+00,3.690618604509999567e+00,-8.660693666230001142e+00,1.258942950520000256e-02,-3.217644616959999815e-02,-4.217189550400000236e-02,1.000000000000000000e+00
8.100283900000000425e-01,2.719851664379999701e+00,3.706187637300000226e+00,-8.648849499169999788e+00,-1.036277227099999948e-02,-4.876368120309999832e-02,-3.594620525840000469e-02,1.000000000000000000e+00
8.150311000000000083e-01,2.703373115529999815e+00,3.748170922029999907e+00,-8.610790109889999044e+00,1.558544207360000079e-02,-3.367500007149999697e-02,-2.459365129470000161e-02,1.000000000000000000e+00
8.199833359999999516e-01,2.734201092250000187e+00,3.695990652940000398e+00,-8.589196702240000647e+00,9.165762457999999024e-05,-3.470779955389999977e-02,-2.447477169330000007e-02,1.000000000000000000e+00
8.249707790000000429e-01,2.762506857020000428e+00,3.690936292159999521e+00,-8.612591606360000540e+00,7.244247943159999419e-03,-1.256716158240000006e-02,-2.544626407329999770e-02,1.000000000000000000e+00
8.300561060000000158e-01,2.724342253800000169e+00,3.648229077069999438e+00,-8.604757259470000363e+00,8.436765521760000372e-03,-2.666999772189999895e-02,-1.340028550480000004e-02,1.000000000000000000e+00
8.350300309999999504e-01,2.784616105240000028e+00,3.693597912580000031e+00,-8.589283211479999736e+00,7.236707024279999227e-03,-1.229930575939999944e-02,-3.717728704209999346e-02,1.000000000000000000e+00
8.400485850000000143e-01,2.717783918199999871e+00,3.690899759540000158e+00,-8.617327402709999973e+00,4.206749610600000328e-03,-1.877544447779999973e-02,-1.596442051229999756e-02,1.000000000000000000e+00
8.450084719999999550e-01,2.709826821710000111e+00,3.706350426650000252e+00,-8.632010008049999072e+00,1.429168228060000156e-02,-4.627169109879999617e-03,-7.061295676980000255e-03,1.000000000000000000e+00
8.499781830000000538e-01,2.746434258619999902e+00,3.726522569319999700e+00,-8.645887142239999434e+00,9.442071430389999478e-03,-7.776521146299999673e-03,-2.704410813750000170e-02,1.000000000000000000e+00
8.550268359999999568e-01,2.703093714069999987e+00,3.681066640050000061e+00,-8.666480432929999367e+00,1.157110929489999981e-02,-1.243405509739999894e-02,-1.374414656309999941e-02,1.000000000000000000e+00
8.599768370000000495e-01,2.717629896679999657e+00,3.678640874210000078e+00,-8.667934138869998861e+00,6.944326683880000170e-03,-5.432469304650000205e-03,-2.997742965820000220e-03,1.000000000000000000e+00
8.649617859999999547e-01,2.749532224639999800e+00,3.709920686349999830e+00,-8.629791747480000552e+00,5.971787497399999763e-03,-3.674034494909999768e-03,-1.186544448140000076e-02,1.000000000000000000e+00
8.699849139999999981e-01,2.729573724709999372e+00,3.687113811259999707e+00,-8.647928877200000031e+00,9.913838468489999736e-03,-5.439983680839999627e-03,-3.450440941379999925e-03,1.000000000000000000e+00
8.749884049999999691e-01,2.808502007740000028e+00,3.664152330130000301e+00,-8.675044263139998435e+00,-5.652520805600000191e-03,-9.445706382389999767e-03,-1.720196008679999999e-02,1.000000000000000000e+00
8.799183980000000460e-01,2.680496682329999825e+00,3.653781158240000160e+00,-8.665746857960000327e+00,-4.797773435710000166e-03,-8.259655907750001330e-03,-1.754762139170000165e-03,1.000000000000000000e+00
8.850269309999999612e-01,2.643585294040000200e+00,3.620662732490000035e+00,-8.669676598629999731e+00,8.999652229249999538e-03,2.617152407769999817e-03,1.121764071290000083e-03,1.000000000000000000e+00
8.899736919999999829e-01,2.635366624009999992e+00,3.687238898940000009e+00,-8.681521934719999223e+00,-6.157471798359999719e-04,-2.534242812540000046e-03,-1.651477417910000162e-03,1.000000000000000000e+00
8.950216749999999610e-01,2.615282159619999991e+00,3.705331897260000229e+00,-8.651873230910000601e+00,-1.975226029750000098e-02,9.564367122950001576e-03,6.616485305129999467e-03,1.000000000000000000e+00
8.999545890000000270e-01,2.694702902340000428e+00,3.770767953760000069e+00,-8.633249778979999789e+00,-1.526365056630000008e-02,2.662585303190000488e-02,-4.910658113659999852e-03,1.000000000000000000e+00
9.050073819999999714e-01,2.699045899979999774e+00,3.738124744309999858e+00,-8.668250949739999101e+00,-7.349274121220000441e-03,1.713987439869999949e-02,1.336247101430000118e-02,1.000000000000000000e+00
9.100181609999999921e-01,2.816032987759999440e+00,3.686853699019999375e+00,-8.657709681980000127e+00,-1.537946984170000114e-02,1.570115610960000005e-02,2.691878471520000107e-03,1.000000000000000000e+00
9.150035770000000124e-01,2.820663570170000245e+00,3.672735449559999754e+00,-8.636374048480000454e+00,-2.245052531359999909e-02,2.686127647760000112e-02,-6.154795177279999072e-03,1.000000000000000000e+00
9.200285360000000079e-01,2.814163102240000214e+00,3.705071200490000383e+00,-8.603709211720000027e+00,-4.938445053989999611e-03,1.825835928320000343e-02,-2.833659294989999532e-03,1.000000000000000000e+00
9.249857580000000468e-01,2.787804379879999850e+00,3.698851010809999895e+00,-8.644749662639998888e+00,-1.374070625749999885e-02,2.448472008109999973e-02,2.227051183579999583e-03,1.000000000000000000e+00
9.300254390000000093e-01,2.775211148029999908e+00,3.696903383869999615e+00,-8.601336637370000204e+00,-1.380109507590000090e-02,1.759722083809999588e-02,5.822311155500000182e-03,1.000000000000000000e+00
9.350086539999999946e-01,2.754590384810000181e+00,3.688583007030000083e+00,-8.619067524369999234e+00,-1.789674907920000071e-02,2.052143216129999684e-02,-2.734480658549999759e-03,1.000000000000000000e+00
9.399764409999999959e-01,2.734092663440000237e+00,3.737577047300000288e+00,-8.592040985760000638e+00,-2.676554024220000050e-02,1.415685657409999909e-02,2.099536359309999984e-04,1.000000000000000000e+00
9.449809319999999957e-01,2.767553326759999877e+00,3.727780752689999755e+00,-8.614171569030000697e+00,-3.126547485590000508e-02,2.143635600809999653e-02,-1.206941902640000074e-03,1.000000000000000000e+00
9.499948799999999860e-01,2.754661404219999721e+00,3.734752637530000197e+00,-8.632188287230000867e+00,-7.114758715030000159e-03,1.670226082210000268e-02,5.203583277760000236e-03,1.000000000000000000e+00
9.550130169999999641e-01,2.797020828780000024e+00,3.700058633030000266e+00,-8.640162919369998917e+00,-4.352443385870000125e-03,9.936955757440000397e-03,8.631045930090000193e-03,1.000000000000000000e+00
9.599648729999999963e-01,2.803940691169999777e+00,3.677586688979999963e+00,-8.629009072669999725e+00,-8.645141497250000140e-03,8.259197697039999744e-03,4.090128000829999430e-03,1.000000000000000000e+00
9.649673970000000045e-01,2.811677130640000133e+00,3.724106448090000132e+00,-8.607155552780000107e+00,9.531757794320000476e-03,8.551605977119999813e-03,3.949892707170000496e-03,1.000000000000000000e+00
9.699688600000000438e-01,2.814600616870000405e+00,3.745375153829999970e+00,-8.618404092030001351e+00,-1.062376541090000138e-03,1.926804333929999988e-02,8.580007590350000393e-03,1.000000000000000000e+00
9.749596320000000205e-01,2.868210626509999805e+00,3.734313661590000333e+00,-8.647786838380000063e+00,-1.068100612610000007e-02,7.968896999959999838e-03,3.825798630710000006e-04,1.000000000000000000e+00
9.799599740000000114e-01,2.847113185680000047e+00,3.671335227369999732e+00,-8.642426772649999478e+00,9.910966269670000092e-03,2.694126963619999926e-02,6.066798232500000138e-04,1.000000000000000000e+00
9.849422960000000504e-01,2.858923742720000050e+00,3.661826225269999568e+00,-8.641196354069998975e+00,-2.035474637520000123e-03,-2.574577694760000167e-03,-4.663100000469999791e-03,1.000000000000000000e+00
9.899786240000000292e-01,2.822856988569999892e+00,3.659482292490000344e+00,-8.643144565529999213e+00,-5.028039217000000206e-03,-1.455431059000000110e-02,1.114509534089999946e-03,1.000000000000000000e+00
9.949676240000000504e-01,2.807517088349999579e+00,3.680006609599999923e+00,-8.628713304599999745e+00,-4.429119639100000810e-03,-3.634957130999999769e-03,-1.072007417679999956e-02,1.000000000000000000e+00
9.999663800000000435e-01,2.742916313629999880e+00,3.681431381709999950e+00,-8.616905377900000218e+00,2.493785228579999645e-03,3.863968420770000183e-03,-8.500223048029999576e-03,1.000000000000000000e+00
1.004972344000000017e+00,2.715062968799999865e+00,3.657074062309999984e+00,-8.690154153989999131e+00,-4.876247839999999899e-05,-2.687466517090000145e-02,-1.531086629259999872e-03,1.000000000000000000e+00
1.009973820999999994e+00,2.722973303529999889e+00,3.679812840599999912e+00,-8.675874284219998955e+00,-7.648735190739999355e-04,-1.940801367159999957e-02,-8.295602165160000270e-04,1.000000000000000000e+00
1.014958895999999999e+00,2.772977397630000063e+00,3.722802087499999857e+00,-8.634762521629999910e+00,9.210571879519999661e-04,-2.279828116299999902e-02,1.021426171059999907e-03,1.000000000000000000e+00
1.019966095000000017e+00,2.851298654669999877e+00,3.766629831050000377e+00,-8.625300281279999481e+00,-1.531293801960000034e-02,-6.679651327430000639e-03,5.246272776279999658e-04,1.000000000000000000e+00
1.024994291999999918e+00,2.872524398049999927e+00,3.734518828769999743e+00,-8.620596049119999549e+00,7.459480548280000714e-04,-2.501893043520000276e-02,-5.559531971810000028e-03,1.000000000000000000e+00
1.029996362999999970e+00,2.870756511600000227e+00,3.728358844840000241e+00,-8.646687937230000287e+00,-4.070018418130000142e-03,-3.221825882790000511e-02,-1.265698671339999908e-02,1.000000000000000000e+00
1.035029120999999996e+00,2.853870258729999776e+00,3.722200029950000211e+00,-8.676113938200000320e+00,-8.964603766799998305e-03,-3.374358266590000294e-02,-1.733562722800000011e-02,1.000000000000000000e+00
1.040007128000000058e+00,2.817444608129999750e+00,3.711869190069999824e+00,-8.645338860710001683e+00,-1.391237042839999979e-02,-3.062993288040000150e-02,-1.873520761729999956e-02,1.000000000000000000e+00
1.044963606999999906e+00,2.780204426280000085e+00,3.775213242730000029e+00,-8.626744050350000137e+00,-3.424598136920000129e-03,-5.105769261720000118e-02,-2.133427932859999904e-02,1.000000000000000000e+00
1.049912514000000074e+00,2.775016794499999939e+00,3.806116915040000048e+00,-8.631578046379999591e+00,-1.223154179749999862e-02,-5.551437847319999966e-03,-2.410299330949999819e-02,1.000000000000000000e+00
1.055012609999999906e+00,2.750236281249999859e+00,3.743015146700000351e+00,-8.636075357799999352e+00,8.817288326099999600e-04,-3.849550709130000054e-02,-1.109837926919999933e-02,1.000000000000000000e+00
1.059947723999999925e+00,2.815948232089999781e+00,3.746628661019999917e+00,-8.626838742900000412e+00,1.018638163810000122e-02,-1.657950878140000001e-02,-2.667805552480000120e-02,1.000000000000000000e+00
1.065013063999999954e+00,2.753701327009999922e+00,3.753554953159999652e+00,-8.654118964009999360e+00,8.548089303080000367e-03,-3.888198360799999947e-02,-1.415973436089999933e-02,1.000000000000000000e+00
1.069999820999999907e+00,2.724460034959999888e+00,3.759371822739999924e+00,-8.691922332699999032e+00,1.346585527059999954e-02,-2.335125952959999848e-02,-1.480434462429999765e-02,1.000000000000000000e+00
1.075017740999999916e+00,2.731000542649999918e+00,3.762015030730000209e+00,-8.650925136410000604e+00,7.889957167210000580e-03,-2.405012771490000131e-02,-5.892849527300000022e-03,1.000000000000000000e+00
1.079975058000000043e+00,2.783731723619999876e+00,3.795411981150000003e+00,-8.637076059269999107e+00,2.288446947929999656e-02,-1.317232102160000029e-02,-1.991322636600000029e-02,1.000000000000000000e+00
1.084949761000000068e+00,2.804590094990000004e+00,3.717494628739999918e+00,-8.687941154109999786e+00,2.848000079389999967e-02,-2.986308187249999899e-02,-2.148880250750000165e-02,1.000000000000000000e+00
1.089888018999999986e+00,2.808616574029999757e+00,3.704867202349999999e+00,-8.625319570510001199e+00,3.317329660059999824e-02,-3.379678726199999983e-02,-1.293332315979999966e-02,1.000000000000000000e+00
1.094913779999999948e+00,2.819697647749999980e+00,3.706320616030000625e+00,-8.616637666880000879e+00,2.061006240550000007e-02,-4.754052683709999311e-02,-3.683418780569999718e-02,1.000000000000000000e+00
1.099920392000000025e+00,2.744263052059999541e+00,3.731365917699999812e+00,-8.606268248560001055e+00,2.244225516919999899e-02,-2.917771041390000361e-02,-1.901263371109999933e-02,1.000000000000000000e+00
1.104947029999999941e+00,2.754262760290000500e+00,3.720752753749999808e+00,-8.615525321719999852e+00,7.242602296169999877e-03,-2.130270749329999866e-02,-3.078857250509999671e-02,1.000000000000000000e+00
1.109947542000000009e+00,2.774943144750000368e+00,3.700424251469999426e+00,-8.611750479360001265e+00,2.175649255509999949e-02,-4.264070838690000448e-02,-3.313568234440000121e-02,1.000000000000000000e+00
1.114957605000000074e+00,2.761317062709999881e+00,3.662538465189999926e+00,-8.594549753709999962e+00,2.566654793920000038e-02,-2.815602719779999874e-02,-3.248731046920000365e-02,1.000000000000000000e+00
1.119978289999999932e+00,2.768852134389999886e+00,3.654160512950000328e+00,-8.592658240880000520e+00,1.571032777429999874e-02,-2.355529740449999881e-02,-2.598717063670000216e-02,1.000000000000000000e+00
1.124967360000000083e+00,2.723582667600000118e+00,3.704858434530000189e+00,-8.656590322559999606e+00,1.175536401569999938e-02,-3.540646657350000198e-02,-1.132967881860000130e-02,1.000000000000000000e+00
1.129972361000000092e+00,2.724691213370000309e+00,3.689341424180000217e+00,-8.671385156110000381e+00,7.546449080110000443e-03,-1.980805769559999818e-02,-7.759504485880000697e-03,1.000000000000000000e+00
1.134972163000000034e+00,2.812120782759999660e+00,3.703452367119999700e+00,-8.668258548520000772e+00,1.787495426829999873e-02,-4.502358287569999812e-02,-2.179750241340000158e-02,1.000000000000000000e+00
1.139957869999999929e+00,2.735805897099999662e+00,3.639427054200000011e+00,-8.661808349470000223e+00,3.346414864060000272e-02,-4.670992866159999479e-02,-1.818853989240000121e-02,1.000000000000000000e+00
1.144963858999999973e+00,2.702019655089999972e+00,3.571578091330000149e+00,-8.696276436259999798e+00,2.073859423399999902e-02,-2.637929096820000249e-02,-3.273167461160000208e-02,1.000000000000000000e+00
1.149960101000000012e+00,2.643094003390000335e+00,3.622891514460000018e+00,-8.678637319199999922e+00,1.349414885039999790e-02,-2.722400054340000375e-02,-1.922604069109999647e-02,1.000000000000000000e+00
1.154965908000000097e+00,2.701005509609999855e+00,3.629052082909999921e+00,-8.646965585120000242e+00,9.116781875490000825e-03,-3.815856948490000539e-02,-2.660615555940000487e-02,1.000000000000000000e+00
1.159947687999999921e+00,2.663322552429999934e+00,3.724271283269999788e+00,-8.632642460739999635e+00,-5.243024788800000786e-03,-3.847492858769999829e-02,-6.039050407710000110e-03,1.000000000000000000e+00
1.164941329999999997e+00,2.757903747139999862e+00,3.751643566580000311e+00,-8.619341665139998554e+00,2.242495864629999794e-02,-3.419820591809999422e-02,-1.942466944459999775e-02,1.000000000000000000e+00
1.169980202999999941e+00,2.671896611770000263e+00,3.692148882819999312e+00,-8.639169816679999059e+00,1.759360171849999946e-02,-3.836575895549999837e-02,-1.021725591270000039e-02,1.000000000000000000e+00
1.174962587000000003e+00,2.660336522359999734e+00,3.675705697540000205e+00,-8.622976806769999669e+00,2.652322128419999994e-02,-3.818549588319999910e-02,-4.990741610529999747e-03,1.000000000000000000e+00
1.179982915000000077e+00,2.595012986309999992e+00,3.681438395969999444e+00,-8.668111833530000254e+00,3.642054647209999607e-02,-3.067329525950000108e-02,8.511167950929999712e-03,1.000000000000000000e+00
1.184968103999999967e+00,2.643128490190000068e+00,3.731519939220000026e+00,-8.656357098329999999e+00,5.391276255250000704e-02,-4.312332347040000180e-02,-5.752720870079999597e-03,1.000000000000000000e+00
1.189938377999999908e+00,2.669465877489999972e+00,3.776599728659999933e+00,-8.643082021689998840e+00,5.736484751109999919e-02,-2.276841551069999983e-02,-1.141307875509999935e-04,1.000000000000000000e+00
1.194974557999999965e+00,2.774086820179999968e+00,3.734863988949999936e+00,-8.621313257469999769e+00,5.693604052069999033e-02,-3.419772023340000248e-03,-6.033754441890000833e-03,1.000000000000000000e+00
1.199958373000000078e+00,2.808298301859999846e+00,3.726601772039999982e+00,-8.595141289860000811e+00,7.418694347139999368e-02,-2.672455832359999991e-02,-6.251444574449999819e-03,1.000000000000000000e+00
1.204953858999999960e+00,2.783679993429999833e+00,3.651327043090000224e+00,-8.641790228310000543e+00,7.591696083549999419e-02,-1.634032279250000053e-02,-3.141632536429999917e-03,1.000000000000000000e+00
1.209964951999999982e+00,2.718458748719999818e+00,3.689809918480000395e+00,-8.613216460260000318e+00,6.102554500099999918e-02,-1.849788799879999862e-02,8.568677119910000570e-03,1.000000000000000000e+00
1.215019022999999976e+00,2.750831032269999810e+00,3.680203885740000125e+00,-8.631670400839999147e+00,3.529808670280000504e-02,-2.742518857120000361e-02,-6.090433336790000533e-03,1.000000000000000000e+00
1.219963839999999911e+00,2.699011120929999841e+00,3.685098964309999836e+00,-8.630659762489999665e+00,4.080059379340000153e-02,-1.917930319909999862e-02,-1.258880738170000020e-02,1.000000000000000000e+00
1.224959327000000098e+00,2.623718564059999814e+00,3.675561320630000406e+00,-8.639676012639998959e+00,3.282251209019999838e-02,1.171692181379999954e-02,1.128564774990000082e-02,1.000000000000000000e+00
1.229998190000000102e+00,2.722613238050000106e+00,3.725434481830000255e+00,-8.631737620850000070e+00,2.448971010740000342e-02,1.440296648069999989e-03,6.507660262289999796e-03,1.000000000000000000e+00
1.234987724000000009e+00,2.691459974899999885e+00,3.720664783209999715e+00,-8.639597686700000168e+00,3.741509467359999813e-02,2.483441308140000442e-02,9.641091339290001547e-03,1.000000000000000000e+00
1.239937132999999969e+00,2.733857101119999911e+00,3.720431851230000309e+00,-8.658082606939998982e+00,4.239283502100000406e-02,6.941628642379999922e-03,1.493545249099999727e-03,1.000000000000000000e+00
1.244905203000000071e+00,2.666788182709999955e+00,3.714322428440000490e+00,-8.683790464169998558e+00,6.401149183509999285e-02,1.062406320120000067e-02,1.891945488749999932e-02,1.000000000000000000e+00
1.249933326000000067e+00,2.730866687129999804e+00,3.680183135209999623e+00,-8.634057003709999734e+00,6.881451606749999783e-02,1.103023067120000034e-02,1.444404758510000122e-02,1.000000000000000000e+00
1.254940670999999952e+00,2.714713716970000412e+00,3.641314767639999950e+00,-8.727961614330000728e+00,9.627771377560000177e-02,-3.246435895560000062e-03,1.713628694420000001e-02,1.000000000000000000e+00
1.259891730000000098e+00,2.673363177190000162e+00,3.634538989890000238e+00,-8.700652751649998962e+00,8.913634717460000578e-02,-4.262079950419999860e-03,2.320406027140000521e-02,1.000000000000000000e+00
1.264930343999999929e+00,2.677390825270000274e+00,3.559466797769999413e+00,-8.717899069999999639e+00,1.121225357059999900e-01,-1.632263511420000215e-02,2.535061351949999958e-02,1.000000000000000000e+00
1.269944514999999940e+00,2.731174145649999829e+00,3.639287353459999430e+00,-8.682930047950000230e+00,1.067811250689999908e-01,3.154766280200000175e-03,2.519317716359999876e-02,1.000000000000000000e+00
1.274937226000000035e+00,2.730672333600000279e+00,3.653487728250000011e+00,-8.694723361599999478e+00,1.078312769530000020e-01,-2.420230582359999758e-02,2.110794372860000032e-02,1.000000000000000000e+00
1.279936167000000014e+00,2.818042281759999934e+00,3.632876317380000497e+00,-8.691987799159999639e+00,9.980553388599999742e-02,1.334578637029999910e-02,3.150647878650000150e-02,1.000000000000000000e+00
1.285008117999999921e+00,2.730231604100000098e+00,3.622586394030000712e+00,-8.687643047949999087e+00,9.088570624590000535e-02,-5.871085450049999283e-04,3.290592133999999808e-02,1.000000000000000000e+00
1.289982557999999946e+00,2.709229440340000572e+00,3.620490883059999998e+00,-8.668755976649999084e+00,7.885785400870000406e-02,1.623661071060000100e-02,2.794837392870000090e-02,1.000000000000000000e+00
1.294967618000000042e+00,2.702343187959999948e+00,3.645236909519999458e+00,-8.688520999830000591e+00,8.886016160250000129e-02,-7.943636737760000240e-04,3.521225601430000296e-02,1.000000000000000000e+00
1.300003596000000039e+00,2.706812442329999957e+00,3.643607847009999734e+00,-8.745347633419999767e+00,6.511687487360000304e-02,1.171207241709999909e-02,3.278705477709999844e-02,1.000000000000000000e+00
1.304964856000000006e+00,2.726205417320000102e+00,3.669125150109999733e+00,-8.673441504119999479e+00,6.569575518369999423e-02,2.942958846690000088e-03,3.237280249600000409e-02,1.000000000000000000e+00
1.309957253999999960e+00,2.736166254850000090e+00,3.642321898849999684e+00,-8.737156728180000442e+00,7.930030673739998925e-02,2.736416831609999809e-02,3.878712654110000324e-02,1.000000000000000000e+00
1.314939961999999962e+00,2.798943905799999854e+00,3.607034604630000807e+00,-8.673727919839999245e+00,7.919036597010001288e-02,1.727898418900000038e-02,3.494641184809999662e-02,1.000000000000000000e+00
1.319928224000000094e+00,2.722552447770000050e+00,3.587702127650000072e+00,-8.730494347680000544e+00,7.716346532110000822e-02,1.802370324729999848e-02,4.297705739740000086e-02,1.000000000000000000e+00
1.324890458999999909e+00,2.726579803590000406e+00,3.613745500450000314e+00,-8.738305898220000145e+00,9.409454464910001203e-02,3.509887307880000390e-02,5.711034685369999891e-02,1.000000000000000000e+00
1.329933618000000095e+00,2.778139602699999600e+00,3.577159690849999851e+00,-8.687952260030000318e+00,9.880246967080000275e-02,3.503505885600000092e-02,6.608371436599999593e-02,1.000000000000000000e+00
1.334956505999999932e+00,2.773573317699999929e+00,3.587331833040000362e+00,-8.758940689970000193e+00,1.136839762329999864e-01,2.974524721499999941e-02,6.577556580309999734e-02,1.000000000000000000e+00
1.339933252000000019e+00,2.773492361420000218e+00,3.606490122490000338e+00,-8.734700567200000876e+00,1.233702599999999955e-01,2.595512568950000126e-02,7.729817926880000467e-02,1.000000000000000000e+00
1.344922694000000085e+00,2.783831676859999771e+00,3.609784487860000279e+00,-8.775813498830000725e+00,1.327674090860000156e-01,2.923471480610000117e-02,7.192750275140000205e-02,1.000000000000000000e+00
1.349943198999999927e+00,2.863986871330000294e+00,3.609041852799999894e+00,-8.694400120990000147e+00,1.490466445680000140e-01,1.749023422600000030e-02,6.238454580310000275e-02,1.000000000000000000e+00
1.354953143999999998e+00,2.887137153040000292e+00,3.570148350789999814e+00,-8.759525796380000173e+00,1.581134498120000120e-01,1.135937124490000137e-02,7.906617969269999491e-02,1.000000000000000000e+00
1.359930746000000079e+00,2.828222899509999611e+00,3.545960250469999853e+00,-8.705426541919999650e+00,1.652792543169999961e-01,1.349362079049999837e-03,7.990198582410000527e-02,1.000000000000000000e+00
1.364917055000000046e+00,2.848335420950000252e+00,3.538056053219999608e+00,-8.672075476459999877e+00,1.621243208650000045e-01,-2.181238308550000060e-02,5.151739716529999541e-02,1.000000000000000000e+00
1.369963419000000071e+00,2.749841436719999699e+00,3.546316808819999888e+00,-8.681541808469999566e+00,1.456384956840000022e-01,-2.898181602359999748e-02,7.097577303650000335e-02,1.000000000000000000e+00
1.374944272000000023e+00,2.766159534309999835e+00,3.598279051250000027e+00,-8.616621884789999797e+00,1.168270558119999941e-01,-2.931456267829999837e-02,4.601924866439999900e-02,1.000000000000000000e+00
1.379982655000000058e+00,2.643552268559999696e+00,3.618201895340000362e+00,-8.683657193180000178e+00,1.064755022529999956e-01,-2.741030976179999884e-02,4.338218271730000242e-02,1.000000000000000000e+00
1.384984078000000007e+00,2.631035609070000003e+00,3.572554242880000341e+00,-8.749166314930000965e+00,8.469501882789999547e-02,-6.194708868859999731e-03,3.019097261130000015e-02,1.000000000000000000e+00
1.389962547000000104e+00,2.697364230500000293e+00,3.495578847490000030e+00,-8.683659531269999121e+00,7.668409496550000759e-02,-3.124352544550000263e-02,1.557391136879999853e-02,1.000000000000000000e+00
1.394963911999999917e+00,2.670631121880000070e+00,3.505653374519999588e+00,-8.756503233689999277e+00,5.045619979500000352e-02,-8.980928920209999347e-03,1.457221060989999893e-02,1.000000000000000000e+00
1.399991495999999946e+00,2.728554903060000036e+00,3.553597028959999626e+00,-8.696098157079999780e+00,5.110876634719999784e-02,-3.547595068809999280e-02,6.476246751840000586e-03,1.000000000000000000e+00
1.404966055999999908e+00,2.762190046159999746e+00,3.589531096650000030e+00,-8.656548821510000380e+00,5.052824318409999960e-02,-1.014909055079999886e-02,-5.605489015579999922e-03,1.000000000000000000e+00
1.409975277000000027e+00,2.728958223159999807e+00,3.577218435299999832e+00,-8.701993644859999932e+00,2.867384441199999703e-02,-2.437511458990000018e-02,2.752375323329999974e-03,1.000000000000000000e+00
1.414981116999999955e+00,2.735489963020000026e+00,3.560056872619999702e+00,-8.774843777020000957e+00,3.205820545549999817e-02,-3.534391522409999903e-02,-9.544597938660000572e-03,1.000000000000000000e+00
1.419966381999999916e+00,2.690194485000000135e+00,3.468496194780000597e+00,-8.780704193480000086e+00,5.337318032980000598e-02,-2.153866365550000106e-02,-9.883344173430000032e-03,1.000000000000000000e+00
1.424962666000000100e+00,2.781460271559999420e+00,3.379525825690000040e+00,-8.716996568210001683e+00,6.225650012490000634e-02,-1.937119290230000096e-02,-1.225380599500000035e-02,1.000000000000000000e+00
1.429959468000000067e+00,2.686237564070000250e+00,3.445672368550000364e+00,-8.811230264649999810e+00,8.161864429710000146e-02,-5.680313706399999635e-02,-1.629976183179999982e-02,1.000000000000000000e+00
1.434928690000000007e+00,2.740953489119999809e+00,3.446641798099999932e+00,-8.812913687689999165e+00,7.706033438439999217e-02,-7.121559977530000918e-02,-1.895066723229999958e-02,1.000000000000000000e+00
1.439960324999999930e+00,2.779958927080000031e+00,3.409365668159999974e+00,-8.823527436170000016e+00,8.508204668759999922e-02,-6.714788824319999072e-02,2.717819996179999826e-03,1.000000000000000000e+00
1.444969721000000096e+00,2.792655034790000101e+00,3.473347434200000361e+00,-8.859280886589999682e+00,9.760370105499999172e-02,-7.927726954219999067e-02,9.237676858899999954e-03,1.000000000000000000e+00
1.449992055999999918e+00,2.877678127559999854e+00,3.485498767500000206e+00,-8.807266621720000188e+00,1.043657362460000126e-01,-8.145807683469999394e-02,3.029918298129999910e-05,1.000000000000000000e+00
1.454993919000000080e+00,2.791056659680000163e+00,3.460004553019999651e+00,-8.747361311329999722e+00,1.309101730589999901e-01,-9.895335882899999880e-02,1.289561204610000129e-02,1.000000000000000000e+00
1.459934523000000040e+00,2.859152583040000195e+00,3.485138994280000180e+00,-8.707340266589998379e+00,1.337409913539999995e-01,-9.196425974369999701e-02,1.814461685720000078e-02,1.000000000000000000e+00
1.464974328999999909e+00,2.834588927410000014e+00,3.403761856800000096e+00,-8.781872652739998841e+00,1.394425481559999902e-01,-9.691660106180001455e-02,1.439918763939999902e-02,1.000000000000000000e+00
1.469980339999999996e+00,2.821822092559999717e+00,3.349558849709999730e+00,-8.709633930479999009e+00,1.317673623560000062e-01,-8.038691431279999799e-02,3.329550474879999777e-02,1.000000000000000000e+00
1.474919120000000028e+00,2.770111779070000058e+00,3.358395651640000423e+00,-8.694664324889998852e+00,1.462738066909999857e-01,-9.040169417860001444e-02,2.434919588270000046e-02,1.000000000000000000e+00
1.479932841999999971e+00,2.687057940540000356e+00,3.450174356140000231e+00,-8.693831965719999388e+00,1.221865862609999992e-01,-8.470525592569999596e-02,3.167467564339999930e-02,1.000000000000000000e+00
1.484940726999999905e+00,2.668960266059999586e+00,3.468269984810000039e+00,-8.679766030960001544e+00,1.018920242790000014e-01,-6.388238817449999607e-02,2.948816306890000155e-02,1.000000000000000000e+00
1.489963869999999968e+00,2.707602423660000035e+00,3.295744257409999989e+00,-8.667875102160000012e+00,9.577864408489999981e-02,-7.680879533289999839e-02,2.999312989409999922e-02,1.000000000000000000e+00
1.494930853000000059e+00,2.641147253240000214e+00,3.296682707310000016e+00,-8.717710269430000380e+00,1.000247299670000006e-01,-7.887200266119999414e-02,3.869850188490000370e-02,1.000000000000000000e+00
1.499930133000000110e+00,2.767854355529999921e+00,3.289117532749999739e+00,-8.718688174549999559e+00,7.126564532519999440e-02,-3.992271423339999875e-02,4.252636432649999770e-02,1.000000000000000000e+00
1.504969006000000054e+00,2.705060630220000206e+00,3.410037576070000132e+00,-8.789444549299998855e+00,6.633739173409999856e-02,-5.823546648030000772e-02,4.876939207320000330e-02,1.000000000000000000e+00
1.509918571000000043e+00,2.711557006509999646e+00,3.423160969270000020e+00,-8.789230614289998300e+00,6.865961104630000089e-02,-5.644028633830000530e-02,4.631582647559999433e-02,1.000000000000000000e+00
1.514969063999999976e+00,2.686973769390000211e+00,3.395369876029999734e+00,-8.707516207679999454e+00,7.574278861280001052e-02,-6.495491415260000456e-02,4.957393556830000381e-02,1.000000000000000000e+00
1.519945875999999974e+00,2.681773570399999862e+00,3.493628590209999718e+00,-8.783044034610000494e+00,8.430593460799999661e-02,-4.558215290309999834e-02,2.871988900009999832e-02,1.000000000000000000e+00
1.524975270999999966e+00,2.655188345809999628e+00,3.406573991610000185e+00,-8.785279830840000415e+00,9.081585705280000032e-02,-6.367389112709999355e-02,5.060224235059999909e-02,1.000000000000000000e+00
1.529957157999999984e+00,2.687666427829999982e+00,3.389899627919999769e+00,-8.795364002479999499e+00,9.144131094219999645e-02,-7.534185796980000238e-02,4.662338644269999749e-02,1.000000000000000000e+00
1.534926102000000014e+00,2.594267136379999616e+00,3.266193461019999855e+00,-8.834669592430000051e+00,1.288700103759999882e-01,-7.677562534810000727e-02,4.220233112570000167e-02,1.000000000000000000e+00
1.539889743000000033e+00,2.447434214779999895e+00,3.344977074870000067e+00,-8.864274457100000504e+00,1.445097923279999863e-01,-7.855859398839999674e-02,3.637813031669999420e-02,1.000000000000000000e+00
1.545002492999999921e+00,2.525365449590000200e+00,3.292688961489999677e+00,-8.953958235149999112e+00,1.351353526119999926e-01,-7.655680924650000441e-02,4.273293167350000060e-02,1.000000000000000000e+00
1.549963721999999988e+00,2.670209389330000072e+00,3.306119520950000279e+00,-8.848889840960000086e+00,1.526318192479999836e-01,-5.828928574919999689e-02,5.541457980870000133e-02,1.000000000000000000e+00
1.554944466000000025e+00,2.767700918529999665e+00,3.381929087440000092e+00,-8.841775040519999962e+00,1.591741889720000025e-01,-6.209656596180000016e-02,7.210557907819999113e-02,1.000000000000000000e+00
1.559918464999999976e+00,2.794218630840000106e+00,3.297774594200000298e+00,-8.796602019839999897e+00,1.389041990040000008e-01,-5.834141373630000182e-02,8.869919180870000641e-02,1.000000000000000000e+00
1.564957449000000000e+00,2.795614176850000021e+00,3.288436857009999770e+00,-8.784042982519999043e+00,1.137894019480000102e-01,-1.387717854229999874e-02,9.478460997339999139e-02,1.000000000000000000e+00
1.569966782999999921e+00,2.769335826259999855e+00,3.280094560599999820e+00,-8.787453083220000849e+00,9.205710142850000166e-02,-7.410286460069999762e-03,1.123873069879999936e-01,1.000000000000000000e+00
1.574965371000000003e+00,2.747902577609999675e+00,3.300761208790000012e+00,-8.771939287749999536e+00,8.568464219570000318e-02,-6.801084615289999281e-03,9.655998647209999841e-02,1.000000000000000000e+00
1.579971548999999920e+00,2.577893801470000135e+00,3.400095443249999683e+00,-8.770197997040000359e+00,7.740470767019999587e-02,-2.653910219669999848e-02,8.280938118700000017e-02,1.000000000000000000e+00
1.584964172000000060e+00,2.634823310919999884e+00,3.456090009930000484e+00,-8.755399656359999838e+00,4.211819916960000271e-02,-5.474710464480000288e-02,4.537882655860000364e-02,1.000000000000000000e+00
1.589952441000000105e+00,2.729438407890000473e+00,3.398471056910000065e+00,-8.772381186300000522e+00,2.857117354870000042e-02,-8.951873332260001925e-02,1.351615600289999934e-02,1.000000000000000000e+00
1.595008897999999897e+00,2.967273058279999987e+00,3.383433354520000158e+00,-8.782554789789999816e+00,2.035240828990000223e-02,-1.056173816320000042e-01,-4.333586990830000374e-02,1.000000000000000000e+00
1.599949915000000056e+00,3.020006285080000019e+00,3.310873145219999980e+00,-8.745322498980000248e+00,2.066276594999999841e-02,-1.496643573049999953e-01,-8.057336509229999499e-02,1.000000000000000000e+00
1.604982764999999922e+00,2.869529015629999513e+00,3.324081586359999729e+00,-8.773435079260000435e+00,2.731282822790000175e-02,-1.612081229690000006e-01,-9.346148371699999902e-02,1.000000000000000000e+00
1.609991943000000036e+00,2.623466342860000022e+00,3.406730058950000029e+00,-8.801922338080000685e+00,2.286973409349999861e-02,-1.648873388769999948e-01,-9.797772020099999868e-02,1.000000000000000000e+00
1.614966024000000111e+00,2.504303664600000090e+00,3.451724508199999875e+00,-8.868417548250000948e+00,2.014959417279999984e-02,-1.454051882029999965e-01,-9.456420689819998449e-02,1.000000000000000000e+00
1.619961296000000051e+00,2.493369598130000142e+00,3.401513201090000216e+00,-8.895642824310000307e+00,2.045985497529999655e-02,-1.380404233929999891e-01,-8.299690484999999729e-02,1.000000000000000000e+00
1.624957282000000003e+00,2.513434188779999801e+00,3.383682653109999716e+00,-8.877606816880000196e+00,2.791883423920000010e-02,-1.143975779410000004e-01,-6.108558177950000612e-02,1.000000000000000000e+00
1.629968585000000081e+00,2.548651632629999941e+00,3.329960999790000375e+00,-8.879854888069999674e+00,6.975063122810000980e-03,-7.523671537640000406e-02,-3.198903053999999774e-02,1.000000000000000000e+00
1.634965666000000040e+00,2.547999598470000127e+00,3.351799906629999715e+00,-8.845538776970000683e+00,-1.686671003700000032e-02,-6.534361839290001028e-02,-2.124460600320000198e-02,1.000000000000000000e+00
1.639965563000000071e+00,2.577318339670000125e+00,3.369701181759999997e+00,-8.838519253590000346e+00,-3.023755922909999658e-02,-6.869465112689999986e-02,-2.528369799259999606e-02,1.000000000000000000e+00
1.644957414999999923e+00,2.657372704120000151e+00,3.317375951240000287e+00,-8.815795965130000411e+00,-5.531699955459999651e-02,-7.836388796569999926e-02,-4.367215931419999447e-02,1.000000000000000000e+00
1.649915739999999964e+00,2.563985979890000433e+00,3.215303231740000101e+00,-8.821232603230001246e+00,-6.802271306509999338e-02,-4.354932904239999791e-02,-5.253045260909999792e-02,1.000000000000000000e+00
1.654967266000000103e+00,2.500936526259999848e+00,3.204521433220000048e+00,-8.839572562040000747e+00,-6.860282272100000356e-02,-3.430419042709999949e-02,-4.095920920369999774e-02,1.000000000000000000e+00
1.659962308999999969e+00,2.468419281270000099e+00,3.329793242009999599e+00,-8.833073263150000187e+00,-8.247604221109999800e-02,-3.371118381620000215e-02,-5.873204022649999856e-02,1.000000000000000000e+00
1.664983394999999922e+00,2.471283146270000231e+00,3.313687325859999699e+00,-8.736313263089998671e+00,-1.131724193689999935e-01,-2.920851111409999978e-02,-3.648683428760000208e-02,1.000000000000000000e+00
1.669983580000000023e+00,2.300653315629999973e+00,3.431582760660000009e+00,-8.796221496090000258e+00,-9.960116446019999514e-02,1.275628525760000125e-02,-2.094482444229999948e-02,1.000000000000000000e+00
1.674963433999999918e+00,2.872733364630000175e+00,3.358680606060000073e+00,-8.877755869959999657e+00,-1.086570099000000039e-01,5.443114414809999829e-02,-9.867107495669999798e-03,1.000000000000000000e+00
1.679955579000000032e+00,2.615429166879999823e+00,3.336982276729999697e+00,-8.885238334669999460e+00,-1.099831536410000032e-01,8.293332159519999081e-02,-5.045254249130000368e-03,1.000000000000000000e+00
1.684883351000000085e+00,2.596137606430000133e+00,3.464926227340000331e+00,-8.818580042889999859e+00,-1.038677766919999940e-01,5.895561352369999703e-02,-3.884143661710000219e-03,1.000000000000000000e+00
1.689890287000000102e+00,2.458845397240000175e+00,3.409462698790000079e+00,-8.947596883430000148e+00,-1.133625507349999978e-01,6.442659348250000251e-02,1.478338800370000011e-02,1.000000000000000000e+00
1.694914671999999900e+00,2.629944891220000081e+00,3.481780916019999950e+00,-8.914241141789998935e+00,-9.534492343660000424e-02,3.655710443850000019e-02,2.128795906899999882e-02,1.000000000000000000e+00
1.699973069999999975e+00,2.736442149179999728e+00,3.398424002900000129e+00,-8.909946659470000085e+00,-8.820939064030000609e-02,3.534956276419999599e-02,-7.666054181749999870e-03,1.000000000000000000e+00
1.704985369000000084e+00,2.589362120950000179e+00,3.382935341870000556e+00,-8.950151828610000138e+00,-7.912835478780000376e-02,2.822558954359999719e-02,-7.565499749029999318e-03,1.000000000000000000e+00
1.709934434000000003e+00,2.449815849220000175e+00,3.403805111420000085e+00,-8.940895924480001256e+00,-7.508350908760000331e-02,8.823522366580001039e-03,-1.726236939430000200e-02,1.000000000000000000e+00
1.714976229999999990e+00,2.396578910679999730e+00,3.372132792830000003e+00,-8.911679766869999852e+00,-8.785802125930000650e-02,2.211790997530000379e-03,-2.687363885340000175e-02,1.000000000000000000e+00
1.719999545999999935e+00,2.397039806190000011e+00,3.384188556799999859e+00,-8.899389025099999628e+00,-8.309283107520000489e-02,1.185968425120000058e-02,-4.453127086159999748e-02,1.000000000000000000e+00
1.724961111999999908e+00,2.311217379739999966e+00,3.322486133859999580e+00,-8.780690749480001500e+00,-1.070875301960000081e-01,2.478373050689999801e-02,-6.269156932830000084e-02,1.000000000000000000e+00
1.730008720000000055e+00,2.382900221679999930e+00,3.238541191719999990e+00,-8.808729680009999896e+00,-1.312937289480000103e-01,4.440660029650000257e-02,-5.469919741149999876e-02,1.000000000000000000e+00
1.735051426000000063e+00,2.443902533520000198e+00,3.200979815090000180e+00,-8.867201742719998947e+00,-1.754560172559999909e-01,6.451980769630000223e-02,-5.198702216149999472e-02,1.000000000000000000e+00
1.739975478999999936e+00,2.423539398319999982e+00,3.225880739850000012e+00,-8.882446073600000602e+00,-2.089533060790000063e-01,9.511428326369998631e-02,-4.666016995910000215e-02,1.000000000000000000e+00
1.745001151000000084e+00,2.196622740050000022e+00,3.231588303840000176e+00,-8.996859803770000497e+00,-2.268956601619999958e-01,1.108935102820000074e-01,-3.252529352900000031e-02,1.000000000000000000e+00
1.750010813000000054e+00,2.327067421430000227e+00,3.210968709659999476e+00,-8.997529665850001024e+00,-2.519602775570000119e-01,1.305358707900000081e-01,-2.896104753020000214e-02,1.000000000000000000e+00
1.755009049999999959e+00,2.558885734139999979e+00,3.253690245540000081e+00,-8.914991083380000347e+00,-2.460785657169999863e-01,1.600881069900000064e-01,-2.781399525700000222e-02,1.000000000000000000e+00
1.760010738000000075e+00,2.627984404809999841e+00,3.301473740970000126e+00,-8.837979155370000228e+00,-2.581990957259999719e-01,1.661256551739999920e-01,3.868814557790000320e-03,1.000000000000000000e+00
1.765004455999999999e+00,2.736748146390000080e+00,3.393582408090000335e+00,-8.749946651649999296e+00,-2.506144642829999936e-01,1.643966436390000008e-01,1.453891396520000205e-02,1.000000000000000000e+00
1.770006375999999992e+00,2.754361836750000236e+00,3.354984674150000235e+00,-8.815050699720000438e+00,-2.550994753840000184e-01,2.055341005330000026e-01,1.217932533470000162e-02,1.000000000000000000e+00
1.775000909000000071e+00,2.699468509309999931e+00,3.408380456509999767e+00,-8.828651355050000760e+00,-2.511007189750000257e-01,2.100190818309999874e-01,3.946366161109999410e-02,1.000000000000000000e+00
1.779996461000000085e+00,2.635621767820000017e+00,3.438238419160000170e+00,-8.880301462789999434e+00,-2.479520440100000112e-01,1.937563866380000166e-01,1.832133717829999980e-02,1.000000000000000000e+00
1.785027074999999908e+00,2.461985448829999701e+00,3.554576103119999608e+00,-8.822514459729999814e+00,-2.663365006450000294e-01,2.217686325310000151e-01,2.025713957849999830e-02,1.000000000000000000e+00
1.789970684999999895e+00,2.409190847230000099e+00,3.642231297960000003e+00,-8.744392524650001164e+00,-2.776174247260000394e-01,2.089286446570000066e-01,2.796025387940000162e-02,1.000000000000000000e+00
1.794968149000000013e+00,2.391428542179999894e+00,3.668703417559999735e+00,-8.722197059460000901e+00,-2.698047459130000214e-01,2.409368902440000015e-01,2.882167138159999475e-02,1.000000000000000000e+00
1.799976035999999890e+00,2.400955518329999983e+00,3.538929913440000519e+00,-8.701085297849999733e+00,-2.666573822500000190e-01,2.608284950259999735e-01,6.836890429259999402e-02,1.000000000000000000e+00
1.804999672000000110e+00,2.585060039840000101e+00,3.608293080259999730e+00,-8.751213895110000252e+00,-2.615713179109999675e-01,2.817978858949999887e-01,6.826898455620000750e-02,1.000000000000000000e+00
1.810023533999999934e+00,2.697308993180000058e+00,3.761223003570000056e+00,-8.738295961339998641e+00,-2.369018346070000114e-01,2.888493239880000063e-01,9.952514618640000144e-02,1.000000000000000000e+00
1.814951774999999934e+00,2.813374874470000453e+00,3.760773506230000063e+00,-8.768458459899999724e+00,-2.322911918159999978e-01,3.068673610689999776e-01,9.843863546849999924e-02,1.000000000000000000e+00
1.820068789000000020e+00,2.805245344029999810e+00,3.697356680590000000e+00,-8.647060277669998740e+00,-2.067184150220000016e-01,3.157367706299999965e-01,1.354115307329999962e-01,1.000000000000000000e+00
1.825025090000000016e+00,2.789943730000000066e+00,3.715927525550000166e+00,-8.739839683650000524e+00,-2.062293887139999837e-01,3.181830942630000103e-01,1.314051449299999952e-01,1.000000000000000000e+00
1.830012154000000058e+00,2.871945429120000171e+00,3.784626967769999517e+00,-8.589697637500000482e+00,-1.774502694610000098e-01,3.318125009540000003e-01,1.425852179529999986e-01,1.000000000000000000e+00
1.835001922000000008e+00,2.856961210479999735e+00,3.840511936600000453e+00,-8.598022398260001253e+00,-1.759402155880000207e-01,3.470927178859999906e-01,1.539811044930000095e-01,1.000000000000000000e+00
1.840009430999999918e+00,2.756054027620000291e+00,3.739162270669999621e+00,-8.536667473579999665e+00,-1.759391576049999795e-01,3.751657009120000219e-01,1.582079380749999986e-01,1.000000000000000000e+00
1.845016200999999967e+00,2.643792214789999928e+00,3.786758426840000080e+00,-8.454251056180000390e+00,-1.849472373720000007e-01,3.807381391529999770e-01,1.494006961580000015e-01,1.000000000000000000e+00
1.850026210000000004e+00,2.639539525779999618e+00,3.719272159800000033e+00,-8.576361770589999267e+00,-2.074421197180000009e-01,3.580133616920000428e-01,1.168739795680000110e-01,1.000000000000000000e+00
1.855036155000000075e+00,2.687206701370000062e+00,3.654972413849999935e+00,-8.544138247859999424e+00,-2.216439098119999951e-01,3.549220263960000121e-01,1.095416769390000072e-01,1.000000000000000000e+00
1.860007151000000025e+00,2.815734297080000115e+00,3.800085233659999950e+00,-8.519491882380000547e+00,-2.534745633600000159e-01,3.354966342449999805e-01,6.705094128850000446e-02,1.000000000000000000e+00
1.865026333000000092e+00,2.862544563569999756e+00,3.835034966489999864e+00,-8.565428873169999235e+00,-2.460987418890000222e-01,3.114668130869999718e-01,4.845204949379999793e-02,1.000000000000000000e+00
1.870038963000000054e+00,2.784207232179999991e+00,3.871075709430000344e+00,-8.559611711320000538e+00,-2.767910063269999887e-01,3.040038347239999994e-01,2.610586956140000317e-02,1.000000000000000000e+00
1.874995605000000065e+00,2.664927941800000255e+00,3.871952492260000156e+00,-8.616603180089999370e+00,-2.652841806410000114e-01,3.034672439099999619e-01,3.890137374400000347e-02,1.000000000000000000e+00
1.880007648999999947e+00,2.822046548969999957e+00,3.863513457480000302e+00,-8.589545661810001675e+00,-2.526200115680000136e-01,3.196748793129999822e-01,2.101472578940000516e-02,1.000000000000000000e+00
1.884996160999999892e+00,2.718505218209999796e+00,3.805345346150000196e+00,-8.586049636389999407e+00,-2.432014644150000127e-01,3.411120474339999764e-01,4.392354190350000048e-02,1.000000000000000000e+00
1.889971308000000016e+00,2.774108739750000385e+00,3.752753865909999487e+00,-8.596551156660000359e+00,-2.133848816159999995e-01,3.362151980399999962e-01,6.187638640399999862e-02,1.000000000000000000e+00
1.894984905999999913e+00,2.682996390190000024e+00,3.710542325380000506e+00,-8.670890650589999638e+00,-1.798923164609999847e-01,3.407745361330000167e-01,1.174101755020000026e-01,1.000000000000000000e+00
1.899940385000000065e+00,2.954123361590000219e+00,3.772840668380000650e+00,-8.691450623539999754e+00,-1.530102491379999874e-01,3.210560679439999898e-01,1.150996014479999940e-01,1.000000000000000000e+00
1.904979111999999919e+00,3.100682288560000277e+00,3.764425891259999712e+00,-8.654181507849999733e+00,-1.503982990980000101e-01,2.957685887809999858e-01,9.653656929729999281e-02,1.000000000000000000e+00
1.909976729999999900e+00,3.194572870660000063e+00,3.724112001050000398e+00,-8.596107504549999945e+00,-1.297834217549999891e-01,2.524437308309999684e-01,8.346363157029999813e-02,1.000000000000000000e+00
1.915034010000000064e+00,3.256712223710000131e+00,3.689901396150000235e+00,-8.526856273669999098e+00,-1.263770759110000030e-01,2.296654134989999929e-01,8.363135159020000653e-02,1.000000000000000000e+00
1.919945054000000040e+00,3.228262374290000292e+00,3.690328097130000540e+00,-8.487953419300000135e+00,-1.212903112169999992e-01,2.043732106689999939e-01,8.551924675699999756e-02,1.000000000000000000e+00
1.925017447999999964e+00,3.054731853770000338e+00,3.686880587030000100e+00,-8.548296536580000549e+00,-1.346014291050000034e-01,1.933061182499999919e-01,8.423350006339998253e-02,1.000000000000000000e+00
1.930065249999999955e+00,3.150634944729999720e+00,3.651616965940000625e+00,-8.592921275730001085e+00,-1.487842649220000035e-01,2.021816372870000045e-01,8.860263228420001136e-02,1.000000000000000000e+00
1.935031801000000051e+00,3.161291947820000114e+00,3.755563954890000389e+00,-8.545514212380000529e+00,-1.668969094749999937e-01,1.958675086499999940e-01,7.988640666010000946e-02,1.000000000000000000e+00
1.939971953999999998e+00,3.155723792300000330e+00,3.748436002709999659e+00,-8.537598032430000927e+00,-1.946745663879999866e-01,2.096700370309999839e-01,8.249196410179999994e-02,1.000000000000000000e+00
1.944972775999999959e+00,3.181636232190000246e+00,3.749264562490000063e+00,-8.434346332269999635e+00,-2.237664908170000078e-01,2.034727483989999808e-01,8.115114271639999044e-02,1.000000000000000000e+00
1.949960386999999962e+00,3.214055862020000376e+00,3.774810507149999772e+00,-8.515031395839999462e+00,-2.507632076740000104e-01,1.938960254190000010e-01,5.234120786190000346e-02,1.000000000000000000e+00
1.954958638999999998e+00,3.193106597499999921e+00,3.667479136459999900e+00,-8.534271518360000641e+00,-2.703455090519999993e-01,1.870644986630000117e-01,5.035905539990000179e-02,1.000000000000000000e+00
1.959973898999999964e+00,3.184964207570000205e+00,3.715327513830000150e+00,-8.522505092719999453e+00,-2.764307558540000098e-01,1.861513853069999835e-01,2.852158434690000091e-02,1.000000000000000000e+00
1.964982132999999909e+00,3.108832861790000290e+00,3.763401224389999911e+00,-8.482287064099999441e+00,-3.032008707519999735e-01,1.872253566979999728e-01,2.457520738240000224e-02,1.000000000000000000e+00
1.969939169000000101e+00,2.970438536580000122e+00,3.906247268309999576e+00,-8.368596972030001524e+00,-3.166387975220000262e-01,1.814070045950000043e-01,4.615715146060000301e-02,1.000000000000000000e+00
1.975005141000000020e+00,2.910719104150000014e+00,3.886217164459999651e+00,-8.371468728080001753e+00,-3.220403194429999894e-01,1.798440814020000056e-01,6.752408295869999355e-02,1.000000000000000000e+00
1.979955738999999992e+00,3.083872315799999875e+00,3.926390477149999558e+00,-8.510984750800000498e+00,-3.313580751419999970e-01,1.869072914119999929e-01,3.609905391930000318e-02,1.000000000000000000e+00
1.984949405000000056e+00,3.039894350120000421e+00,3.810459035899999680e+00,-8.554540983929999953e+00,-3.233303129669999887e-01,1.927490979430000195e-01,5.232972651719999813e-02,1.000000000000000000e+00
1.989958118000000109e+00,3.117093617400000127e+00,3.661342241140000286e+00,-8.600303202670000147e+00,-3.407928049560000061e-01,1.874585300680000066e-01,3.459212183950000075e-02,1.000000000000000000e+00
1.994963193000000024e+00,3.108221159629999786e+00,3.787979493069999926e+00,-8.641648189489998799e+00,-3.311575949189999868e-01,1.950970292089999891e-01,6.081900745630000604e-02,1.000000000000000000e+00
1.999989183999999920e+00,3.155494951980000184e+00,3.824954594240000283e+00,-8.635548119050000082e+00,-3.383147716520000237e-01,1.738794445989999826e-01,5.592180788520000057e-02,1.000000000000000000e+00
2.005003697999999890e+00,2.931972612320000060e+00,3.988120080360000319e+00,-8.565818749269999088e+00,-3.191229105000000232e-01,2.307439148429999975e-01,5.178246647120000185e-02,1.000000000000000000e+00
2.010014758000000068e+00,2.725332141620000037e+00,4.004882122330000627e+00,-8.630844471410000551e+00,-3.257763683800000143e-01,2.771052122120000183e-01,5.730875581500000093e-02,1.000000000000000000e+00
2.015001956999999955e+00,3.081594433989999882e+00,3.874486686909999644e+00,-8.589946643830000284e+00,-3.268474936490000093e-01,3.116078078750000313e-01,3.760203719140000483e-02,1.000000000000000000e+00
2.019969317999999792e+00,3.459284129800000329e+00,3.778523682459999922e+00,-8.498490010880001222e+00,-3.354990482330000301e-01,3.407686650749999768e-01,5.286338180300000078e-02,1.000000000000000000e+00
2.025010480999999807e+00,3.681694708819999828e+00,3.781648828740000301e+00,-8.468454938099998941e+00,-3.528732657429999864e-01,3.467278182509999640e-01,5.482355505230000065e-02,1.000000000000000000e+00
2.029955619999999961e+00,3.662890347369999855e+00,3.818215641380000136e+00,-8.366147825319998788e+00,-3.862604796890000136e-01,3.211038708689999965e-01,6.672930717469999218e-02,1.000000000000000000e+00
2.034968974999999958e+00,3.588324351209999818e+00,3.815376910819999523e+00,-8.338286589439999119e+00,-4.059724211689999529e-01,3.377880156040000137e-01,4.710219800470000218e-02,1.000000000000000000e+00
2.039972301999999793e+00,3.531792608909999576e+00,3.931758726189999997e+00,-8.368338028840000220e+00,-4.289660155769999816e-01,3.324109613900000371e-01,4.557615518569999719e-02,1.000000000000000000e+00
2.045004154999999990e+00,3.478436866290000040e+00,3.954044500009999741e+00,-8.445534081239999935e+00,-4.443725347519999480e-01,3.338384628300000156e-01,2.066175453359999845e-02,1.000000000000000000e+00
2.049955563000000147e+00,3.547053598659999807e+00,3.891136792940000255e+00,-8.520012691379999836e+00,-4.779648184780000419e-01,3.151448071000000350e-01,1.924051344390000085e-02,1.000000000000000000e+00
2.055006037000000063e+00,3.594054419290000357e+00,3.777055363469999261e+00,-8.494575467789999834e+00,-4.776831567289999692e-01,3.164811432360000176e-01,1.492439769209999868e-03,0.000000000000000000e+00
2.059976833999999979e+00,3.731735335540000253e+00,3.975506682499999833e+00,-8.454994568029999158e+00,-4.977241456509999828e-01,2.777741849420000131e-01,-1.100062858310000072e-02,0.000000000000000000e+00
2.064980380000000171e+00,3.694368896959999926e+00,3.947252355659999878e+00,-8.422833004610000174e+00,-5.342896580699999509e-01,2.530077099800000506e-01,-6.510753650220000438e-03,0.000000000000000000e+00
2.070029889000000178e+00,3.504480239090000282e+00,3.966479326430000008e+00,-8.334413547400000510e+00,-5.635824799540000152e-01,2.588424384590000127e-01,6.584074348209999553e-03,0.000000000000000000e+00
2.074996100999999982e+00,3.469538105049999821e+00,4.191931465109999699e+00,-8.437027534180000288e+00,-6.053668260569999848e-01,2.285733968020000062e-01,-1.146647240970000148e-02,0.000000000000000000e+00
2.079995763999999969e+00,3.311831761120000106e+00,3.938794031650000083e+00,-8.341042610149999703e+00,-6.006489396099999878e-01,2.357062995430000141e-01,-3.096810914580000115e-02,0.000000000000000000e+00
2.084992542000000171e+00,3.282596898809999608e+00,4.202806202609999708e+00,-8.476986035079999482e+00,-6.355894803999999620e-01,2.410620003939999978e-01,-2.813947200780000241e-02,0.000000000000000000e+00
2.090003852999999800e+00,3.388412604240000459e+00,4.162190406839999746e+00,-8.446836396010001025e+00,-6.439582109449999425e-01,2.326838076110000209e-01,-1.733441650870000059e-02,0.000000000000000000e+00
2.094984530000000067e+00,3.281900148719999688e+00,4.170350916949999487e+00,-8.523946523699999389e+00,-6.442590355870000396e-01,2.465870827439999857e-01,-2.365048415959999928e-02,0.000000000000000000e+00
2.100007912000000143e+00,3.057138622649999693e+00,4.321348118619999568e+00,-8.460676120789999644e+00,-6.488982439039999717e-01,2.750920951370000034e-01,2.360998652880000066e-03,0.000000000000000000e+00
2.105009914000000038e+00,3.124510323390000011e+00,4.430786690719999754e+00,-8.317455398339999917e+00,-6.435765624050000522e-01,2.819014489649999677e-01,1.009926199909999978e-05,0.000000000000000000e+00
2.109998341999999916e+00,3.055070584200000106e+00,4.487415463659999659e+00,-8.274433418210000113e+00,-6.362892389300000007e-01,2.673329710960000161e-01,-1.702577993269999840e-02,0.000000000000000000e+00
2.115003644000000183e+00,3.543746958329999863e+00,4.313611971409999413e+00,-8.343723812060000355e+00,-6.437636017800000277e-01,2.200280427930000060e-01,-9.591003879899999071e-03,0.000000000000000000e+00
2.119957972999999996e+00,3.798391289230000467e+00,4.389274238380000526e+00,-8.297609126619999387e+00,-6.280353665350000281e-01,2.796135842800000493e-01,-9.311877191069999754e-03,0.000000000000000000e+00
2.125054549000000126e+00,3.564394317300000115e+00,4.201605594650000164e+00,-8.227328552689998631e+00,-6.350336074829999733e-01,2.968433499340000226e-01,-1.014524511989999857e-02,0.000000000000000000e+00
2.129995560999999871e+00,3.790239839209999850e+00,4.258429013369999794e+00,-8.313485325660000314e+00,-6.240499615669999889e-01,3.312106430530000201e-01,-2.449489384890000260e-02,0.000000000000000000e+00
2.135032671999999909e+00,3.487477666359999784e+00,4.261246408879999947e+00,-8.249849012060000319e+00,-6.372919082639999511e-01,3.817478120330000113e-01,-3.780855238440000016e-02,0.000000000000000000e+00
2.139997128000000082e+00,3.628352994730000614e+00,4.401333801739999885e+00,-8.088884543119998938e+00,-6.648915410040000529e-01,3.640222549440000344e-01,-5.573676526549999760e-02,0.000000000000000000e+00
2.144979972999999873e+00,3.864937352799999726e+00,4.431639800420000164e+00,-7.919833213839999608e+00,-6.768178343770000494e-01,3.482325971130000308e-01,-6.693112850190000018e-02,0.000000000000000000e+00
2.149976548000000154e+00,4.012747156609999699e+00,4.417935976979999957e+00,-7.931147219530000569e+00,-6.782087683679999257e-01,3.287983238699999644e-01,-7.918541878460000349e-02,0.000000000000000000e+00
2.155004422000000197e+00,4.224108518359999564e+00,4.488004661719999788e+00,-7.855556848760000044e+00,-6.830108761790000260e-01,2.983034849169999836e-01,-9.053385257719999413e-02,0.000000000000000000e+00
2.160008965999999919e+00,4.275879622130000612e+00,4.322425100199999370e+00,-7.869682989269999318e+00,-6.910240054130000198e-01,2.735918164249999673e-01,-1.107276976110000005e-01,0.000000000000000000e+00
2.165015760000000178e+00,4.217896511969999374e+00,4.170799245239999564e+00,-7.949851335480000003e+00,-6.678808927539999774e-01,2.682562172410000167e-01,-1.197553947570000055e-01,0.000000000000000000e+00
2.170003150999999963e+00,4.207745997099999968e+00,4.335395056409999448e+00,-7.904068073949999551e+00,-6.975619792939999897e-01,2.450056076049999809e-01,-1.313444524999999863e-01,0.000000000000000000e+00
2.174995363999999931e+00,4.325900375099999806e+00,4.442199772880000452e+00,-7.887716658610000486e+00,-7.230819463730000507e-01,2.015918940310000018e-01,-1.479294449090000074e-01,0.000000000000000000e+00
2.179991151999999932e+00,4.106455660139999964e+00,4.501456556229999961e+00,-7.990048321310000645e+00,-7.732902765270001089e-01,2.126574963329999901e-01,-1.481327116489999929e-01,0.000000000000000000e+00
2.185012822000000021e+00,3.760495858340000108e+00,4.510659268859999571e+00,-8.167449545789999377e+00,-8.176816105840000182e-01,1.818593442440000207e-01,-1.459689885379999996e-01,0.000000000000000000e+00
2.189963827000000141e+00,3.520063008150000172e+00,4.590932244490000258e+00,-8.192550084780000574e+00,-8.470268845559999482e-01,1.894862949849999978e-01,-1.347317397589999910e-01,0.000000000000000000e+00
2.194936585000000218e+00,3.384187680020000144e+00,4.771963349900000040e+00,-8.106041429619999406e+00,-8.615684509280000514e-01,1.977868974210000019e-01,-1.502243578430000059e-01,0.000000000000000000e+00
2.199952414999999828e+00,3.355160030720000464e+00,4.878757252719999826e+00,-8.009399502989998254e+00,-8.805285692209999793e-01,2.250731736419999962e-01,-1.646010875699999987e-01,0.000000000000000000e+00
2.204964966999999998e+00,3.269630449729999722e+00,4.977324886709999952e+00,-8.058056274129999252e+00,-8.968193531039999611e-01,2.455102652310000022e-01,-1.731076091529999972e-01,0.000000000000000000e+00
2.209991173000000142e+00,3.359808733299999961e+00,4.876452190640000239e+00,-7.986536513799999959e+00,-9.223797321319999742e-01,2.802249789240000011e-01,-1.722985655070000122e-01,0.000000000000000000e+00
2.214971731999999971e+00,3.260121155369999801e+00,5.062803029770000407e+00,-7.934931414249999371e+00,-9.236289262769999953e-01,3.079558014869999694e-01,-1.703510433439999749e-01,0.000000000000000000e+00
2.219995163000000105e+00,3.339371217690000115e+00,4.919641928549999932e+00,-7.953925453049999206e+00,-9.485248327259999668e-01,3.270485401150000082e-01,-1.716479808089999837e-01,0.000000000000000000e+00
2.225045522999999914e+00,3.486189672380000548e+00,4.887820556880000389e+00,-7.847841744339999259e+00,-9.574034214020000766e-01,3.430753350260000167e-01,-1.589049547910000026e-01,0.000000000000000000e+00
2.230010957000000182e+00,3.283293648899999972e+00,5.119370720169999167e+00,-7.853370152370000135e+00,-9.831081032749999782e-01,3.617143630979999802e-01,-1.628883033990000118e-01,0.000000000000000000e+00
2.235004626999999910e+00,3.516746723199999813e+00,5.109394100560000318e+00,-7.937182992569999485e+00,-9.868683218960000447e-01,4.000036716459999808e-01,-1.543930768969999923e-01,0.000000000000000000e+00
2.240017180999999802e+00,3.582443184210000187e+00,5.020670691959999488e+00,-8.139322352460000687e+00,-1.028094649310000053e+00,4.288431704039999959e-01,-1.591614782809999962e-01,0.000000000000000000e+00
2.245003114000000188e+00,3.754727211810000131e+00,4.928779174730000712e+00,-8.117617885650000531e+00,-1.050744414329999987e+00,4.243327379230000251e-01,-1.817376166580000063e-01,0.000000000000000000e+00
2.249996643999999879e+00,3.799954593019999827e+00,4.979864049799999748e+00,-8.091686156539999786e+00,-1.078422665599999997e+00,4.365249872209999715e-01,-1.867165416480000006e-01,0.000000000000000000e+00
2.254962912999999958e+00,3.802354347640000132e+00,4.917649877949999748e+00,-8.285829841500000015e+00,-1.109145760539999914e+00,4.648316502570000175e-01,-2.114441245789999979e-01,0.000000000000000000e+00
2.259929555999999895e+00,3.921589506610000164e+00,4.851182140309999724e+00,-8.623485925339998914e+00,-1.149461388590000022e+00,4.702260792260000155e-01,-2.254632115359999911e-01,0.000000000000000000e+00
2.264970808999999807e+00,4.033688237830000745e+00,4.885467564009999819e+00,-8.867397557549999476e+00,-1.199339628220000176e+00,4.687166810039999909e-01,-2.290921062229999972e-01,0.000000000000000000e+00
2.269972124999999785e+00,4.061827706119999881e+00,4.877203009009999590e+00,-9.145736944550000302e+00,-1.242797017100000012e+00,4.630919992920000117e-01,-2.603585422040000097e-01,0.000000000000000000e+00
2.274965766999999861e+00,4.087403169149999904e+00,4.702852988800000134e+00,-9.348308266120000098e+00,-1.288665294650000126e+00,4.532885253430000150e-01,-2.868812978270000036e-01,0.000000000000000000e+00
2.279959513000000104e+00,4.334551591330000342e+00,4.647981873190000002e+00,-9.293412308329999760e+00,-1.372285485270000160e+00,4.256103932859999772e-01,-3.494281172750000053e-01,0.000000000000000000e+00
2.284945646000000163e+00,4.288656101589999992e+00,4.679433242510000035e+00,-9.229446908889999079e+00,-1.451447486880000026e+00,4.064510166649999978e-01,-3.845480978490000146e-01,0.000000000000000000e+00
2.289959507999999921e+00,4.531926805560000382e+00,4.623455919219999544e+00,-9.295512495480000581e+00,-1.529468059539999869e+00,4.181025028230000440e-01,-4.453780949119999777e-01,0.000000000000000000e+00
2.295018919999999962e+00,4.562717372880000788e+00,4.482214972400000441e+00,-9.520967264500001193e+00,-1.667256593700000122e+00,3.797882795329999839e-01,-5.043225288389999728e-01,0.000000000000000000e+00
2.299995796999999786e+00,5.176835651670000260e+00,4.193449176199999684e+00,-9.413461998549999876e+00,-1.839165568350000113e+00,2.851446866990000051e-01,-6.124109625820000069e-01,0.000000000000000000e+00
2.305029446999999898e+00,5.458482848040000057e+00,4.230770898859999463e+00,-8.943106001749999479e+00,-2.026467323300000345e+00,2.463104724879999763e-01,-6.863272786139998916e-01,0.000000000000000000e+00
2.309995343000000201e+00,5.605622205240000433e+00,4.078075661090000636e+00,-9.321421428239998974e+00,-2.201984643940000375e+00,2.240117192270000002e-01,-7.300150990489999714e-01,0.000000000000000000e+00
2.314995185999999983e+00,5.894698674830000762e+00,3.656285250019999822e+00,-9.486924709650001120e+00,-2.408458709720000090e+00,1.836761087180000251e-01,-8.516826629639999702e-01,0.000000000000000000e+00
2.320005284000000056e+00,5.734081996410000492e+00,3.492387065710000016e+00,-9.802927764610000594e+00,-2.634240865709999824e+00,1.260358244180000142e-01,-9.758506417269999789e-01,0.000000000000000000e+00
2.324976715000000027e+00,5.431099751069999648e+00,3.862930396889999951e+00,-9.642160279549999657e+00,-2.844563484190000491e+00,9.386248141530000033e-02,-1.172300219539999855e+00,0.000000000000000000e+00
2.330007978999999896e+00,4.906223644049999777e+00,4.012483537240000508e+00,-9.857315188350000312e+00,-3.087442874909999802e+00,3.642869740719999888e-02,-1.318498849870000100e+00,0.000000000000000000e+00
2.335012761999999853e+00,5.362345363800000264e+00,3.929719037049999919e+00,-9.772878078779999811e+00,-3.318502664569999983e+00,-3.245411813259999750e-02,-1.491156935690000074e+00,0.000000000000000000e+00
2.340000836999999834e+00,5.157993004030000606e+00,4.068559060209999245e+00,-9.889961904939999826e+00,-3.500858068469999473e+00,-7.079228758810000854e-02,-1.654197692869999958e+00,0.000000000000000000e+00
2.345004564999999985e+00,4.901159638660000262e+00,4.241348991489999776e+00,-9.665543493219999505e+00,-3.651485443119999896e+00,-8.466129004960000481e-02,-1.791079759600000099e+00,0.000000000000000000e+00
2.349993390999999932e+00,4.640696392349999755e+00,4.402492616390000002e+00,-9.697967506960001316e+00,-3.770024299619999741e+00,-1.148598119619999997e-01,-1.912989497179999887e+00,0.000000000000000000e+00
2.355004765999999972e+00,4.697583816219999875e+00,4.123882011240000089e+00,-9.672584059380000099e+00,-3.834527492519999914e+00,-1.499330103400000058e-01,-1.990687012670000255e+00,0.000000000000000000e+00
2.360005957999999904e+00,4.619344392250000375e+00,4.415164174180000067e+00,-1.009275125320000122e+01,-3.879703760149999958e+00,-1.797205656769999826e-01,-2.018160343169999926e+00,0.000000000000000000e+00
2.364995034000000107e+00,5.134895037039999721e+00,5.072136675309999454e+00,-1.051386887960000038e+01,-3.906752824780000299e+00,-2.087212651969999888e-01,-2.036082506180000085e+00,0.000000000000000000e+00
2.370025916999999982e+00,5.384740150959999916e+00,5.792662195680001069e+00,-1.067716675990000041e+01,-3.976264953609999875e+00,-2.454630136490000003e-01,-2.003432512279999855e+00,0.000000000000000000e+00
2.374999357000000089e+00,5.132070627270000074e+00,6.357779127669999752e+00,-1.022480410040000010e+01,-4.063968181609999952e+00,-2.773934304710000132e-01,-1.979064106940000123e+00,0.000000000000000000e+00
2.380016996999999801e+00,4.243540948580000638e+00,6.312344241179999926e+00,-1.049024016669999959e+01,-4.142570018769999862e+00,-2.872953712940000126e-01,-1.964772939679999997e+00,0.000000000000000000e+00
2.385004243000000024e+00,3.952535264499999812e+00,7.136174653210001217e+00,-1.061296638259999980e+01,-4.254058361050000237e+00,-2.315717041490000239e-01,-1.890224576000000045e+00,0.000000000000000000e+00
2.390005992999999940e+00,4.157802108759999449e+00,7.446121476860001032e+00,-9.525692539460001385e+00,-4.324794769290000396e+00,-1.035912241789999945e-02,-1.868544340129999926e+00,0.000000000000000000e+00
2.394996718999999885e+00,4.178465834339999851e+00,7.908851801089999967e+00,-8.931170064759999860e+00,-4.437461376189999918e+00,2.386140525340000040e-01,-1.804255723950000112e+00,0.000000000000000000e+00
2.399970956999999849e+00,4.806849077589999908e+00,9.743938400019999335e+00,-8.244021328819998828e+00,-4.585561752320000295e+00,4.669219553469999839e-01,-1.693334698679999972e+00,0.000000000000000000e+00
2.404985587000000091e+00,5.555598821919999430e+00,1.077222404769999997e+01,-9.539254031819998758e+00,-4.787719726559999778e+00,6.238805651659999896e-01,-1.618688821789999954e+00,0.000000000000000000e+00
2.409965194000000199e+00,5.295260371040000358e+00,1.161274782029999919e+01,-1.101154250689999969e+01,-5.086061477659999497e+00,5.590066909790000205e-01,-1.474853992459999930e+00,0.000000000000000000e+00
2.415023558000000126e+00,5.376430003250000311e+00,1.230285774420000067e+01,-1.129332180519999973e+01,-5.261626243590000307e+00,5.431782603260000286e-01,-1.414519786829999903e+00,0.000000000000000000e+00
2.420036614999999891e+00,5.300623359380000288e+00,1.515560162920000131e+01,-1.338846453089999855e+01,-5.293188571930000030e+00,5.038217902179999985e-01,-1.419262051579999850e+00,0.000000000000000000e+00
2.424979458999999782e+00,5.126408363719999528e+00,1.517531638349999845e+01,-1.237522506119999832e+01,-5.090573787690000351e+00,5.646160244940000572e-01,-1.366746664050000115e+00,0.000000000000000000e+00
2.429980229999999963e+00,4.359407507900000311e+00,1.337928052300000026e+01,-1.136629702499999972e+01,-4.737194538119999798e+00,5.290057063100001011e-01,-1.377015471460000029e+00,0.000000000000000000e+00
2.435032936999999897e+00,3.578135842410000045e+00,1.178106791269999931e+01,-1.187874736569999889e+01,-4.180907249449999696e+00,4.709444940090000142e-01,-1.172011256220000019e+00,0.000000000000000000e+00
2.440005832000000208e+00,5.740754313780000118e+00,1.119794887559999985e+01,-1.270551032410000047e+01,-3.691682338709999733e+00,1.691402047870000092e-01,-1.012549877170000112e+00,0.000000000000000000e+00
2.445006677999999933e+00,7.768073795619999444e+00,9.329286170259999622e+00,-1.264049395430000011e+01,-3.269126892090000069e+00,-3.488605916499999959e-01,-7.796586751940000060e-01,0.000000000000000000e+00
2.450005430000000040e+00,8.008950005660000926e+00,8.223834280830001120e+00,-1.136038984680000041e+01,-3.011167526249999948e+00,-9.366864562029999508e-01,-5.412092208859999865e-01,0.000000000000000000e+00
2.455000811000000116e+00,6.942234381860001413e+00,6.204466634790000157e+00,-1.247841304849999844e+01,-2.970753669740000547e+00,-1.674261331560000121e+00,-1.490824073550000017e-01,0.000000000000000000e+00
2.459992548999999862e+00,4.657010982819999256e+00,3.808801916340000204e+00,-1.298650870109999822e+01,-2.997401237490000092e+00,-2.418936729429999932e+00,4.851300716399999935e-01,0.000000000000000000e+00
2.465015551000000027e+00,3.232793003459999426e+00,4.685670383329999744e+00,-1.070673538419999993e+01,-3.001266002659999543e+00,-2.687652587890000166e+00,1.253149628639999902e+00,0.000000000000000000e+00
2.470024265000000163e+00,5.136677828799999901e+00,1.130505315949999989e+01,-8.935719983150001156e+00,-3.062486171719999817e+00,-2.705119133000000176e+00,2.055037498469999946e+00,0.000000000000000000e+00
2.474967479000000026e+00,8.629066940339999547e+00,1.834309769340000074e+01,-1.276563775280000002e+01,-3.005406618120000317e+00,-2.144151926040000156e+00,2.605202436449999936e+00,0.000000000000000000e+00
2.479993979000000071e+00,6.693036333670000282e+00,1.805051058529999963e+01,-1.830099691970000109e+01,-2.751853704449999771e+00,-1.754121303559999845e+00,3.070759773249999824e+00,0.000000000000000000e+00
2.485037385000000043e+00,1.905828214499999840e+00,1.221334640010000072e+01,-1.663021474780000020e+01,-2.054106950759999606e+00,-1.522845387459999866e+00,3.364623308180000105e+00,0.000000000000000000e+00
2.490005828999999782e+00,-1.327957745520000010e+00,8.779205479360001618e+00,-1.538560514759999975e+01,-1.023782372470000146e+00,-1.493737339970000022e+00,3.651774644850000140e+00,0.000000000000000000e+00
2.494993292000000196e+00,1.055627901139999936e-01,7.389400057210000483e+00,-1.332159873390000193e+01,2.193043529990000018e-01,-1.723422765729999862e+00,3.970207929609999464e+00,0.000000000000000000e+00
2.499995299000000060e+00,5.659380391170000246e-01,8.146363503139998130e+00,-1.138917053559999992e+01,1.286769866939999840e+00,-1.852469921109999751e+00,4.345286846159999605e+00,0.000000000000000000e+00
2.504960803999999985e+00,7.431161223620000866e-01,7.273496965269999670e+00,-1.020506596519999931e+01,1.983532309529999704e+00,-1.885980367659999768e+00,4.718246459959999584e+00,0.000000000000000000e+00
2.509928321999999934e+00,4.119101645090000319e-01,5.614823164309999726e+00,-9.316665758139999198e+00,2.362603902820000101e+00,-1.724023938179999993e+00,4.917810916899999718e+00,0.000000000000000000e+00
2.514964935000000068e+00,-8.391884324120000294e-01,5.076505391909999609e+00,-9.034221273910000960e+00,2.440041542050000345e+00,-1.527710199359999965e+00,5.019092559809999798e+00,0.000000000000000000e+00
2.519995268000000177e+00,-9.286584946520001216e-01,5.049608032630000132e+00,-8.453724986479999259e+00,2.232901573179999932e+00,-1.325025439260000049e+00,4.967947483059999669e+00,0.000000000000000000e+00
2.524954189999999876e+00,-1.445874807630000147e-01,5.528091806310000855e+00,-8.036475725969999928e+00,1.801820278170000122e+00,-1.128299117089999859e+00,4.810738563540000179e+00,0.000000000000000000e+00
2.529954001000000119e+00,-2.251546170370000155e+00,4.840747547790000382e+00,-6.790344030740000036e+00,9.178602695469999517e-01,-7.548956871030000348e-01,4.521541118620000077e+00,0.000000000000000000e+00
2.534935749999999821e+00,-1.478434722720000094e+00,5.296082793340000094e+00,-6.133778649099999924e+00,-3.565714880819999266e-02,-4.443360269070000257e-01,3.981368303300000022e+00,0.000000000000000000e+00
2.539958653999999871e+00,-1.424594995979999945e+00,6.658937664719999816e+00,-6.277828808119998882e+00,-6.130117774009999909e-01,-1.037850901479999977e-01,3.596761226650000420e+00,0.000000000000000000e+00
2.544926026000000174e+00,-3.390276936799999863e+00,6.841093974769999697e+00,-8.181063645120000061e+00,-1.092476248739999933e+00,1.943306177849999927e-01,3.183413743970000098e+00,0.000000000000000000e+00
2.549968808000000031e+00,-1.992050307790000030e+00,6.943865197930000122e+00,-1.030275944669999966e+01,-9.368392825130000823e-01,1.585889905689999990e-01,2.921459913250000096e+00,0.000000000000000000e+00
2.554971204000000107e+00,-2.552287066529999926e+00,7.280064068699999780e+00,-1.005371220520000008e+01,-3.457150459289999866e-01,8.775518089530000287e-02,2.800735712049999826e+00,0.000000000000000000e+00
2.559924223999999970e+00,-3.295458426209999736e+00,7.894153413660000673e+00,-1.007734091809999910e+01,3.190828263759999950e-01,-4.931285977359999712e-02,2.639903783799999903e+00,0.000000000000000000e+00
2.565009417999999819e+00,-3.083899203800000155e+00,7.693836008499999934e+00,-1.013891328489999921e+01,8.419675230979999370e-01,-1.279850155120000055e-01,2.530975818629999985e+00,0.000000000000000000e+00
2.569976286000000165e+00,-1.870867521879999940e+00,7.732149664800000544e+00,-9.166104025270000122e+00,1.207417130470000100e+00,-1.605542302129999988e-01,2.283286094670000210e+00,0.000000000000000000e+00
2.574950423999999849e+00,-3.319052652279999904e+00,7.897081868319999920e+00,-9.021234366569998997e+00,1.170060873029999948e+00,-3.701117634770000053e-02,1.988387346270000133e+00,0.000000000000000000e+00
2.579953259999999915e+00,-3.549134496590000243e+00,7.586343017499999952e+00,-8.512513275539998148e+00,9.336543679240000282e-01,7.353586703539999325e-02,1.626687169079999995e+00,0.000000000000000000e+00
2.585062132000000013e+00,-2.587247320749999968e+00,7.671137269950000004e+00,-8.947017622240000634e+00,7.042931318279999076e-01,8.701814711089998766e-02,1.199870824810000070e+00,0.000000000000000000e+00
2.589963658999999918e+00,-2.464741761800000042e+00,7.470520005060000024e+00,-8.755410762269999481e+00,6.702126860620000182e-01,1.292947381729999956e-01,8.866817355159999359e-01,0.000000000000000000e+00
2.595001798999999831e+00,-3.551704639340000025e+00,7.041416640619999612e+00,-8.585946760539998834e+00,8.781092166899999718e-01,2.022022008900000167e-01,6.166025996209999471e-01,0.000000000000000000e+00
2.599993206999999806e+00,-3.896068696389999975e+00,5.718890272500000371e+00,-8.481044370560001155e+00,1.246053814890000000e+00,1.801392585040000049e-01,4.600793421270000239e-01,0.000000000000000000e+00
2.605020377999999859e+00,-3.517995846479999855e+00,5.511591337890000553e+00,-7.952460641200000069e+00,1.726694583890000301e+00,9.407036751509999239e-02,3.009605109690000058e-01,0.000000000000000000e+00
2.610005475999999991e+00,-4.159368042900000617e+00,4.516012612589999975e+00,-7.419117150079999945e+00,2.018503665919999968e+00,6.229890137909999820e-02,2.799608409400000109e-01,0.000000000000000000e+00
2.614978520999999834e+00,-2.616176478109999870e+00,4.110857109969999534e+00,-6.733223967159999823e+00,2.138853549959999878e+00,-2.759915590290000151e-02,2.526778578760000005e-01,0.000000000000000000e+00
2.619929528000000118e+00,-2.739123935609999894e+00,3.942383288309999845e+00,-6.602766280160000001e+00,2.089380264279999899e+00,-3.074946999549999990e-02,2.184463739400000215e-01,0.000000000000000000e+00
2.624980421000000064e+00,-1.553418798160000058e+00,4.446810773810000228e+00,-6.934985141380000329e+00,1.924104213709999955e+00,-1.051728874439999961e-01,1.713095158340000035e-01,0.000000000000000000e+00
2.629963301000000087e+00,-1.824668665290000158e+00,5.126028424490000290e+00,-7.644092611160000494e+00,1.828476905820000109e+00,-1.999682039020000135e-01,5.944706499580000580e-02,0.000000000000000000e+00
2.634965445000000184e+00,-2.957762412220000248e-01,5.856609474929999948e+00,-7.957830643800000381e+00,1.834891676899999879e+00,-4.114724099639999744e-01,-7.121383398769999540e-02,0.000000000000000000e+00
2.640001385999999783e+00,-1.024449722739999791e+00,6.202531282809999880e+00,-8.046167098899999814e+00,2.019599199299999981e+00,-5.628612637520000739e-01,-2.488467991349999908e-01,0.000000000000000000e+00
2.645016135000000101e+00,-1.712937890600000124e+00,5.715872970510000428e+00,-8.532559453739999356e+00,2.253324747090000191e+00,-7.980774641040000450e-01,-3.134874403480000238e-01,0.000000000000000000e+00
2.649999833999999943e+00,-8.451602002979999861e-01,6.115089146199999881e+00,-8.022379396079999836e+00,2.596735477450000218e+00,-1.073333024979999939e+00,-4.693878889079999839e-01,0.000000000000000000e+00
2.655034597000000218e+00,-1.457984786010000144e+00,4.871820731449999720e+00,-6.958539035449999410e+00,2.752607583999999719e+00,-1.146935462949999929e+00,-4.854010045530000594e-01,0.000000000000000000e+00
2.659948686999999978e+00,-1.768147298249999944e+00,5.053139129369999871e+00,-6.956767349600000649e+00,2.849168300629999706e+00,-1.217754602429999888e+00,-5.847752690320000557e-01,0.000000000000000000e+00
2.665040096999999886e+00,-2.083478153040000169e+00,4.035397672100000221e+00,-6.156828100780000312e+00,2.852882623669999784e+00,-1.230811953539999948e+00,-6.146773099900000314e-01,0.000000000000000000e+00
2.669978758000000063e+00,-1.419854231189999982e+00,4.199710574680000974e+00,-6.239395909349999769e+00,2.814291715620000467e+00,-1.323464393620000124e+00,-7.688373923299999246e-01,0.000000000000000000e+00
2.675008720000000118e+00,-1.063427688169999996e+00,4.477950885219999400e+00,-6.319144568849999644e+00,2.797631263729999596e+00,-1.369455575939999781e+00,-8.504668474200000050e-01,0.000000000000000000e+00
2.679966449000000139e+00,-5.037969325029999501e-01,4.519667627959999656e+00,-6.172931094319999090e+00,2.836504220959999767e+00,-1.483052968980000053e+00,-8.801388144490001064e-01,0.000000000000000000e+00
2.684994607000000144e+00,-6.292183788949999856e-01,4.828915947959999677e+00,-6.621247108750000443e+00,2.904549598690000067e+00,-1.551646113400000138e+00,-8.894739151000000676e-01,0.000000000000000000e+00
2.690034585999999894e+00,5.005055628069999818e-01,5.156782459200000446e+00,-6.597013415720000218e+00,2.963669061660000104e+00,-1.723335146900000003e+00,-8.769788742069999365e-01,0.000000000000000000e+00
2.694996759999999991e+00,-1.663630217799999811e-01,5.062825826130000095e+00,-6.554791646069999977e+00,3.078161954879999662e+00,-1.828031897540000061e+00,-8.137912750239999493e-01,0.000000000000000000e+00
2.699925834000000080e+00,3.199761598409999741e-01,4.989101833750000381e+00,-6.804155113949999389e+00,3.131068229679999870e+00,-1.949247479440000097e+00,-8.014562129970000948e-01,0.000000000000000000e+00
2.704989605000000186e+00,3.216474905860000066e-01,5.020933726810000053e+00,-6.810987005790000381e+00,3.174829006199999970e+00,-2.061648845670000174e+00,-7.582927942280000000e-01,0.000000000000000000e+00
2.710022228000000144e+00,6.142913703329999642e-01,5.396912234789999374e+00,-6.577409136069999995e+00,3.192354440689999961e+00,-2.185051441190000165e+00,-7.609878182410000358e-01,0.000000000000000000e+00
2.715004536999999996e+00,4.854991323330000164e-01,5.282500258189999798e+00,-6.631833969209999680e+00,3.249981880190000005e+00,-2.324656486509999898e+00,-7.331578135490000037e-01,0.000000000000000000e+00
2.719942296999999787e+00,2.554363580540000012e-01,5.636992910540000068e+00,-6.853619694339999846e+00,3.314561128619999852e+00,-2.432637453079999901e+00,-6.972913146020000008e-01,0.000000000000000000e+00
2.724961906999999961e+00,5.484129403530000335e-01,6.306772578530000395e+00,-6.454688180800000730e+00,3.384192466740000071e+00,-2.553750276570000199e+00,-6.742132902150000939e-01,0.000000000000000000e+00
2.729970776000000043e+00,-1.497612301390000011e-01,6.158954591410000567e+00,-6.087742289589999523e+00,3.446967363359999759e+00,-2.594266653060000039e+00,-6.436355113980000153e-01,0.000000000000000000e+00
2.734997447000000026e+00,1.992661060099999992e-01,6.865855491059999594e+00,-6.099245095859999743e+00,3.511816263200000066e+00,-2.671570301059999597e+00,-6.789955496789998879e-01,0.000000000000000000e+00
2.740017743000000117e+00,-2.202857688909999889e-01,6.777983146340000431e+00,-5.676860226019999622e+00,3.572346925739999790e+00,-2.677489042279999953e+00,-6.788489818570000445e-01,0.000000000000000000e+00
2.744937998999999795e+00,-1.471356765419999935e-01,7.451070623699999729e+00,-5.452315557580000416e+00,3.641072273249999824e+00,-2.699317693709999855e+00,-7.572855949400000286e-01,0.000000000000000000e+00
2.749887719000000175e+00,2.475309369579999919e-01,8.013220522590000172e+00,-5.255557890730000459e+00,3.699989318849999709e+00,-2.712175607679999878e+00,-8.973634839059999591e-01,0.000000000000000000e+00
2.754938788000000027e+00,-4.944393946359999792e-02,8.191545876170000184e+00,-4.947261756880000583e+00,3.784367799760000040e+00,-2.674798250200000282e+00,-1.001102209089999917e+00,0.000000000000000000e+00
2.759934449999999817e+00,5.088966302619999382e-01,8.549144677839999318e+00,-4.806939678480000921e+00,3.839790344240000319e+00,-2.689472913739999971e+00,-1.154756426810000125e+00,0.000000000000000000e+00
2.764943240000000024e+00,5.644951468330000610e-01,8.470899993169998865e+00,-4.351702340350000142e+00,3.863055706019999924e+00,-2.628703594209999661e+00,-1.317208409310000050e+00,0.000000000000000000e+00
2.769935883000000043e+00,9.495630432539999832e-01,8.811146093499999665e+00,-4.090402935480000224e+00,3.858299970630000075e+00,-2.599833488459999842e+00,-1.529028773310000089e+00,0.000000000000000000e+00
2.774924674999999841e+00,1.106574902110000203e+00,8.960307896439999809e+00,-3.815710672819999427e+00,3.828099489209999984e+00,-2.570595264430000082e+00,-1.716615796089999924e+00,0.000000000000000000e+00
2.779944592000000103e+00,1.547764571789999932e+00,9.370714159189999393e+00,-3.640961716419999661e+00,3.781551122669999820e+00,-2.486558437350000261e+00,-1.916254997250000036e+00,0.000000000000000000e+00
2.784965885000000085e+00,1.932673989709999818e+00,9.440853278820000583e+00,-3.464544242280000574e+00,3.762293338780000163e+00,-2.418754100800000195e+00,-2.086016654969999884e+00,0.000000000000000000e+00
2.789953153999999991e+00,2.556649061129999900e+00,9.462626719219999316e+00,-3.294919789290000178e+00,3.701164484019999534e+00,-2.364452838899999687e+00,-2.243280410770000177e+00,0.000000000000000000e+00
2.794887915999999972e+00,3.464929149950000120e+00,9.642436173880000183e+00,-3.164503895609999784e+00,3.630191087719999654e+00,-2.321150779719999946e+00,-2.388873577120000036e+00,0.000000000000000000e+00
2.799901435999999855e+00,4.227400545640000118e+00,9.797118201540000015e+00,-3.236877057900000132e+00,3.562402725219999677e+00,-2.290148735049999829e+00,-2.508548974990000069e+00,0.000000000000000000e+00
2.804989598999999778e+00,5.067586172400000422e+00,9.956874463740000181e+00,-3.350494376989999967e+00,3.464419841769999842e+00,-2.256228446959999800e+00,-2.569205522539999897e+00,0.000000000000000000e+00
2.809950680000000034e+00,5.724147462380000384e+00,9.928349795519999077e+00,-3.447500168500000406e+00,3.387149810789999993e+00,-2.230155467990000417e+00,-2.578473567959999713e+00,0.000000000000000000e+00
2.814902479000000124e+00,6.322918826690000493e+00,9.840028537989999435e+00,-3.739479666050000262e+00,3.329478263850000008e+00,-2.193605661390000350e+00,-2.533681392670000143e+00,0.000000000000000000e+00
2.819954148999999965e+00,6.889680603280000426e+00,9.848788183029999033e+00,-4.003134109609999491e+00,3.282548904420000468e+00,-2.171126604079999911e+00,-2.487921714779999682e+00,0.000000000000000000e+00
2.824970582999999813e+00,7.134480708769999957e+00,1.009531847330000076e+01,-4.359544870549999729e+00,3.189861536030000000e+00,-2.112155199050000043e+00,-2.375930547709999896e+00,0.000000000000000000e+00
2.829966911000000085e+00,7.184913257410000753e+00,1.055867248240000045e+01,-4.985759537579999900e+00,3.066813707350000140e+00,-2.023434400559999791e+00,-2.308819293980000076e+00,0.000000000000000000e+00
2.834998101000000048e+00,7.273506317619999884e+00,1.166719486529999905e+01,-5.638416805859999492e+00,2.927043914790000478e+00,-1.923694372179999945e+00,-2.237898588179999759e+00,0.000000000000000000e+00
2.839992759999999894e+00,7.778128156639999347e+00,1.244797699369999933e+01,-6.217954477389999290e+00,2.818810462950000151e+00,-1.775289654729999889e+00,-2.194128990170000293e+00,0.000000000000000000e+00
2.844948011000000054e+00,8.547249073350000614e+00,1.282869012900000172e+01,-6.569341564939999323e+00,2.824691295620000542e+00,-1.700563192370000198e+00,-2.142910480500000325e+00,0.000000000000000000e+00
2.849968193000000038e+00,8.562090084130000278e+00,1.301773269140000089e+01,-6.660522303559999635e+00,2.888740062709999723e+00,-1.627601385119999966e+00,-2.033706665039999972e+00,0.000000000000000000e+00
2.854966977000000128e+00,8.734019599199999817e+00,1.294005908459999965e+01,-6.446396153280000263e+00,3.009881734849999990e+00,-1.606190085410000190e+00,-1.870880484580000003e+00,0.000000000000000000e+00
2.859947379999999928e+00,7.889557318039998712e+00,1.282750588769999922e+01,-6.137475165529999721e+00,3.134758710859999464e+00,-1.537522912029999800e+00,-1.642313838009999971e+00,0.000000000000000000e+00
2.864966401000000218e+00,7.442035668860000008e+00,1.265274553309999916e+01,-5.779594039790000082e+00,3.226356506349999709e+00,-1.476539015770000240e+00,-1.437962174419999961e+00,0.000000000000000000e+00
2.869962212999999984e+00,6.832783242540000579e+00,1.253623278480000103e+01,-5.369841272509999541e+00,3.303230762479999694e+00,-1.366198539729999828e+00,-1.274819850920000164e+00,0.000000000000000000e+00
2.874954051000000010e+00,6.264205356440000649e+00,1.246141982809999860e+01,-4.926437580039999986e+00,3.294883251190000362e+00,-1.240086078639999867e+00,-1.140123248100000097e+00,0.000000000000000000e+00
2.879981481999999815e+00,6.012955051900000569e+00,1.238028351369999847e+01,-4.551715794130000603e+00,3.234853982929999816e+00,-1.083584189410000009e+00,-1.056641101839999930e+00,0.000000000000000000e+00
2.884989356999999810e+00,5.725383726169999576e+00,1.239146074130000130e+01,-4.225732320169999667e+00,3.130649566650000271e+00,-9.124490618709999445e-01,-9.989012479780000620e-01,0.000000000000000000e+00
2.889964630000000145e+00,5.291593080700000229e+00,1.247859308130000144e+01,-4.257306731339999928e+00,3.010121583939999734e+00,-7.781745791440000115e-01,-9.701098799709999554e-01,0.000000000000000000e+00
2.894951008000000048e+00,5.026784790930000746e+00,1.270402330039999939e+01,-4.440324042139999428e+00,2.887882471079999736e+00,-6.354045867919999591e-01,-9.497816562649999961e-01,0.000000000000000000e+00
2.900001753999999821e+00,5.068008197200000176e+00,1.311160223069999908e+01,-4.762902091569999108e+00,2.765466928479999975e+00,-5.381181240079999650e-01,-9.506709575650000854e-01,0.000000000000000000e+00
2.905032015999999828e+00,5.432892479709999556e+00,1.487561447500000078e+01,-4.318393944990000399e+00,2.637157201770000015e+00,-3.524823486800000016e-01,-9.327608346940000628e-01,0.000000000000000000e+00
2.909950384000000057e+00,5.577909437929999825e+00,1.316054892470000048e+01,-3.142456898970000356e+00,2.573658227919999764e+00,-4.536631405349999535e-01,-9.137448668479999370e-01,0.000000000000000000e+00
2.914965755999999963e+00,5.369366640730000917e+00,1.325887836609999937e+01,-5.111414792729999768e+00,2.494758367540000243e+00,-2.444932758810000051e-01,-9.556826353069999280e-01,0.000000000000000000e+00
2.919959072000000155e+00,4.950585348349999748e+00,1.347614515249999911e+01,-5.864231640369998999e+00,2.361405849459999651e+00,-3.265810906889999865e-01,-9.777336716650000259e-01,0.000000000000000000e+00
2.924955041000000033e+00,5.004450794049999374e+00,1.230047406390000120e+01,-4.512493790809999794e+00,2.233188152309999897e+00,-2.953550219539999855e-01,-9.844637513160000575e-01,0.000000000000000000e+00
2.929966177999999921e+00,5.591817551769999284e+00,1.248983811339999939e+01,-4.746372104790000712e+00,2.054823160170000218e+00,-1.761313080790000152e-01,-1.102767467500000098e+00,0.000000000000000000e+00
2.934975881000000175e+00,5.213883233559999830e+00,1.268308806439999969e+01,-4.509136004820000210e+00,1.869899749759999841e+00,-1.967668533329999803e-01,-1.153377056120000077e+00,0.000000000000000000e+00
2.939960344000000170e+00,5.687664528630000049e+00,1.251791386880000090e+01,-5.161766092830000652e+00,1.621244430540000003e+00,-2.737637609240000172e-02,-1.254244923589999949e+00,0.000000000000000000e+00
2.944929006000000182e+00,5.975082125100000141e+00,1.257578971920000122e+01,-5.234484707560000061e+00,1.362046003339999922e+00,4.477890580889999639e-02,-1.362082719799999841e+00,0.000000000000000000e+00
