t,ax,ay,az,wx,wy,wz,zv
4.993716999999999948e-03,1.228388642869999992e-01,8.001687284649999787e-02,-9.821970318730000926e+00,-1.689407601949999976e-02,1.420972589400000020e-02,-1.735159754750000005e-02,1.000000000000000000e+00
9.950950999999999547e-03,8.402922289350000726e-03,9.083117625959999386e-02,-9.811177706560000544e+00,1.855779811740000326e-02,9.923461824659999750e-03,1.086017582570000112e-02,1.000000000000000000e+00
1.500942700000000053e-02,7.513176768599999500e-02,7.898817825270000592e-02,-9.807367792879999158e+00,9.683841839429999793e-03,-7.915406022219999976e-04,2.514817751940000203e-03,1.000000000000000000e+00
1.998609599999999833e-02,-1.113450039439999907e-02,1.099655733840000094e-01,-9.818313549790000039e+00,6.746600847690000825e-04,-3.382642054929999725e-03,1.704261638220000083e-02,1.000000000000000000e+00
2.497810099999999908e-02,8.695389643489999376e-02,9.078993093380000046e-02,-9.824864871129999955e+00,-7.815235294399999408e-03,2.083568833769999708e-03,-5.798896774649999961e-03,1.000000000000000000e+00
2.994639799999999907e-02,9.647275320999999793e-02,9.320388760719999777e-02,-9.803438636739999268e+00,-5.457874387499999681e-03,-7.212097290899999180e-03,-1.209118496629999970e-02,1.000000000000000000e+00
3.499053800000000158e-02,6.501922846719999927e-02,6.224948519270000202e-02,-9.814606511960001001e+00,6.477926857770000164e-03,-5.560293793679999983e-04,-1.176809147000000035e-02,1.000000000000000000e+00
3.995228700000000299e-02,1.926080911590000166e-02,9.785310165249999637e-02,-9.828811562929999468e+00,-7.269997149710000033e-05,4.779198206959999720e-04,5.447695031759999806e-03,1.000000000000000000e+00
4.499592200000000070e-02,5.995853384440000267e-02,8.739072608269998765e-02,-9.789008544850000604e+00,1.064788363869999949e-02,-1.145226880909999950e-03,1.652630791070000202e-02,1.000000000000000000e+00
5.000087400000000071e-02,1.074852278100000003e-01,8.008337134460000173e-02,-9.814777192350000234e+00,2.821089699860000397e-03,1.099974475799999837e-02,-4.045004956420000103e-03,1.000000000000000000e+00
5.499481299999999656e-02,5.835494827240000210e-02,6.460276118739999296e-02,-9.825960265149999984e+00,-2.733828965570000036e-03,-1.814329181800000126e-03,-1.069171633570000120e-02,1.000000000000000000e+00
5.996100900000000261e-02,3.299964907309999723e-02,8.749967548310000343e-02,-9.789293791529999567e+00,-2.360078273340000202e-03,-1.205533090979999875e-02,-1.730076852249999835e-03,1.000000000000000000e+00
6.498936399999999391e-02,1.014980431590000037e-01,9.066150051489998973e-02,-9.830299755660000471e+00,5.675596185030000588e-06,9.722563438120000387e-03,-2.040264755490000040e-02,1.000000000000000000e+00
6.998862699999999770e-02,4.244231250669999733e-02,9.083001634899999510e-02,-9.807842424649999558e+00,-3.659090492869999846e-03,-2.228119596840000272e-02,-5.271588452160000209e-03,1.000000000000000000e+00
7.494661499999999421e-02,3.274533866860000059e-02,1.218268924990000002e-01,-9.804152337969998854e+00,-2.360375830899999906e-03,2.387860324229999949e-03,8.961805142459998430e-03,1.000000000000000000e+00
7.994758799999999999e-02,1.023480110520000042e-01,1.161868225190000048e-01,-9.767231597330001236e+00,9.654511697590000691e-03,7.143236696720000126e-03,-1.045607402920000102e-02,1.000000000000000000e+00
8.497275599999999651e-02,1.924799758340000125e-02,8.748364679690000256e-02,-9.796102302499999581e+00,-9.903952013699999189e-04,-1.268076989800000047e-02,-5.932580679659999520e-04,1.000000000000000000e+00
8.997397899999999560e-02,4.971272820130000214e-02,7.527372887339998930e-02,-9.826286428360001324e+00,-7.752435631119999589e-04,-2.400631085040000074e-03,1.523876097049999727e-03,1.000000000000000000e+00
9.499035599999999802e-02,2.107761959679999714e-02,9.833350558060000024e-02,-9.786152570889999680e+00,8.632593788209998176e-03,1.539084827529999845e-03,2.016261219980000022e-03,1.000000000000000000e+00
9.999079299999999448e-02,5.772948701759999385e-02,7.678397360619999834e-02,-9.788193721329999875e+00,-1.795007847250000132e-03,1.818693429229999853e-02,1.334239263089999957e-03,1.000000000000000000e+00
1.049637769999999942e-01,4.723652907980000620e-02,9.097793691970000596e-02,-9.796687408909999562e+00,1.069329585879999836e-02,2.794600091869999837e-03,6.715851835910000185e-03,1.000000000000000000e+00
1.099464099999999944e-01,6.343162134900000304e-02,6.136752842610000008e-02,-9.785514272989999540e+00,-5.565378814939999329e-03,1.078489236529999937e-02,-4.824111238120000266e-05,1.000000000000000000e+00
1.150024320000000017e-01,5.816135279590000512e-02,6.835959297030000381e-02,-9.792231598549999916e+00,-4.322540480640000606e-03,-3.013259265569999813e-04,8.123843930659999102e-03,1.000000000000000000e+00
1.199593340000000008e-01,3.505617061099999821e-02,1.184816280579999992e-01,-9.786831200810000908e+00,1.929208822549999952e-02,8.589096833019998741e-04,1.080567296589999941e-02,1.000000000000000000e+00
1.249345409999999962e-01,7.355145795829999555e-02,8.381391790869999192e-02,-9.806881470669999601e+00,-1.020429562779999987e-02,-1.923264353539999843e-03,-5.844490602609999155e-03,1.000000000000000000e+00
1.299563340000000067e-01,2.416084013409999787e-02,9.588620375999999668e-02,-9.782200618400000991e+00,-4.632405936720000207e-03,-1.864650053900000163e-03,7.702725939450000107e-03,1.000000000000000000e+00
1.349259750000000035e-01,9.717228891470000574e-02,8.379211706889999611e-02,-9.801475227710000127e+00,6.808367324990000254e-04,-1.822935533710000160e-03,-1.122219488020000100e-02,1.000000000000000000e+00
1.399806409999999890e-01,5.744787533089999731e-02,9.690230373369999872e-02,-9.795785491639998455e+00,8.706216700379998050e-03,6.300117820500000451e-03,-6.726659834379999404e-03,1.000000000000000000e+00
1.449988919999999903e-01,3.510973427900000027e-02,8.630587172180000100e-02,-9.798234638350001191e+00,2.523147268219999486e-03,-4.663106519730000551e-04,-9.234530851239999838e-03,1.000000000000000000e+00
1.499702599999999941e-01,5.457784088650000087e-02,7.759599324189998815e-02,-9.823389537880000688e+00,1.189390383660000015e-02,-9.280988946559999217e-03,2.016035374249999703e-03,1.000000000000000000e+00
1.549839259999999941e-01,8.343417047669998698e-02,7.640677889079999785e-02,-9.827838918499999465e+00,7.630071602760000321e-03,-1.368091069159999874e-02,-6.952222436669999728e-03,1.000000000000000000e+00
1.599927029999999861e-01,4.447101902239999904e-02,8.509024885430001295e-02,-9.792854114360000750e+00,-2.431347407399999869e-02,-7.634955923999999471e-03,-3.863986348729999548e-03,1.000000000000000000e+00
1.649737159999999925e-01,9.388554059530001064e-03,8.724863246460000388e-02,-9.825749837269999176e+00,-1.075683999809999916e-02,-1.692958176139999771e-02,7.933566346760000457e-03,1.000000000000000000e+00
1.699879880000000065e-01,6.636167431839999631e-02,1.133371869750000038e-01,-9.823174433820000218e+00,1.999247819190000126e-03,-2.399649238209999858e-04,4.930227994920000252e-03,1.000000000000000000e+00
1.749491230000000119e-01,4.575398977130000489e-02,9.219127649859999718e-02,-9.799857271120000490e+00,-1.144323125479999870e-02,-2.823736984280000254e-03,3.752055577929999663e-03,1.000000000000000000e+00
1.799416640000000012e-01,6.381045089909999357e-02,1.098933027320000005e-01,-9.808832604739999184e+00,-2.897146041509999505e-04,1.642314344640000146e-02,2.042899373920000362e-03,1.000000000000000000e+00
1.849913820000000098e-01,5.299732566280000029e-02,1.067176683709999963e-01,-9.759016726689999643e+00,6.800004048269999877e-04,-2.179522998630000017e-03,1.138077955689999893e-02,1.000000000000000000e+00
1.899456300000000042e-01,7.837581850800000305e-02,9.576240385039999636e-02,-9.800973123410001264e+00,3.736139973629999840e-03,-4.539617337289999881e-03,-8.232433348890001029e-03,1.000000000000000000e+00
1.949720779999999931e-01,2.607632749979999984e-02,9.095501270189998433e-02,-9.801320329410000198e+00,4.841634072359999111e-03,-3.877397626639999748e-03,5.490404553709999670e-03,1.000000000000000000e+00
2.000054009999999993e-01,7.879413525160000598e-02,1.026570039359999964e-01,-9.814003285369999219e+00,-6.374935619530000194e-03,-5.320834927260000534e-03,4.004006739709999908e-03,1.000000000000000000e+00
2.049740760000000050e-01,1.071575393590000064e-01,1.089505511220000000e-01,-9.776859841889999458e+00,-3.148190444340000487e-03,3.248279914260000355e-03,-1.549933291970000127e-02,1.000000000000000000e+00
2.099874549999999895e-01,4.330138158800000275e-02,9.703643324110000634e-02,-9.780276956860001647e+00,-8.483453653750000489e-03,1.870549842720000203e-02,-3.767536953090000300e-03,1.000000000000000000e+00
2.149733550000000049e-01,3.889094930119999655e-02,1.016627139349999959e-01,-9.810282219019999417e+00,4.781200550499999959e-03,-5.415564868600000401e-03,-8.094070479270000507e-03,1.000000000000000000e+00
2.199629110000000110e-01,6.106538997460000257e-02,9.913859315209999634e-02,-9.805800689689998961e+00,-1.505409460510000186e-02,-3.760735504329999496e-03,2.491438761349999871e-03,1.000000000000000000e+00
2.249797169999999957e-01,3.029244507420000149e-02,1.042991451200000058e-01,-9.780477447870000063e+00,7.894220761950000026e-03,-5.956836044789999909e-03,2.612730488179999637e-03,1.000000000000000000e+00
2.299513990000000008e-01,5.251030019769999807e-02,9.912830922010000545e-02,-9.820366390660000278e+00,2.344017848370000007e-03,-1.114152488300000025e-03,1.067972276359999920e-03,1.000000000000000000e+00
2.349196070000000025e-01,3.891285973889999777e-02,8.986554609789999815e-02,-9.797208802440000142e+00,-6.877165869810000472e-04,-2.314182464030000320e-03,-9.081983007489998492e-04,1.000000000000000000e+00
2.399865790000000054e-01,5.408981534099999849e-02,6.337337008950000294e-02,-9.820685539619999460e+00,-9.348824387419999229e-04,-2.872733864929999728e-03,6.818253546949999862e-03,1.000000000000000000e+00
2.449484939999999888e-01,4.761197936269999376e-02,8.750882690389999441e-02,-9.780308521040000258e+00,4.089390859009999998e-04,-1.261916593650000114e-03,1.810492016379999791e-02,1.000000000000000000e+00
2.499615069999999994e-01,1.038701608520000014e-01,8.023125538269999801e-02,-9.794708802320000629e+00,-1.726602762940000063e-02,2.135731279850000032e-03,3.065501339729999764e-03,1.000000000000000000e+00
2.549507819999999869e-01,8.729335752229999690e-02,1.311985776219999900e-01,-9.818680629530000203e+00,-9.507388807830001107e-03,5.625884048640000280e-03,-8.016821928319999360e-03,1.000000000000000000e+00
2.600268059999999992e-01,4.128144290059999888e-02,7.665328729800000018e-02,-9.804790051350000368e+00,-5.633731372649998861e-03,1.507937442509999990e-03,-2.169396728280000193e-03,1.000000000000000000e+00
2.649597969999999969e-01,5.057317638899999634e-02,6.580228230340000317e-02,-9.815862064980001023e+00,-3.947212826459999685e-03,-1.519727334379999961e-02,6.157761439680001052e-03,1.000000000000000000e+00
2.699612940000000183e-01,6.359205890800000149e-02,7.178053929569999658e-02,-9.811205763610001185e+00,-4.741130396720000251e-03,2.400131896139999672e-03,9.122256189579999730e-03,1.000000000000000000e+00
2.749719649999999849e-01,8.944910165090000365e-02,9.325434828600000225e-02,-9.803054605860001658e+00,-7.668826729060000853e-03,2.896339632570000232e-03,-2.991843502969999849e-04,1.000000000000000000e+00
2.799442899999999845e-01,9.201274159389999374e-02,5.362331664059999392e-02,-9.838010768430001107e+00,-1.214104145770000115e-02,-6.870316341520001091e-03,1.881481148300000162e-04,1.000000000000000000e+00
2.849946239999999742e-01,1.787722867840000132e-02,6.712456671600000591e-02,-9.819317758389999540e+00,-4.944377578790000102e-03,-1.086985226720000100e-02,2.008959185329999876e-03,1.000000000000000000e+00
2.900182629999999984e-01,7.716167521160001430e-02,9.698711420669998973e-02,-9.779538121189998989e+00,1.672916300589999752e-02,-7.962981238960000277e-03,4.406691063199999828e-03,1.000000000000000000e+00
2.950250540000000088e-01,6.442384269019998944e-02,7.516138193960000824e-02,-9.842744226689999820e+00,-7.816954515869998718e-03,-9.300530888139998606e-03,-5.270839668810000690e-03,1.000000000000000000e+00
3.000377249999999774e-01,2.862195914529999663e-02,9.824864944189999616e-02,-9.793484813480000994e+00,-3.205597400670000350e-03,-1.162497792390000152e-02,-5.585575010630000961e-03,1.000000000000000000e+00
3.050363919999999895e-01,1.657074462310000051e-02,9.356625464619999777e-02,-9.787309924239998793e+00,5.530904047189999853e-03,6.048751063640000168e-03,-2.835982246320000334e-03,1.000000000000000000e+00
3.100137729999999925e-01,6.646780157399999334e-02,7.669798495630000823e-02,-9.796648245950001055e+00,-3.668081015349999602e-03,-1.145974360409999886e-02,-6.157219409939999714e-03,1.000000000000000000e+00
3.150244389999999894e-01,6.093452100340000094e-02,8.850546412529999851e-02,-9.804071089419998941e+00,4.753128625449999645e-03,-4.570097196850000237e-03,-3.521013306449999845e-03,1.000000000000000000e+00
3.200098760000000264e-01,6.743553692789999721e-02,9.203990359539998556e-02,-9.805466927699999502e+00,9.705554693939999131e-04,1.824912801379999922e-02,-1.119770575309999910e-03,1.000000000000000000e+00
3.250329510000000144e-01,2.691161156349999861e-02,9.100548251380000120e-02,-9.805393862460000776e+00,-2.901561325420000392e-03,-3.478051628920000079e-03,-2.937973476949999881e-05,1.000000000000000000e+00
3.299888080000000223e-01,5.360050658719999611e-02,1.133933650090000050e-01,-9.817174901150000466e+00,7.910327054560000598e-03,3.525560721760000356e-03,2.872759941969999734e-03,1.000000000000000000e+00
3.350142859999999945e-01,2.202351301159999677e-02,1.018358237460000038e-01,-9.787792154789999088e+00,-5.434625782069999259e-03,1.862590387459999927e-02,1.023214403539999921e-02,1.000000000000000000e+00
3.400523160000000211e-01,1.143753252509999985e-01,7.182181202100000605e-02,-9.806434311420000327e+00,1.794719509779999986e-02,1.535337325190000088e-02,-1.268576364960000147e-02,1.000000000000000000e+00
3.450591310000000189e-01,2.969714834549999627e-02,9.092749450729999128e-02,-9.805986567659999764e+00,1.354375854130000128e-03,-4.007642855869999717e-04,-2.646307460960000291e-03,1.000000000000000000e+00
3.500843049999999845e-01,4.764062550180000327e-02,7.419454620139999401e-02,-9.812068517920000232e+00,-1.773875392970000048e-02,-3.014623653140000113e-03,2.368793357159999606e-03,1.000000000000000000e+00
3.550616509999999781e-01,9.768817514810002045e-02,9.100309876049998692e-02,-9.776436648039998900e+00,-1.182192703710000089e-03,-1.224671397360000032e-02,3.407603595409999884e-03,1.000000000000000000e+00
3.599863159999999729e-01,7.104129720169999329e-02,6.197549055689999947e-02,-9.851238498789999909e+00,1.410579401999999781e-02,1.196733955289999880e-02,-5.492571741339999716e-03,1.000000000000000000e+00
3.649531169999999936e-01,5.046219942829999888e-02,1.101455421939999957e-01,-9.789083363650000535e+00,5.127326585350000868e-03,-6.146291270850000321e-03,-1.195850316439999936e-02,1.000000000000000000e+00
3.699891120000000089e-01,3.546401619290000251e-02,9.568325593330000156e-02,-9.798231715739998293e+00,-2.315033925699999488e-03,3.534053452309999892e-03,4.951952956619999277e-03,1.000000000000000000e+00
3.749912069999999931e-01,4.180961322680000480e-02,1.005984183049999925e-01,-9.785919931180000475e+00,1.280225347730000029e-03,2.851455472410000143e-03,1.136510632929999855e-02,1.000000000000000000e+00
3.799316859999999907e-01,4.604335550619999967e-02,6.948235905560000425e-02,-9.817263748469999385e+00,7.042301818729999538e-03,-6.299494765699999166e-03,4.337419755760000065e-03,1.000000000000000000e+00
3.849491139999999811e-01,5.579723574680000436e-02,7.792734408819999847e-02,-9.793009012660000678e+00,6.211322033780000034e-05,-8.434691466390000641e-03,5.251743830739999917e-03,1.000000000000000000e+00
3.899786439999999854e-01,6.705452455389999955e-02,7.420602657670000157e-02,-9.814209037080001252e+00,-2.998189534989999846e-03,1.259805867449999978e-03,-3.904994577169999901e-03,1.000000000000000000e+00
3.949772770000000155e-01,4.530834662940000368e-02,1.134082794499999963e-01,-9.820406138150000075e+00,-4.170012194659999775e-03,-4.089345689860000160e-03,-2.880479674789999944e-03,1.000000000000000000e+00
3.999667350000000177e-01,7.933487279849998908e-02,1.014826629270000058e-01,-9.812766437049999624e+00,-9.124077856540001655e-03,1.602775976059999871e-02,-5.260073114189999129e-03,1.000000000000000000e+00
4.049451079999999981e-01,5.420982955799999448e-02,1.005124113890000087e-01,-9.789917476389998541e+00,2.919987309720000162e-04,2.029243391010000005e-03,2.143956720829999670e-03,1.000000000000000000e+00
4.099399140000000163e-01,8.266596258319999779e-02,7.424496578099999688e-02,-9.798311210719999664e+00,-8.885744959120001410e-03,-4.121733829380000262e-03,-9.183934889730000981e-04,1.000000000000000000e+00
4.149813549999999962e-01,7.017881688720000420e-03,8.610296042770000657e-02,-9.823181448080001488e+00,1.947224140169999959e-03,-8.724382147190000783e-03,9.030230343339998994e-03,1.000000000000000000e+00
4.199799000000000171e-01,7.980522112349999753e-02,1.005307872959999987e-01,-9.798692903519999220e+00,-7.205577567220000472e-03,-1.848765462640000051e-02,-1.004719547929999908e-02,1.000000000000000000e+00
4.249933410000000245e-01,2.182546512229999874e-02,1.171284507499999877e-01,-9.804785959689999331e+00,-1.675387960859999826e-03,1.130818389360000072e-02,5.635810084639999648e-04,1.000000000000000000e+00
4.299590099999999748e-01,3.722929056609999843e-02,4.658771434880000506e-02,-9.842769945649999741e+00,-5.950492806729998710e-03,-2.757602836940000000e-03,8.786791004239999370e-03,1.000000000000000000e+00
4.350057769999999824e-01,9.622119873489999586e-02,9.195162252380000012e-02,-9.816168354450001132e+00,-1.985163986679999715e-02,-7.519755512479999772e-03,-4.116015974430000009e-03,1.000000000000000000e+00
4.400138920000000176e-01,6.399837468659999584e-02,8.848749921029999688e-02,-9.802633165569998752e+00,2.253604494040000253e-02,-2.708132145930000102e-03,-7.310357410460000156e-03,1.000000000000000000e+00
4.449857019999999830e-01,7.884638602869999124e-02,7.423047146480001024e-02,-9.797961666630000011e+00,-5.670397542420000173e-03,-7.267977576699999505e-03,-1.452461816370000103e-02,1.000000000000000000e+00
4.500066529999999787e-01,3.779698233530000284e-02,5.751957059389999766e-02,-9.806447170900000287e+00,-3.881778800860000069e-03,-1.402167044579999931e-02,-2.789135556669999905e-03,1.000000000000000000e+00
4.549942069999999839e-01,5.794202922310000281e-02,7.632141129539998792e-02,-9.827256734700000607e+00,-4.261755384500000299e-03,-1.430988125500000027e-02,5.511542782189999753e-03,1.000000000000000000e+00
4.599998949999999920e-01,6.286792761829999854e-02,5.140944911659999644e-02,-9.824366858480001241e+00,-6.015251390639999619e-03,8.862523362040001032e-03,5.608689971270000227e-03,1.000000000000000000e+00
4.650192009999999931e-01,1.160186902770000000e-01,1.037287430870000027e-01,-9.813675953110001515e+00,4.085115157070000509e-03,-5.476507823909999503e-03,-6.307390518489999591e-03,1.000000000000000000e+00
4.699510120000000013e-01,2.623085819109999967e-02,7.639337598650000616e-02,-9.823366157000000598e+00,-1.313254237170000116e-02,7.233783602709999670e-03,1.267690770329999925e-02,1.000000000000000000e+00
4.749830640000000104e-01,8.742682944260000977e-02,1.040105191709999877e-01,-9.795928699500001002e+00,-6.403692997990000427e-03,-5.364262498919999782e-03,-2.935306401920000259e-03,1.000000000000000000e+00
4.800175890000000223e-01,3.610244881050000271e-02,9.924080228439999263e-02,-9.794894095750001028e+00,1.035934034729999939e-02,8.558413945140000076e-03,1.063504721970000115e-02,1.000000000000000000e+00
4.849663320000000000e-01,9.825631215859999268e-02,9.721887713589999480e-02,-9.753159232830000747e+00,-4.111075773840000384e-03,1.228210283439999965e-03,-6.833940744400000128e-03,1.000000000000000000e+00
4.900256869999999876e-01,4.941321553180001019e-02,4.913379123560000089e-02,-9.816896668730000997e+00,-1.270010322329999906e-02,1.649280264970000298e-02,-5.375490058209999450e-03,1.000000000000000000e+00
4.949554829999999739e-01,8.898296371020000817e-02,8.938527003400000004e-02,-9.821938754550000539e+00,3.434229874979999927e-03,1.428749691690000059e-02,-3.635249799119999892e-03,1.000000000000000000e+00
4.999879649999999787e-01,9.333038179739998330e-02,7.514431664039998571e-02,-9.819371534410000990e+00,2.918471349399999991e-03,-2.764112781730000169e-03,-5.446898750960000278e-03,1.000000000000000000e+00
5.049686110000000117e-01,2.876595245960000130e-02,1.028555221829999949e-01,-9.797907306100000824e+00,3.868038067589999861e-03,1.310123596339999967e-02,1.518184784799999840e-03,1.000000000000000000e+00
5.099679419999999519e-01,4.107889693269999726e-02,7.160305470380000370e-02,-9.833631530429999046e+00,4.402163438499999935e-03,1.297559030349999983e-02,4.948251880709999585e-03,1.000000000000000000e+00
5.149513850000000392e-01,6.888529734480000610e-02,6.809723397330000316e-02,-9.813075064610000453e+00,3.510962473229999742e-03,1.350072398779999898e-02,1.067315228279999868e-02,1.000000000000000000e+00
5.199680140000000339e-01,9.144896109810000950e-02,8.094833587719998946e-02,-9.842788650350000168e+00,-2.407332882290000049e-03,6.537745706739999177e-03,1.295164227490000052e-03,1.000000000000000000e+00
5.249238969999999727e-01,5.965241333759999792e-02,7.650785094539999664e-02,-9.813598796219999087e+00,1.999549102039999918e-03,2.989169675859999764e-03,-1.017301809039999894e-03,1.000000000000000000e+00
5.299168629999999602e-01,9.958391663370000368e-02,6.458343543239999929e-02,-9.809293207989998820e+00,1.502936473119999847e-03,-2.308470662679999817e-03,-1.402009557929999838e-02,1.000000000000000000e+00
5.349882449999999734e-01,3.580672183349999788e-02,1.028635136930000082e-01,-9.790046071200000810e+00,-5.482314154509999697e-03,-1.372846541930000056e-03,-2.094566123559999868e-03,1.000000000000000000e+00
5.399498299999999640e-01,4.768968424140000023e-02,8.262942083190000231e-02,-9.793364401970000799e+00,1.398500986400000139e-02,-4.107720684259999824e-03,1.770997885609999897e-03,1.000000000000000000e+00
5.449520169999999553e-01,6.413357277310000049e-02,9.600444157849999383e-02,-9.755570385630001340e+00,1.483925618230000050e-03,-5.320939701050000394e-03,2.296531572940000224e-03,1.000000000000000000e+00
5.499680270000000260e-01,6.259156292890000195e-02,8.980491108499999431e-02,-9.785313197460000723e+00,-2.082339953630000379e-03,-8.767447434370001166e-03,2.905483357610000143e-03,1.000000000000000000e+00
5.549820220000000193e-01,4.073565928580000217e-02,9.454465295800000557e-02,-9.793280815339999279e+00,-1.088467240329999905e-02,7.978786714380001199e-03,7.365112192930001016e-03,1.000000000000000000e+00
5.600008920000000279e-01,8.153277556839999551e-02,9.931301813729999373e-02,-9.782086052110001262e+00,5.376410670580000252e-03,-9.703296236690001075e-03,3.279728814960000075e-03,1.000000000000000000e+00
5.649842510000000484e-01,3.475433812019999846e-02,1.027832880639999863e-01,-9.806257785810000627e+00,3.679403336719999900e-03,-1.773695275190000087e-02,7.179035805170000395e-03,1.000000000000000000e+00
5.699160260000000200e-01,7.675346887000000784e-02,1.063440766850000108e-01,-9.795193370959999868e+00,-9.623046964409999460e-03,7.928768172859999852e-03,4.349735099819999895e-03,1.000000000000000000e+00
5.749287330000000251e-01,4.646316552059999438e-02,1.052259319749999922e-01,-9.792414553900000485e+00,9.438236244020001275e-03,-5.230782553549999901e-03,1.024885382499999935e-02,1.000000000000000000e+00
5.799607209999999569e-01,7.320941675480001354e-02,8.761678079040000067e-02,-9.772702722210000914e+00,1.264958176760000138e-03,-2.577938372270000087e-03,-6.147335283459999695e-03,1.000000000000000000e+00
5.849879970000000373e-01,4.117437036350000273e-02,1.219347915860000131e-01,-9.792088975209999546e+00,-9.593890979889999754e-03,-4.246731754390000238e-03,-5.345017649230000140e-03,1.000000000000000000e+00
5.899082589999999904e-01,4.223798100700000557e-02,5.994005290619999760e-02,-9.809508312040000177e+00,1.005683559920000046e-02,-1.072354149070000109e-02,-5.619965493679999861e-03,1.000000000000000000e+00
5.949738869999999791e-01,2.139804947350000194e-02,1.077488563159999940e-01,-9.780189863099998604e+00,-3.155214071740000052e-04,-5.635500885550000401e-03,7.606246508660000072e-03,1.000000000000000000e+00
5.999561190000000099e-01,8.501807866730000385e-02,7.410647519230000035e-02,-9.813754279050000306e+00,-1.166564691810000054e-02,-6.703698541970000251e-03,-4.608695395289999844e-03,1.000000000000000000e+00
6.049653270000000527e-01,1.605321784679999975e-02,9.667779252920000177e-02,-9.828597627909999801e+00,-2.185351680960000067e-03,9.902094490830000081e-03,3.862776793540000260e-03,1.000000000000000000e+00
6.099555829999999679e-01,3.565533294740000358e-02,9.432109160150001226e-02,-9.820614227939998386e+00,-4.439615644510000111e-03,4.703553859140000536e-03,9.042353369299998070e-03,1.000000000000000000e+00
6.149889219999999934e-01,5.871923784040000011e-02,9.802062197289999890e-02,-9.802921334869999725e+00,2.404231345280000121e-04,6.370362825689999085e-03,5.568208172920000205e-03,1.000000000000000000e+00
6.199612730000000349e-01,8.096526874560000531e-02,7.302041982160001332e-02,-9.806273567899999932e+00,8.611323311919999099e-03,-1.206370303410000044e-03,-1.006928458810000052e-02,1.000000000000000000e+00
6.250028810000000101e-01,4.927223615849999488e-02,1.396379320649999978e-01,-9.799941442270000636e+00,-8.945647627120001041e-03,-7.212343625719999434e-04,-3.500559832900000147e-03,1.000000000000000000e+00
6.300221940000000354e-01,3.077172105770000290e-02,5.502607327780000002e-02,-9.829611188870000404e+00,1.417298335579999765e-03,2.686400897800000388e-03,-4.381125327199999987e-04,1.000000000000000000e+00
6.349633890000000447e-01,9.584932408210000698e-02,9.100443220100000452e-02,-9.775214412769999583e+00,5.013672634960000644e-03,9.172981604930000379e-03,-5.780389532450000249e-03,1.000000000000000000e+00
6.400049899999999958e-01,5.103698994190000032e-02,1.193969619380000069e-01,-9.809999310429999397e+00,-1.596182398499999822e-02,-5.348611157389999982e-03,-9.442392736670000147e-03,1.000000000000000000e+00
6.449579669999999654e-01,5.484620493250000339e-02,6.691375524319999324e-02,-9.820822317739999363e+00,-1.021600142120000082e-02,1.062945183369999949e-02,-6.953297182920000104e-03,1.000000000000000000e+00
6.499790130000000499e-01,4.545869661919999666e-02,9.674082042850000451e-02,-9.811402162960000339e+00,4.829793469980000207e-04,-1.367821265010000023e-02,-1.248920103540000076e-03,1.000000000000000000e+00
6.549918879999999666e-01,5.235537449749999572e-02,1.041054948440000016e-01,-9.787423906000000784e+00,-1.175259239969999973e-02,-1.312160119410000006e-02,-2.016021870079999587e-03,1.000000000000000000e+00
6.600140289999999466e-01,9.588500731679999722e-02,1.038302854990000024e-01,-9.798432791269998887e+00,-8.680772036309998205e-03,5.891365930440000190e-03,6.259744986889999871e-04,1.000000000000000000e+00
6.649843180000000187e-01,9.886333814099998452e-02,9.663873916040000012e-02,-9.813293675800000671e+00,-1.339570386339999919e-03,-3.910574596380000066e-03,-8.701450191440000467e-03,1.000000000000000000e+00
6.699610289999999857e-01,7.158103923479999797e-02,1.097833578179999992e-01,-9.809570271360000149e+00,1.150879543269999958e-02,1.438713539389999997e-02,-8.273385465149999535e-03,1.000000000000000000e+00
6.750769639999999461e-01,3.818221650990000215e-02,1.243659459900000180e-01,-9.771646491160000281e+00,-8.094495162369999552e-03,4.642868880180000147e-04,1.179572381079999933e-02,1.000000000000000000e+00
6.800496929999999551e-01,8.432953014749999809e-02,9.213520806289998699e-02,-9.787926010310000535e+00,1.857799710710000005e-03,4.785365890709999872e-04,4.997111856940000124e-03,1.000000000000000000e+00
6.850705620000000495e-01,7.382899169150000662e-02,1.160860472920000053e-01,-9.767899121319999267e+00,5.718480795620000182e-03,-1.134789176289999896e-02,4.997837357219999874e-03,1.000000000000000000e+00
6.900332630000000078e-01,6.722504054890000857e-02,1.159553883830000132e-01,-9.793411163720000090e+00,9.349053725599999753e-03,-6.009954959149999519e-03,-4.483082797379999915e-03,1.000000000000000000e+00
6.950782429999999845e-01,1.495210190420000196e-02,7.787253602789999396e-02,-9.802242704950000274e+00,-1.279296120629999992e-03,-6.401486694810000835e-03,5.041910335420000076e-03,1.000000000000000000e+00
6.999911250000000473e-01,1.528994414000000093e-02,6.117175469219999356e-02,-9.821453601380000009e+00,-8.749777451160000233e-03,1.160793285820000027e-02,-2.241292269900000116e-03,1.000000000000000000e+00
7.049447930000000140e-01,3.486508903530000092e-02,9.815820381260000060e-02,-9.788501764369998526e+00,-6.200603209439999042e-03,-2.176849404349999895e-03,4.637690261009999940e-03,1.000000000000000000e+00
7.099198490000000472e-01,3.673181448889999839e-02,7.665575324980000715e-02,-9.797985632030000502e+00,-4.512280691419999837e-03,-1.591871026899999934e-03,1.220558583739999974e-02,1.000000000000000000e+00
7.148981540000000079e-01,5.866623814469999754e-02,7.055826749169999412e-02,-9.816922387689999141e+00,9.932913817469999490e-03,-1.000170595939999831e-02,6.682162173089999969e-03,1.000000000000000000e+00
7.200063150000000078e-01,4.929713313780000744e-02,1.003383243309999978e-01,-9.808975228080001330e+00,8.968132548030000040e-03,-1.739671919489999908e-03,9.242591448129998041e-03,1.000000000000000000e+00
7.249359330000000323e-01,1.054556399449999987e-01,7.889666404440000280e-02,-9.816880302110000400e+00,8.568505290900000401e-04,3.727634437379999909e-03,-2.189672924579999860e-02,1.000000000000000000e+00
7.299658770000000407e-01,3.434698801190000372e-02,7.285990463079999868e-02,-9.820867910439998738e+00,4.475106485189999685e-03,3.819796256720000161e-03,-8.906861767169999694e-03,1.000000000000000000e+00
7.349613040000000375e-01,4.788251253290000398e-02,9.338290656910000487e-02,-9.779690096880001349e+00,-5.330023122950000580e-04,2.191804815079999747e-04,4.729324020450000228e-03,1.000000000000000000e+00
7.399840300000000148e-01,8.179091504799999857e-02,8.230035327430000602e-02,-9.821500363130001077e+00,5.666375160219999998e-03,-1.575245708230000111e-02,3.367340192199999756e-03,1.000000000000000000e+00
7.449721430000000311e-01,4.098342350180000232e-02,9.935892137189998585e-02,-9.790652804920000563e+00,-9.369743987920000836e-03,2.945737447590000141e-03,2.863123081619999791e-03,1.000000000000000000e+00
7.499610180000000348e-01,6.729265329189999811e-02,7.741274562949999882e-02,-9.838057530180000398e+00,-3.173650009560000009e-03,-1.120601315050000039e-02,6.999782286579999714e-03,1.000000000000000000e+00
7.550393949999999466e-01,8.252701077019999887e-02,1.003073629370000025e-01,-9.812553671089998986e+00,-6.874497048559999801e-04,1.315923500810000160e-02,-7.387192919849999879e-03,1.000000000000000000e+00
7.600274689999999556e-01,7.706237955560001074e-02,8.620166242860000105e-02,-9.784441675320000087e+00,-3.238032571969999638e-03,1.248400285839999964e-02,-8.083732798699999958e-03,1.000000000000000000e+00
7.650082889999999525e-01,2.215974999439999926e-02,1.145597693060000088e-01,-9.812801508370000647e+00,-8.415674790740000979e-03,3.520090598609999701e-03,1.086486969139999897e-02,1.000000000000000000e+00
7.699770879999999762e-01,5.316267229240000114e-02,8.638284594810000105e-02,-9.776377026810001425e+00,1.451950520280000101e-03,1.006612088529999999e-03,6.505000405009999861e-03,1.000000000000000000e+00
7.749602949999999657e-01,4.513513178719999464e-02,5.972336881510000028e-02,-9.834559751189999588e+00,-5.609624087810000277e-03,-5.206585861740000223e-03,4.716264083979999563e-03,1.000000000000000000e+00
7.799841220000000019e-01,6.748875125269999942e-02,8.238520027989999772e-02,-9.814168120549998875e+00,5.505814217029999375e-03,4.817026201640000130e-03,7.607482373710000058e-03,1.000000000000000000e+00
7.850035380000000007e-01,6.859113213720000046e-02,1.061744009400000105e-01,-9.814315420059999795e+00,-1.114652259279999861e-04,1.914380118249999830e-04,9.521963074799999135e-03,1.000000000000000000e+00
7.900463599999999476e-01,6.523501750919999398e-02,1.019505909659999959e-01,-9.764531690720000157e+00,-4.567920695989999627e-03,1.820016186679999622e-04,-1.458855229430000176e-03,1.000000000000000000e+00
7.949906190000000095e-01,-7.438732882720000376e-03,7.783470650179999395e-02,-9.808103121420000292e+00,6.501396186649999707e-03,-5.896087735889999487e-03,1.764523237940000128e-02,1.000000000000000000e+00
7.999537239999999771e-01,9.595867534119999209e-02,6.695386805790000395e-02,-9.812716168169998809e+00,8.665309287610001299e-03,-2.831121906639999866e-03,3.454854711889999899e-03,1.000000000000000000e+00
8.049993050000000538e-01,6.726173299729999722e-02,1.063463599730000153e-01,-9.792947637859999332e+00,-1.727453619240000224e-02,1.031059864910000012e-02,7.908404804769999727e-03,1.000000000000000000e+00
8.100125590000000209e-01,5.141112048390000105e-02,1.027156205220000063e-01,-9.805658066350000368e+00,-1.345310360189999957e-03,-1.957254949959999837e-03,1.368623040620000134e-02,1.000000000000000000e+00
8.149904999999999511e-01,6.897525435029999707e-02,9.834965299780000503e-02,-9.765870830369999922e+00,4.766732454300000484e-04,-8.242547512049998998e-03,3.817555494610000346e-03,1.000000000000000000e+00
8.199893590000000287e-01,1.167591881800000009e-01,9.219712171749999685e-02,-9.780769124289999894e+00,9.880466386679999727e-03,1.867711171509999629e-02,-1.950083300470000294e-02,1.000000000000000000e+00
8.250041580000000430e-01,3.355757521680000077e-02,1.027637796460000030e-01,-9.798605225230000215e+00,1.943336334079999927e-03,-5.868132226170000125e-03,-2.781150629740000192e-03,1.000000000000000000e+00
8.299892439999999594e-01,1.826761966040000087e-02,8.027391634750000171e-02,-9.797629073679999578e+00,2.833742182699999757e-04,-4.584795096890000162e-04,7.520019076760000448e-03,1.000000000000000000e+00
8.349826120000000129e-01,7.767150616360000981e-02,8.680043203939998009e-02,-9.845777895299999471e+00,-3.541698679329999613e-03,4.341709893200000094e-03,1.497267372910000144e-02,1.000000000000000000e+00
8.400023530000000349e-01,1.045389908909999943e-01,7.382214182559999893e-02,-9.842663562669999422e+00,4.181330092249999769e-03,-9.786695241930000108e-03,-2.358215395360000258e-03,1.000000000000000000e+00
8.449851959999999940e-01,4.125889770860000083e-02,9.105377863489998169e-02,-9.784868960820000794e+00,-3.181427309760000437e-04,7.678677327930000934e-03,1.207767985760000102e-03,1.000000000000000000e+00
8.500104050000000244e-01,6.228907285100000052e-02,1.016089379219999866e-01,-9.800562789039998890e+00,3.833308583130000131e-03,-1.677107997239999856e-02,-4.053655546159999797e-03,1.000000000000000000e+00
8.549898529999999663e-01,7.232572925539999809e-02,1.122810289860000088e-01,-9.795308521769999999e+00,-1.892238110299999942e-02,1.222352497279999848e-03,-3.357240231710000196e-03,1.000000000000000000e+00
8.600105580000000360e-01,1.436569630139999942e-02,1.016330311830000027e-01,-9.803723298899999605e+00,9.170079138130000527e-04,9.428751654920001016e-03,8.491303771729999741e-03,1.000000000000000000e+00
8.650277079999999508e-01,5.196914252569999337e-02,8.134735426530000091e-02,-9.813007260070000015e+00,-6.653239019219999752e-03,-9.606368839740000304e-03,-8.436613716190000025e-04,1.000000000000000000e+00
8.700171530000000431e-01,5.787327483590000432e-02,6.376110903170000010e-02,-9.779747380030000770e+00,2.710561966520000105e-03,9.860770776870000226e-03,-8.405760861930001299e-03,1.000000000000000000e+00
8.749975110000000056e-01,4.594880909049999657e-02,8.278648369030000564e-02,-9.777681095149999280e+00,7.056231610479999500e-03,-6.777909584340000362e-03,-6.679401732980000221e-03,1.000000000000000000e+00
8.799931610000000237e-01,1.077775709529999945e-02,9.929354625180000782e-02,-9.792264331769999330e+00,-8.459087694060000995e-04,4.207659512760000028e-04,1.553645543749999913e-02,1.000000000000000000e+00
8.849852369999999802e-01,1.011291002490000007e-01,4.326673039969999163e-02,-9.806220376409999773e+00,-9.794994257389999515e-03,2.304731868209999954e-03,-7.576541975140000003e-03,1.000000000000000000e+00
8.899725450000000038e-01,5.208576377589999723e-02,8.015465561569999620e-02,-9.802993815580000714e+00,1.011414267120000141e-02,4.041499923910000201e-03,-4.155662376430000089e-03,1.000000000000000000e+00
8.950340289999999532e-01,3.822315587510000112e-02,9.086461273839999131e-02,-9.805252992679999835e+00,-1.191575266420000050e-02,-4.368442110720000167e-03,2.757664769889999791e-03,1.000000000000000000e+00
9.000277460000000174e-01,5.591837334180000535e-02,8.855379677899999358e-02,-9.796918879580001516e+00,-3.456484060729999707e-03,-6.702123209830000532e-05,1.251496840270000009e-03,1.000000000000000000e+00
9.049802190000000301e-01,7.616326159170000443e-02,1.145597693060000088e-01,-9.812801508370000647e+00,-1.453647855670000101e-03,-4.962924867869999458e-03,-7.334841880949999511e-03,1.000000000000000000e+00
9.100248779999999815e-01,6.026324327890000138e-02,9.793346427919999431e-02,-9.803584182689998983e+00,-8.403287269180000074e-03,2.891759388149999811e-03,-7.746042683719999149e-06,1.000000000000000000e+00
9.149837920000000180e-01,2.717767862109999807e-02,8.841624233869999072e-02,-9.820255331500000295e+00,-1.132633187809999997e-04,-3.496281569820000601e-03,3.955121617760000950e-03,1.000000000000000000e+00
9.200087559999999831e-01,7.739067079500000501e-02,7.033237718080000145e-02,-9.833128841599998893e+00,3.981154412030000166e-03,-3.718313295389999787e-03,1.060781069100000034e-03,1.000000000000000000e+00
9.250233909999999726e-01,8.251413302229999858e-02,8.484278603240000272e-02,-9.808011935999999764e+00,-1.451145973989999803e-03,-2.805246040229999842e-03,-7.341134361920000941e-03,1.000000000000000000e+00
9.300907459999999682e-01,4.629037080350000694e-02,8.595977996419999767e-02,-9.820829332000000633e+00,-6.523397751150000062e-03,1.606506481770000189e-02,-2.772400621319999741e-03,1.000000000000000000e+00
9.350343220000000288e-01,6.869880289589999633e-02,9.911465515410000648e-02,-9.798082662660000608e+00,2.838344080369999741e-03,3.090624231849999418e-03,8.202767930920000505e-03,1.000000000000000000e+00
9.399872910000000026e-01,6.815857680570000521e-02,9.552636660489999265e-02,-9.809356336349999594e+00,1.282084267589999986e-02,-1.454990589989999970e-03,8.426903747020000890e-03,1.000000000000000000e+00
9.450168820000000025e-01,7.985969125710000449e-02,9.324189066320000274e-02,-9.797478851550000201e+00,1.015346776689999946e-02,-1.465449761600000171e-02,3.902851603929999909e-03,1.000000000000000000e+00
9.500094749999999921e-01,5.121159302349999332e-02,8.149752159199999402e-02,-9.790690214319999640e+00,5.160211585460000409e-03,-1.710427179929999847e-02,1.087617129089999898e-03,1.000000000000000000e+00
9.549912109999999510e-01,8.591368493329999689e-02,8.692197605979999631e-02,-9.833709856360000501e+00,5.044460296629999820e-03,-5.339937750249999608e-03,1.914095599199999937e-03,1.000000000000000000e+00
9.600038239999999501e-01,4.695934697309999545e-02,7.389208352300000171e-02,-9.836559985099999182e+00,-1.984174363319999961e-03,1.121346931900000024e-02,1.151143945749999974e-02,1.000000000000000000e+00
9.650889729999999611e-01,9.969508539059999952e-02,8.852051556389999021e-02,-9.789370363899999816e+00,-6.733404472470000748e-03,-9.409940801559999249e-03,1.727386843410000069e-03,1.000000000000000000e+00
9.700980179999999509e-01,5.929078608409999590e-02,9.209509524820000403e-02,-9.796032744399999714e+00,-5.874702474099999152e-04,-1.498321723190000100e-02,3.413513302799999882e-03,1.000000000000000000e+00
9.750233120000000309e-01,5.251842413869999004e-02,1.002821462969999966e-01,-9.814973591710000278e+00,1.111024641429999996e-03,1.637706067409999949e-03,4.932286217810000206e-03,1.000000000000000000e+00
9.800732410000000394e-01,4.149211280949999942e-02,9.689903406439999423e-02,-9.794597158630001132e+00,-5.143786780539999839e-03,-1.971168909219999776e-03,1.085432805120000073e-02,1.000000000000000000e+00
9.850607909999999912e-01,5.799062673840000431e-02,8.125674423919999889e-02,-9.812581728139999626e+00,6.076188758020000663e-03,1.387144718320000060e-02,1.187258027489999923e-02,1.000000000000000000e+00
9.901247909999999486e-01,7.756757999819999250e-02,8.016155114730000308e-02,-9.809628723550000373e+00,9.146072901790001930e-03,1.698874402790000095e-03,-6.858889013529999995e-03,1.000000000000000000e+00
9.950280790000000097e-01,4.368762725949999759e-02,9.329119143130000513e-02,-9.789302559360001155e+00,1.168780215079999983e-02,9.140405803920000766e-03,1.012371852989999918e-02,1.000000000000000000e+00
1.000056872000000041e+00,6.699331871890000512e-02,7.063047877799999430e-02,-9.804113759519999860e+00,-1.275778980930000186e-03,-2.053007110949999978e-02,5.865585058930000185e-03,1.000000000000000000e+00
1.005067141999999913e+00,8.611077840790000437e-02,8.609047540539999099e-02,-9.804232417459999738e+00,-1.306787226349999907e-02,1.514940802009999941e-02,-8.014356717470000335e-03,1.000000000000000000e+00
1.010091566000000052e+00,2.315893079929999890e-02,6.917643947819999972e-02,-9.836209271960001388e+00,9.821821935469999751e-03,-1.019834913310000042e-02,8.187748491760000677e-03,1.000000000000000000e+00
1.015077948999999924e+00,6.478359764700000745e-02,6.707656285579999267e-02,-9.803981657570000507e+00,-1.354163140060000124e-02,-2.932497765869999853e-03,3.195135854180000158e-03,1.000000000000000000e+00
1.020055790000000018e+00,2.300000706070000345e-02,7.781519808369999347e-02,-9.804908124769999844e+00,5.206041038039999763e-03,-1.569757703690000117e-03,1.349395886059999959e-02,1.000000000000000000e+00
1.025065673000000066e+00,1.052049074540000045e-01,9.205841649970000762e-02,-9.800768540750000923e+00,6.117641925810000762e-03,4.236917011439999756e-03,-8.847144432370000408e-03,1.000000000000000000e+00
1.030087133000000099e+00,5.637049189040000546e-02,6.349970901600000828e-02,-9.808481891599999614e+00,7.472071796659999522e-03,1.380557660010000133e-03,-1.385592389849999925e-02,1.000000000000000000e+00
1.035061679000000012e+00,7.817174273669999507e-03,6.094357195959999862e-02,-9.835447055419999529e+00,2.718821400780000071e-03,6.186871789400000266e-03,-2.099420409650000399e-03,1.000000000000000000e+00
1.040068621999999943e+00,4.259389090580000675e-02,9.928210240920000429e-02,-9.799038355949999612e+00,-1.146431639789999984e-02,-3.313003340739999712e-03,-2.827198244629999802e-03,1.000000000000000000e+00
1.045032924999999890e+00,6.992195148270000105e-02,1.157867994840000025e-01,-9.798036485429999942e+00,-1.409172639250000011e-02,3.638450056309999736e-03,4.610576666890000598e-03,1.000000000000000000e+00
1.050106148000000017e+00,6.216184344180000071e-02,1.029884917799999966e-01,-9.779065242979999795e+00,-5.905711092049999687e-03,-2.839961089190000225e-03,-1.155008329079999915e-03,1.000000000000000000e+00
1.055063269999999997e+00,4.572906082609999590e-02,1.185161331159999970e-01,-9.775326056449999967e+00,1.087800506499999979e-02,-8.837723871689998848e-04,-3.289512125780000209e-03,1.000000000000000000e+00
1.060069632000000039e+00,2.259212951269999950e-02,9.557568563930000927e-02,-9.810095172020000476e+00,2.782973693679999510e-03,-6.254691630600000760e-03,1.223627664150000148e-02,1.000000000000000000e+00
1.065048427000000020e+00,1.039163837470000046e-01,1.002832696749999947e-01,-9.804935597300000083e+00,7.664450444279999677e-03,-1.147003471850000129e-02,-2.358038909729999737e-04,1.000000000000000000e+00
1.070087108000000065e+00,7.480374130810001077e-02,8.841277174000000683e-02,-9.810249485800000002e+00,1.387948635970000233e-02,-7.516386453060000007e-03,-7.730778772380000018e-03,1.000000000000000000e+00
1.075045540000000077e+00,6.274714164959999119e-02,7.792636684060000318e-02,-9.780659818700000230e+00,3.551021916789999944e-03,-1.376317068929999894e-02,-3.632067935539999744e-03,1.000000000000000000e+00
1.080080343999999970e+00,7.275254439929999817e-02,8.249870712430000530e-02,-9.805502583530000038e+00,2.532662265000000176e-02,-3.682103939350000067e-03,-8.902988396580000310e-03,1.000000000000000000e+00
1.085066252000000064e+00,3.835365038699999757e-02,1.017017764369999994e-01,-9.780911747630000264e+00,-1.175678800789999945e-03,-8.557932451369999402e-03,9.048889391120000167e-03,1.000000000000000000e+00
1.090060470000000059e+00,7.738681660380000715e-02,1.004048228289999983e-01,-9.801782686219999263e+00,1.349530182779999947e-03,7.103082723919999612e-03,-3.312072250989999724e-03,1.000000000000000000e+00
1.095060864999999994e+00,4.463289961979999970e-02,1.040390054800000019e-01,-9.794616447859999298e+00,1.277570892129999830e-02,9.470642544329999080e-03,4.577888175850000152e-04,1.000000000000000000e+00
1.100078126999999961e+00,3.150996763780000015e-02,9.206071805460000479e-02,-9.802980371580000352e+00,-5.987364798779999837e-03,1.425409689549999876e-03,1.263798773289999920e-02,1.000000000000000000e+00
1.105060742999999901e+00,1.014764341159999916e-01,9.417317103080000140e-02,-9.827310510710001168e+00,-7.145184092220000470e-03,-6.128156092019999964e-04,-2.942420542239999708e-03,1.000000000000000000e+00
1.110082441000000086e+00,3.876999893580000689e-02,9.235652266339998417e-02,-9.776213360679999909e+00,4.430151311680000179e-04,1.223107799890000126e-03,-3.575458424170000447e-03,1.000000000000000000e+00
1.115030474000000105e+00,5.892087049290000572e-02,7.053875450710000994e-02,-9.813727391040000470e+00,-2.530851401389999991e-03,-1.389835588629999980e-02,-2.513402607290000056e-03,1.000000000000000000e+00
1.120041786000000039e+00,6.100447640049999620e-02,5.851918522369999737e-02,-9.822404033969998949e+00,4.824177362020000588e-03,-1.981614157560000235e-03,4.695224575699999403e-03,1.000000000000000000e+00
1.125073610999999918e+00,9.278166187349999594e-02,1.086377040470000027e-01,-9.811458277060001620e+00,-8.331125602130000363e-03,1.806558109819999874e-03,-1.424073334779999908e-02,1.000000000000000000e+00
1.130036615000000078e+00,1.361820240239999986e-02,1.079632388519999875e-01,-9.757384741570000131e+00,8.136294782160000474e-03,-1.077775284650000012e-02,5.452982150019999776e-04,1.000000000000000000e+00
1.135063474999999933e+00,4.385849488090000359e-02,8.742875653820000870e-02,-9.791963887519999687e+00,-1.372431963679999860e-02,-8.503550663590001002e-03,2.136149443690000052e-03,1.000000000000000000e+00
1.140026785000000098e+00,2.186452762419999890e-02,7.514667756080001260e-02,-9.839414789999999300e+00,3.980016335840000298e-04,5.290517583490000030e-03,1.172311324629999978e-02,1.000000000000000000e+00
1.145027529999999905e+00,8.928056755049999793e-02,1.089311797020000028e-01,-9.773564307480000934e+00,9.163630194959998532e-03,-5.377612542359999723e-04,-4.918496124450000284e-04,1.000000000000000000e+00
1.150044851999999951e+00,9.510222519190000487e-03,1.064840148780000079e-01,-9.800815887020000616e+00,-6.762883858759999225e-04,1.822693273429999705e-02,4.116432741279999787e-03,1.000000000000000000e+00
1.155040743000000036e+00,8.229790558889998886e-02,1.183246199989999997e-01,-9.780126150210000091e+00,3.793948562820000352e-03,5.940401926640000510e-03,4.681083373729999150e-03,1.000000000000000000e+00
1.160022423000000025e+00,1.074718112059999953e-01,9.575223864949999886e-02,-9.788692903030000281e+00,-4.968020133670000490e-03,-1.061446871610000064e-02,-2.181690186259999803e-02,1.000000000000000000e+00
1.165041224999999958e+00,-3.671208459189999850e-03,9.084629163039999178e-02,-9.814307236750000385e+00,-6.668985821309999715e-03,4.103959538039999612e-03,-2.097344025970000140e-03,1.000000000000000000e+00
1.170022845999999950e+00,7.412570961579999229e-02,5.607194276859999577e-02,-9.831826526830001356e+00,1.922012865540000115e-02,4.517898894850000749e-03,-3.441740293059999869e-03,1.000000000000000000e+00
1.175019712000000105e+00,9.571512150949999798e-02,1.252673974750000141e-01,-9.799476747369999075e+00,6.769194267690000454e-03,-1.054186839610000113e-02,-6.028616800899999628e-03,1.000000000000000000e+00
1.179989997999999929e+00,5.026114673119999599e-02,8.346894952910000054e-02,-9.823894564789998896e+00,-1.146574225279999894e-02,-6.020138040180000351e-03,8.691631257530000806e-03,1.000000000000000000e+00
1.185038824000000046e+00,7.542917059689999149e-02,8.138746707989999440e-02,-9.804900525980000836e+00,3.744181944059999517e-03,1.792903756720000017e-03,-8.322766982020000578e-03,1.000000000000000000e+00
1.189957012999999897e+00,6.263487234759999855e-02,5.848365725259999787e-02,-9.830476281270000172e+00,-5.153247155250000044e-03,6.268775090579999099e-03,-6.837595254180000963e-03,1.000000000000000000e+00
1.194998497000000048e+00,1.318853543099999907e-02,1.005263668490000012e-01,-9.794171042180000342e+00,-3.193908603860000275e-03,-1.083418261260000017e-03,5.614469759169999838e-03,1.000000000000000000e+00
1.200020112000000028e+00,6.236681882890000167e-02,7.304322530839998939e-02,-9.808328746870000003e+00,-1.548781292510000105e-03,1.672621816399999864e-02,-6.318111903970000803e-03,1.000000000000000000e+00
1.204986274999999996e+00,3.969204111759999654e-02,7.904097701899999440e-02,-9.802409878210001537e+00,7.067759521310000223e-03,2.714847680179999830e-03,-6.633429788049999970e-03,1.000000000000000000e+00
1.209959714000000019e+00,4.844580440489999751e-02,7.895150863730000801e-02,-9.800861479730000880e+00,1.430510915819999986e-02,-1.653408631679999935e-02,3.230528905989999908e-03,1.000000000000000000e+00
1.214983146000000014e+00,7.661687341089999659e-02,8.964425889689998928e-02,-9.802137491010000758e+00,-1.439257245510000040e-02,3.987736068669999780e-03,-1.182958949359999914e-03,1.000000000000000000e+00
1.219998756000000073e+00,7.237280153380000469e-02,9.782212199239999351e-02,-9.821148480950000703e+00,-3.643372328949999808e-03,2.949184272440000232e-04,-5.832092836500000002e-03,1.000000000000000000e+00
1.224999377000000056e+00,5.777306129780000049e-02,6.455462489640000079e-02,-9.812857622470000152e+00,1.310740318149999917e-02,1.463913591580000111e-03,2.191381063310000096e-03,1.000000000000000000e+00
1.229987740000000107e+00,5.044089634539999922e-02,1.029264411280000069e-01,-9.783995100599998551e+00,2.210161183030000048e-04,-1.556252944279999835e-03,5.158939398829999814e-03,1.000000000000000000e+00
1.235046147000000039e+00,1.037433470009999914e-01,8.611553678139999279e-02,-9.795126150939999832e+00,2.219877671450000076e-03,1.032194029539999953e-02,-1.005272753539999953e-02,1.000000000000000000e+00
1.240001896000000103e+00,-7.232517669959999743e-03,9.351353807829999865e-02,-9.787611537530001016e+00,-5.925007164479999429e-03,7.190081290899999478e-03,3.326068166639999709e-03,1.000000000000000000e+00
1.244982464000000011e+00,5.669721222719999870e-02,7.774743007709999931e-02,-9.815452899660000341e+00,-1.528206747030000021e-02,9.057993069290001115e-03,-6.909107789399999630e-03,1.000000000000000000e+00
1.249943328000000076e+00,4.313602582530000340e-02,5.996281729390000315e-02,-9.798190799209999469e+00,8.965090848510000321e-03,5.926758982240000126e-03,3.070126753299999914e-03,1.000000000000000000e+00
1.254999324999999999e+00,9.633319860889999475e-02,4.546271520719999404e-02,-9.813198983250000396e+00,8.414998650550000944e-03,-7.192386314270000046e-03,-1.840151380749999936e-04,1.000000000000000000e+00
1.259999172999999972e+00,4.903022582989999961e-02,9.223023853579999376e-02,-9.781631294080000316e+00,1.093781832609999963e-02,-1.228992361580000074e-02,5.248187109829999773e-03,1.000000000000000000e+00
1.264957356000000033e+00,5.141866446949999725e-02,1.098118715259999989e-01,-9.806009948530000742e+00,-1.438869256529999932e-02,-1.686672447250000010e-03,1.628500968220000095e-02,1.000000000000000000e+00
1.270029413999999912e+00,7.285869905439998351e-02,1.109105534830000100e-01,-9.823425778229999850e+00,5.209020338949999981e-03,1.186671433970000163e-03,7.833079434929999738e-03,1.000000000000000000e+00
1.274979596000000104e+00,8.568683564109999540e-02,7.863508136560000417e-02,-9.834472072909999696e+00,8.745098020879999530e-04,-1.225456409160000093e-02,2.320024184880000156e-03,1.000000000000000000e+00
1.279980952000000061e+00,5.962612355230000050e-02,1.016007546149999968e-01,-9.797281867669999755e+00,-3.550559515129999861e-03,-5.933174397799999798e-03,3.625000361350000019e-03,1.000000000000000000e+00
1.284988773000000029e+00,6.445066676510000092e-02,9.094127643750000989e-02,-9.794639828730000275e+00,-5.444930866359999969e-03,-1.164581859480000011e-03,-6.644425448029999196e-04,1.000000000000000000e+00
1.289964118000000104e+00,4.286531912509999875e-02,8.244584442589998619e-02,-9.814820446969999779e+00,1.140669733289999960e-02,4.964931402359999170e-03,5.344137549399999992e-03,1.000000000000000000e+00
1.294991986999999956e+00,6.746257563190000139e-02,8.851925518860001563e-02,-9.801639478360000268e+00,1.104095764459999893e-02,4.826479591430000299e-03,-2.950345864520000343e-03,1.000000000000000000e+00
1.299955428999999940e+00,7.616375021539999179e-02,9.308583245179999355e-02,-9.814268658310000504e+00,-8.798509370539999873e-04,2.826285362240000057e-02,-4.066614434120000010e-03,1.000000000000000000e+00
1.305145473999999917e+00,2.571056977719999789e-02,8.359035655219999861e-02,-9.818512287229999913e+00,4.157906398179999664e-03,1.541679259390000070e-02,1.252495683729999872e-02,1.000000000000000000e+00
1.310013032999999938e+00,8.027670195960000254e-02,1.051260426639999968e-01,-9.803204243460001521e+00,2.094859490170000206e-03,1.306418608870000067e-02,2.102731727059999924e-03,1.000000000000000000e+00
1.314948664000000100e+00,3.369664804409999714e-02,8.732772558280001152e-02,-9.803876443630000992e+00,-1.907579717229999959e-03,1.301473751660000081e-02,8.572035469109999528e-03,1.000000000000000000e+00
1.319982871999999974e+00,2.742639268519999826e-02,1.112006590040000020e-01,-9.806730664019999821e+00,2.537009539080000049e-03,-7.630244363099999072e-04,2.567897550760000515e-03,1.000000000000000000e+00
1.324984589000000046e+00,5.241057985000000669e-02,5.850073168499999449e-02,-9.833688813569999354e+00,-2.367949578910000068e-03,4.440449643880000491e-03,2.875303849579999727e-03,1.000000000000000000e+00
1.330028130999999947e+00,8.399831629860000926e-02,1.004734676180000091e-01,-9.794573193239997977e+00,3.000756492840000404e-03,-3.076455555860000465e-03,-1.374181453139999842e-02,1.000000000000000000e+00
1.335031080000000037e+00,4.790508969089999486e-02,9.331284614069999817e-02,-9.792481773919998744e+00,6.638003513220000311e-03,9.363705758010000416e-04,-5.912338383499999607e-03,1.000000000000000000e+00
1.340006822999999958e+00,2.385865830020000161e-02,7.920720956460000628e-02,-9.782200033880000589e+00,-1.679573394360000041e-02,1.692141219969999985e-02,3.095269668850000010e-03,1.000000000000000000e+00
1.344958953999999984e+00,6.515225286289999529e-02,1.111604731240000005e-01,-9.792548409410001042e+00,-3.918046597389999997e-03,-7.998235523699999405e-03,1.058008056129999992e-03,1.000000000000000000e+00
1.349985951999999934e+00,3.404453903319999697e-02,8.623253249089998795e-02,-9.800923439049999075e+00,-2.651795279229999993e-03,5.493453703820000249e-03,-2.417214447629999902e-03,1.000000000000000000e+00
1.354994253000000093e+00,2.607648961329999890e-02,1.053370094009999924e-01,-9.783768890630000215e+00,6.174675654619999395e-04,2.344724722209999990e-03,8.723042905330000499e-03,1.000000000000000000e+00
1.359996803999999893e+00,7.539494410029999594e-02,1.196375566279999914e-01,-9.776965055830000750e+00,1.713513163849999816e-03,7.562249898909999442e-03,-8.847324643280000392e-04,1.000000000000000000e+00
1.365035854000000048e+00,3.284059062050000144e-02,1.255676864620000055e-01,-9.783819744029999654e+00,1.713763922449999940e-03,7.350232917820000503e-04,5.142640322450000266e-03,1.000000000000000000e+00
1.370030418000000028e+00,4.490785780340000172e-02,7.677140638550000729e-02,-9.789305481970000500e+00,-7.139714434739999338e-03,8.876873180269999851e-04,2.777679357679999680e-03,1.000000000000000000e+00
1.375010830999999989e+00,3.720839619180000418e-02,9.558129339620000109e-02,-9.815625918139998518e+00,-4.174605943260000125e-03,-1.943629980090000320e-02,3.237764351070000074e-03,1.000000000000000000e+00
1.380039640999999984e+00,9.730230850250000396e-02,9.211328849210001501e-02,-9.789207282290000478e+00,1.206068228930000027e-02,-1.426102127879999744e-02,-8.633220568299999551e-03,1.000000000000000000e+00
1.384970725000000069e+00,1.553683842299999861e-02,1.206296546709999945e-01,-9.814135387320000348e+00,3.372833365570000047e-03,2.243164926769999901e-03,-5.458002910020001187e-03,1.000000000000000000e+00
1.390031562000000109e+00,5.618502035480000406e-02,8.948378023870000308e-02,-9.825646961409999491e+00,2.915661083530000138e-03,-2.067040186379999998e-03,-5.588929168879999687e-03,1.000000000000000000e+00
1.395005064000000017e+00,7.200005009810001022e-02,8.740564965719999080e-02,-9.785452898189998194e+00,3.628181526439999954e-03,2.799103967850000065e-04,-7.032945752140000971e-03,1.000000000000000000e+00
1.400013184999999938e+00,4.034738148740000391e-02,1.170871780250000022e-01,-9.802771697260000749e+00,2.600896870719999684e-03,-5.208021961149999178e-03,-6.150023546070000104e-03,1.000000000000000000e+00
1.405005778000000038e+00,4.581162910960000223e-02,1.039081639079999925e-01,-9.808985749470000570e+00,-9.502543136479999625e-03,1.218077493829999814e-03,-2.069954294710000045e-03,1.000000000000000000e+00
1.410028843999999948e+00,5.240927380890000875e-02,8.845848317839999364e-02,-9.803215349380000276e+00,-1.890506246130000192e-03,3.102489747109999675e-03,4.018151201310000108e-03,1.000000000000000000e+00
1.415131152999999919e+00,1.075513427160000035e-01,1.038037902179999999e-01,-9.808664262429999781e+00,-5.629715509710000315e-03,8.445906452830000480e-03,-8.128987625239999376e-03,1.000000000000000000e+00
1.420063991999999997e+00,3.156207685100000104e-02,7.662578736980001082e-02,-9.798213595569999157e+00,-1.409441698339999969e-03,-1.265244465320000157e-02,6.058405153449999449e-03,1.000000000000000000e+00
1.424997499000000056e+00,7.866197850559999982e-02,6.580806359019999996e-02,-9.807919581539998433e+00,2.637034747750000279e-03,6.357299163939999012e-03,3.986516967420000073e-04,1.000000000000000000e+00
1.429913736999999907e+00,8.843765045289998794e-02,9.196998016439998647e-02,-9.804784790650000303e+00,2.501745475459999485e-04,1.363962236789999921e-02,-5.754481535400000035e-03,1.000000000000000000e+00
1.435037845000000090e+00,2.780787313329999635e-02,8.993090295170000359e-02,-9.775439453700000669e+00,6.374754942950000038e-03,-1.087417476809999931e-03,6.827899254860000412e-03,1.000000000000000000e+00
1.440010814000000083e+00,5.899609572019999526e-02,6.708445390129999519e-02,-9.807264917030000362e+00,-1.092802174390000020e-02,1.757063716650000135e-02,-3.841295838359999257e-04,1.000000000000000000e+00
1.444981899999999930e+00,4.026700059450000202e-02,8.365111029610000637e-02,-9.812478852279999941e+00,5.635791458190000068e-03,-9.884261526170000020e-03,7.572109811010000087e-03,1.000000000000000000e+00
1.449932964999999907e+00,1.016118331320000068e-01,6.922096817310001426e-02,-9.816924725779999861e+00,8.767038583759999976e-03,6.854188628490000268e-03,1.207777764649999941e-03,1.000000000000000000e+00
1.455037777000000032e+00,6.159400782549999398e-02,6.232751429840000662e-02,-9.798313548810000384e+00,-3.402756294239999823e-03,-6.510239094499999969e-03,3.624993376429999983e-03,1.000000000000000000e+00
1.460018467000000042e+00,8.052843909779999754e-02,7.898246089799999814e-02,-9.797283036719999672e+00,1.967986486849999939e-02,5.821250379090000095e-04,-2.863211091610000023e-03,1.000000000000000000e+00
1.464985721999999990e+00,6.390885607250000600e-02,6.475066805840000439e-02,-9.790191032630000123e+00,-4.044116940349999634e-03,-1.047888118770000029e-02,2.065703272819999995e-03,1.000000000000000000e+00
1.470011441000000030e+00,3.419805137769999642e-02,7.291940713250000261e-02,-9.822644856989999340e+00,1.302313152699999949e-02,5.558636970819999523e-03,4.473355598750000141e-03,1.000000000000000000e+00
1.475009693999999927e+00,4.281479908090000258e-02,6.443430015209999917e-02,-9.841632466050000971e+00,-4.795260727409999396e-03,-7.009829860180000552e-03,1.780239399519999849e-03,1.000000000000000000e+00
1.479982821999999976e+00,7.838353602360001449e-02,1.204530559950000024e-01,-9.822165549039999277e+00,-2.905217930669999702e-03,1.650710124519999891e-03,-1.184883899990000003e-02,1.000000000000000000e+00
1.485028879999999996e+00,2.025663805309999704e-02,7.773478979129999633e-02,-9.809977098600001000e+00,-7.220030762259999589e-03,9.439042769370001654e-03,5.044579505919999894e-03,1.000000000000000000e+00
1.490016765000000021e+00,5.043104623819999466e-02,1.149070209740000043e-01,-9.777841838669999674e+00,-1.070759538560000015e-02,-3.272002097219999829e-03,3.243988379840000331e-03,1.000000000000000000e+00
1.494988256000000071e+00,6.667306465540000227e-02,8.962362710079999073e-02,-9.804522924840000542e+00,-4.131420981140000205e-03,9.663649834689999694e-04,3.897355403749999930e-03,1.000000000000000000e+00
1.499986996000000072e+00,5.290165130260000154e-02,7.273478954689999165e-02,-9.829620541220000618e+00,-8.718617027630000621e-04,4.742733668540000114e-03,1.444954425100000196e-02,1.000000000000000000e+00
1.504982126999999892e+00,9.761920156510001112e-02,1.086868495520000033e-01,-9.805513104919999279e+00,1.017874199900000061e-02,-1.187013555320000011e-02,-6.620491389189999722e-03,1.000000000000000000e+00
1.509981945000000048e+00,2.306666310570000197e-02,9.928652285599999516e-02,-9.792318107789999004e+00,-1.186597999189999836e-02,-3.508967114610000299e-03,1.026299037040000021e-02,1.000000000000000000e+00
1.515002165000000067e+00,9.566942833739999763e-02,7.301798583589999558e-02,-9.806292272600000359e+00,-7.830258458850001060e-03,9.338914416729999710e-03,-1.254709251220000044e-02,1.000000000000000000e+00
1.519955662000000096e+00,3.183282693359999749e-02,9.210643862619999345e-02,-9.800403214560001075e+00,-3.573513822630000093e-03,1.374972704799999959e-02,-3.863909281789999761e-03,1.000000000000000000e+00
1.524980959999999941e+00,4.929882277130000212e-02,7.521302536189999888e-02,-9.834453368200000156e+00,2.906037960200000009e-03,-2.575582824650000068e-03,-1.159428618849999912e-02,1.000000000000000000e+00
1.530050460000000001e+00,5.593835211740000313e-02,7.066586975180000341e-02,-9.798272632279999783e+00,3.462121123449999650e-03,8.804307319220000191e-03,-8.054444566370000391e-03,1.000000000000000000e+00
1.534955728999999991e+00,1.076925047519999984e-01,6.558905511130000421e-02,-9.821844062000000264e+00,7.008530199529999956e-03,2.812661696230000022e-03,-1.450564339760000189e-02,1.000000000000000000e+00
1.539999671999999986e+00,2.081421713700000106e-02,9.335645695360000884e-02,-9.803294259830000357e+00,-6.936110556130000229e-03,5.875983275470000530e-03,-1.239983737470000055e-02,1.000000000000000000e+00
1.544985547000000015e+00,5.916064776530000069e-02,5.256029508559999924e-02,-9.823570739660000939e+00,-2.108803018930000168e-03,-2.372483722869999853e-03,-3.978023771199999496e-03,1.000000000000000000e+00
1.550036077999999984e+00,5.893277099330000712e-02,7.570597824430000400e-02,-9.766065476160001424e+00,7.921169511969999855e-03,8.075959049169999845e-04,-2.488740952689999942e-03,1.000000000000000000e+00
1.554985274999999945e+00,5.959540418700000342e-02,7.767057458180000318e-02,-9.814922153779999547e+00,1.372700557109999978e-03,1.179534755650000002e-02,-2.609325107189999944e-03,1.000000000000000000e+00
1.559984331999999974e+00,9.122944572910000882e-02,1.002555962170000037e-01,-9.807374807140000428e+00,-1.172857824709999967e-03,-1.145703624929999935e-02,-7.681925781069999515e-03,1.000000000000000000e+00
1.564986855999999982e+00,3.640167378570000056e-02,8.728300965819998924e-02,-9.807560685100000342e+00,7.814546115700000267e-03,6.039629224689999380e-04,-7.687991019339998925e-04,1.000000000000000000e+00
1.569984848999999905e+00,7.735264947269999969e-02,9.180488926319999021e-02,-9.823872352960000498e+00,2.074008807539999783e-04,6.147141568359998885e-03,-1.299415947869999883e-03,1.000000000000000000e+00
1.575008495000000064e+00,1.180580597509999913e-01,8.456746708920000188e-02,-9.830164146579999596e+00,-9.276819415389998824e-03,-2.474423497919999836e-03,-1.594150811430000009e-02,1.000000000000000000e+00
1.580035019999999957e+00,5.641684721620000148e-02,1.423017170470000092e-01,-9.763241650910000402e+00,4.201788455249999728e-03,8.378003723920000520e-03,-8.346356451510000482e-03,1.000000000000000000e+00
1.585029106999999993e+00,6.341809058059999504e-02,1.061834518960000084e-01,-9.820933376900001122e+00,-4.296712577340000734e-03,-9.510636329649999401e-03,-1.324025075879999881e-02,1.000000000000000000e+00
1.590002200999999893e+00,-7.429602011479999671e-03,8.476358331639999300e-02,-9.834246447459999985e+00,-2.354482887309999970e-03,9.036005474629999965e-03,3.151711542159999803e-03,1.000000000000000000e+00
1.594996172999999962e+00,5.954917672539999929e-02,6.954777984149999870e-02,-9.804409527600000729e+00,-5.449847318230000362e-03,1.278496347370000098e-02,-1.285844761879999937e-02,1.000000000000000000e+00
1.599958680000000077e+00,4.696708732160000122e-02,7.892859355259999876e-02,-9.805493815700000226e+00,1.649746485050000017e-02,-3.500747494399999906e-03,-4.687770269810000688e-03,1.000000000000000000e+00
1.604991902999999942e+00,3.982954075899999835e-02,8.369009973280000514e-02,-9.809952548680000106e+00,-4.956468008460000393e-03,-3.242681734259999886e-03,1.054686494169999834e-03,1.000000000000000000e+00
1.610032834000000079e+00,3.970985990199999566e-02,8.390218984719999273e-02,-9.784937349889998970e+00,-2.863548696039999990e-03,-1.513609569520000218e-02,7.506754249330000253e-03,1.000000000000000000e+00
1.614925307999999893e+00,5.904548325330000180e-02,7.789530498210001097e-02,-9.795383925099999445e+00,1.853704825040000323e-02,-1.546696946020000192e-02,-2.360607031729999568e-04,1.000000000000000000e+00
1.619937906999999955e+00,8.957329428619999201e-02,7.166823802760000084e-02,-9.820877262789998952e+00,-1.028900034729999906e-02,3.691795747730000198e-03,-1.508938614279999903e-02,1.000000000000000000e+00
1.624990106999999906e+00,3.493928906590000605e-02,1.016087735249999874e-01,-9.793878196710000594e+00,1.326683210210000173e-03,-7.315969560300000047e-04,1.857271417979999969e-03,1.000000000000000000e+00
1.630055757999999910e+00,7.936314904489999433e-02,6.934941685840000092e-02,-9.815948574220000111e+00,1.233202125879999909e-02,-3.965976648030000284e-04,-1.024286635219999984e-02,1.000000000000000000e+00
1.634983443000000092e+00,1.648624810240000016e-02,7.180812598889999010e-02,-9.808668938610001220e+00,-1.951652229759999989e-03,4.715093877170000759e-03,7.306010462340000421e-03,1.000000000000000000e+00
1.639954071000000013e+00,3.652885524570000098e-02,5.765087338999999589e-02,-9.799894680519999568e+00,3.280994715169999795e-03,-1.797152310609999651e-02,9.042435325680000038e-03,1.000000000000000000e+00
1.644999966999999952e+00,6.956377656169999979e-02,1.137945936199999952e-01,-9.764990540399999475e+00,1.101778727020000063e-02,-8.305322378870000008e-03,2.375953830780000008e-03,1.000000000000000000e+00
1.649983132000000019e+00,5.802338736359999305e-02,9.487812269600000292e-02,-9.753968211130001009e+00,5.047145532440000569e-04,-4.795245826240000092e-03,-9.867986664179998792e-04,1.000000000000000000e+00
1.655009831999999959e+00,7.013234739699999998e-02,8.985751805510001911e-02,-9.780455236039999889e+00,8.881866233419999346e-05,1.701488625260000158e-03,-5.721682682630000773e-03,1.000000000000000000e+00
1.659996588999999911e+00,5.532908394550000580e-02,9.471302266169999429e-02,-9.768597040459999548e+00,-5.334496498109999631e-03,-2.467395970600000160e-04,-2.242379356180000064e-03,1.000000000000000000e+00
1.664979100000000045e+00,8.058397781050000153e-02,9.319016047599999741e-02,-9.801215115469998906e+00,-7.476274855430000039e-03,1.712891040369999901e-03,-4.377552308140000327e-03,1.000000000000000000e+00
1.669986661000000039e+00,6.150707846069999873e-02,8.499052393999999289e-02,-9.790172327929999696e+00,1.213615387679999914e-02,7.486029528080000682e-03,-1.107289455829999847e-03,1.000000000000000000e+00
1.674952551000000067e+00,3.005698093409999577e-02,1.121685724539999984e-01,-9.822911398969999652e+00,-2.490716986360000211e-03,1.910756900909999986e-02,3.125418908889999754e-03,1.000000000000000000e+00
1.679969668000000027e+00,8.258691513069998935e-02,8.834842866639999737e-02,-9.817426245560001874e+00,4.783393815159999872e-04,5.949346348640000004e-03,-8.023811504239999198e-03,1.000000000000000000e+00
1.684986010999999895e+00,3.216825801659999734e-02,9.446082886569999448e-02,-9.806177121789998452e+00,2.834711456670000167e-03,2.960239071399999662e-04,-3.161674132570000285e-03,1.000000000000000000e+00
1.690004638000000003e+00,4.446180366949999824e-02,7.417969112560000855e-02,-9.802053319860000613e+00,9.234002791350000554e-04,-2.139595570040000224e-03,9.303274564450000894e-03,1.000000000000000000e+00
1.695003572000000069e+00,5.777411617719999809e-02,9.914551608319999154e-02,-9.810105693410001493e+00,-6.888860836630000643e-03,2.475975546989999786e-03,6.633885204789999150e-03,1.000000000000000000e+00
1.699984735999999996e+00,6.714921710009999489e-02,1.053908858790000014e-01,-9.775558111639998771e+00,-3.936176653949999618e-03,1.378718111659999954e-02,-7.147057913239998660e-04,1.000000000000000000e+00
1.705003476999999990e+00,3.617187905119999963e-02,7.545835559219998823e-02,-9.799153506760001520e+00,5.625383928420000026e-03,-3.528235713020000473e-03,6.840503774579999481e-03,1.000000000000000000e+00
1.709976232000000040e+00,4.563840513419999828e-02,8.853075383020000966e-02,-9.808238730499999392e+00,-1.419177162459999862e-03,-1.027819793669999988e-02,-9.695836342870000561e-05,1.000000000000000000e+00
1.714978837000000089e+00,9.075074056770000841e-02,9.688969084730000847e-02,-9.787981539889999638e+00,8.480828255409999725e-03,7.099244743589999684e-03,-9.805694222449999609e-03,1.000000000000000000e+00
1.719929604000000056e+00,1.860984352709999651e-02,8.614193159800000166e-02,-9.800497322589999172e+00,-1.779079437259999943e-03,8.285711519419999491e-03,8.010415360330000109e-03,1.000000000000000000e+00
1.724956429999999985e+00,8.861736353450000436e-02,8.866486507119999971e-02,-9.783815067860000880e+00,-5.681865848600000518e-03,8.838034700599999927e-04,-9.823985397819999521e-03,1.000000000000000000e+00
1.730027219999999977e+00,6.265430313389999673e-02,1.051753342990000006e-01,-9.795027951269998923e+00,9.992172941569999606e-03,-9.224360808730000527e-03,-8.200592361390000862e-03,1.000000000000000000e+00
1.734981756999999902e+00,2.792127722979999976e-02,9.559275550510000496e-02,-9.813310042410000378e+00,-6.228866986929999967e-03,-8.024015463889999991e-03,-1.783612067809999761e-03,1.000000000000000000e+00
1.739998978000000029e+00,3.974997271669999943e-02,6.226330822200000503e-02,-9.807717336970000588e+00,1.508848462250000043e-02,6.091426126660000676e-03,9.318316355349999525e-03,1.000000000000000000e+00
1.745046660000000083e+00,5.674778250379999833e-02,8.967637106820000592e-02,-9.801893160860000620e+00,-2.616474870589999974e-03,-4.175922833379999873e-03,1.076676230879999863e-02,1.000000000000000000e+00
1.750004101999999895e+00,6.394486353419999436e-02,8.357543297769999546e-02,-9.815282219269999331e+00,-9.388797916469999658e-03,-5.242090672250000055e-03,1.396768167610000153e-02,1.000000000000000000e+00
1.754986251999999913e+00,7.566440412489999767e-02,8.253526714190000113e-02,-9.802995569149999255e+00,6.035923957819998992e-03,4.009201191370000139e-03,5.100663751359999463e-03,1.000000000000000000e+00
1.759953168000000012e+00,8.463324406810000811e-02,1.100377344380000094e-01,-9.780889535800000090e+00,-1.143619138749999917e-02,6.548056844619999390e-04,-1.981995766979999761e-03,1.000000000000000000e+00
1.765017905000000109e+00,3.764354762250000236e-02,8.845389833480001018e-02,-9.803250420689998634e+00,1.294009620320000055e-03,-5.841404199600001151e-03,1.224537286909999946e-02,1.000000000000000000e+00
1.769953815999999902e+00,1.189433546849999884e-01,1.133589147499999977e-01,-9.803965875479999426e+00,-6.750875152649999343e-03,1.225169003010000146e-02,-5.624604411420000560e-03,1.000000000000000000e+00
1.774985242999999935e+00,5.175440836310000320e-02,8.357659288839999756e-02,-9.818616332130000401e+00,-3.642617957670000062e-03,7.876585237680000864e-03,-4.846253432329999944e-04,1.000000000000000000e+00
1.779956641000000062e+00,4.259291365819999758e-02,7.778409055939999872e-02,-9.806258954860000543e+00,-7.749629206959999551e-03,-5.287696607409999618e-03,2.585639245809999778e-03,1.000000000000000000e+00
1.784981678000000072e+00,3.921777923590000214e-02,8.127724817110000555e-02,-9.812426245310000184e+00,-6.057311780749999493e-03,-8.021697402000000504e-03,1.044796500360000054e-02,1.000000000000000000e+00
1.789959517000000000e+00,4.179575366480000470e-02,9.466030609369999183e-02,-9.780142516819999798e+00,1.643212977799999837e-03,-5.187816917899999540e-03,1.410162635150000003e-02,1.000000000000000000e+00
1.794980157999999992e+00,9.173776971060000618e-02,9.913290319680000129e-02,-9.809088625319999366e+00,6.271908991039999715e-03,1.838553231209999863e-03,-2.833079546690000193e-03,1.000000000000000000e+00
1.799959064000000053e+00,4.296789815019999570e-02,8.268088615759999760e-02,-9.794086871019999307e+00,8.500469848510000407e-04,-4.522436298430000667e-03,-4.777223337439999266e-03,1.000000000000000000e+00
1.804990185999999941e+00,4.750724034659999095e-02,7.774279956780000278e-02,-9.806573427630000950e+00,1.114825904370000086e-02,2.375624608250000071e-03,1.277194824069999898e-03,1.000000000000000000e+00
1.809952376000000029e+00,8.331198713539998690e-02,1.073428236649999895e-01,-9.814482593320001058e+00,7.341600023210000103e-03,-3.539095632730000253e-03,-1.541087054650000033e-03,1.000000000000000000e+00
1.814993532999999992e+00,3.201955656120000077e-02,7.433910120469999772e-02,-9.797497556250000628e+00,3.818040015179999594e-03,1.034861197700000018e-03,1.934145111589999897e-04,1.000000000000000000e+00
1.819958106000000075e+00,3.093552646740000203e-02,5.138257937599999964e-02,-9.839075767309999776e+00,-1.790102221999999993e-03,3.596093971280000298e-03,2.233074512329999862e-03,1.000000000000000000e+00
1.824996599999999969e+00,5.220757265780000267e-02,8.850205745860001416e-02,-9.800655143500000221e+00,6.699801888319999827e-04,-3.582198871300000444e-03,5.377764813600000894e-03,1.000000000000000000e+00
1.829947423999999989e+00,7.235437539460000400e-02,8.000546553649999504e-02,-9.817502233400000833e+00,-4.776308313010000674e-03,6.222614087160000147e-03,1.816934905949999998e-03,1.000000000000000000e+00
1.834978809000000100e+00,2.749744862740000073e-02,9.107085763389999311e-02,-9.788082077649999491e+00,-1.017697434870000125e-02,6.265945732589999276e-03,6.008269265290000147e-03,1.000000000000000000e+00
1.839996178000000038e+00,7.753702959630000280e-02,8.127152168319999592e-02,-9.813583598660001073e+00,-1.453438424510000108e-03,-2.675113826989999888e-02,-6.276609376069999628e-03,1.000000000000000000e+00
1.844982799000000062e+00,4.722482037569999958e-02,1.051294767309999961e-01,-9.799835059289998540e+00,-2.791563514619999770e-03,1.390401972459999989e-03,3.816796466709999978e-03,1.000000000000000000e+00
1.849954303999999938e+00,4.213729254489999992e-02,7.303518356589999705e-02,-9.802817874489999639e+00,1.509688515220000173e-02,-4.725739359859999072e-03,1.013576984410000104e-02,1.000000000000000000e+00
1.855016247000000007e+00,1.084220520030000079e-01,7.155243876139999459e-02,-9.831787948389999698e+00,9.770092554390000239e-03,-6.285122362899999522e-04,-1.129405666139999924e-02,1.000000000000000000e+00
1.859956155999999972e+00,4.005468215119999814e-02,7.993436392850000738e-02,-9.820272867159999919e+00,8.197441697119998635e-03,-2.020311541859999907e-03,8.319789543749999197e-03,1.000000000000000000e+00
1.865008433000000077e+00,6.890839509260000828e-02,1.110894263150000033e-01,-9.808691150439999618e+00,1.096021011470000098e-02,-7.889533415439999031e-03,-5.417255684729999424e-03,1.000000000000000000e+00
1.870020537000000038e+00,-5.562579730320000443e-03,9.823603655549999203e-02,-9.785680861730000402e+00,7.322191260760000861e-03,7.969446014610000965e-04,1.447360962629999984e-02,1.000000000000000000e+00
1.874995689999999993e+00,8.405810192810000969e-02,9.559045395019999392e-02,-9.811098211579999173e+00,-1.062741782520000046e-02,-9.470840916040000265e-03,-4.677575081590000169e-03,1.000000000000000000e+00
1.879974280999999969e+00,2.146671024590000171e-02,9.445867344130000343e-02,-9.806193488399999936e+00,6.485546939069999732e-03,-1.127101853489999826e-02,5.927213467659999888e-03,1.000000000000000000e+00
1.884994518000000063e+00,7.415029606769998893e-02,6.709603017469999153e-02,-9.793803962430001064e+00,-2.871826058249999942e-03,1.196204591539999987e-02,5.935210734610000226e-03,1.000000000000000000e+00
1.890015905999999912e+00,6.940240742089999471e-02,6.708800669840001007e-02,-9.797208217919999740e+00,-1.050161942839999973e-02,5.362248048189999314e-04,5.307860672470000873e-03,1.000000000000000000e+00
1.894997902000000067e+00,4.544438039950000202e-02,9.568921075009999277e-02,-9.805888952500000144e+00,-1.308648940179999928e-02,-1.127720065410000097e-02,-1.791955553930000200e-03,1.000000000000000000e+00
1.899991121000000005e+00,5.830824132019999523e-02,6.450322806940000930e-02,-9.834421804019999769e+00,-7.714052684609999655e-03,4.746660124509999735e-04,-1.330783963200000107e-02,1.000000000000000000e+00
1.904978899000000059e+00,2.224488697759999939e-02,6.941032129930001238e-02,-9.812142167679999361e+00,9.459825232630000164e-03,-4.576383624229999128e-03,-2.646851353350000062e-04,1.000000000000000000e+00
1.910017120000000013e+00,6.394002296230000271e-02,9.439102416569999932e-02,-9.810050748350001015e+00,1.049816329029999891e-02,1.816764939579999967e-03,-6.441082339729999225e-03,1.000000000000000000e+00
1.914974238999999967e+00,3.799370591719999912e-02,8.023147457839999164e-02,-9.794608264549999888e+00,1.105988863859999963e-02,2.182341180739999758e-03,3.567238338290000099e-03,1.000000000000000000e+00
1.919970152999999957e+00,4.243047593839999881e-02,8.991616204029999337e-02,-9.783352711039999150e+00,4.589812830089999747e-03,3.906096331780000569e-03,1.038066577169999977e-03,1.000000000000000000e+00
1.924949358999999971e+00,5.858072441890000565e-02,1.112293827749999964e-01,-9.776422034999999511e+00,-2.428192179650000195e-03,-8.809897117319999763e-03,1.242257654670000065e-02,1.000000000000000000e+00
1.929898450999999904e+00,6.440366298530000866e-02,5.996299082380000811e-02,-9.809332955469999504e+00,3.885984187950000061e-03,-1.280749030410000162e-02,-2.203125040979999998e-03,1.000000000000000000e+00
1.934948788000000031e+00,3.963505936649999728e-02,9.325681423769999201e-02,-9.800708334990000381e+00,-9.518997743729998989e-03,2.162267267700000370e-02,7.678739726540000435e-03,1.000000000000000000e+00
1.939845751000000007e+00,7.349658139939999058e-02,8.117765112099999125e-02,-9.823214181310000015e+00,-4.251305945219999854e-03,9.944949299099999779e-03,-1.057087676599999942e-03,1.000000000000000000e+00
1.944918246000000073e+00,6.469182314369999187e-02,9.661010672099999697e-02,-9.823541513569999495e+00,2.048071473840000164e-04,8.486648090180000034e-03,-1.516828429889999913e-03,1.000000000000000000e+00
1.949894846000000070e+00,8.374530965189999621e-02,1.053371189990000012e-01,-9.772623227240000432e+00,1.691468060019999872e-02,-4.055643221359999718e-04,-6.057389080520001086e-03,1.000000000000000000e+00
1.954982167000000048e+00,6.768277598749999902e-02,8.022226835860001015e-02,-9.790221427769999707e+00,-6.873034872109999756e-03,8.934188634159999712e-03,-4.469936713580000519e-03,1.000000000000000000e+00
1.959936590999999950e+00,7.912316627660000157e-02,6.551927781069999401e-02,-9.830174667969998836e+00,6.879493594170000073e-03,3.084066789599999858e-03,3.308346960689999977e-03,1.000000000000000000e+00
1.964998572999999915e+00,2.516747359320000224e-02,9.678898868550001033e-02,-9.813264449700000114e+00,-1.157694868739999987e-02,-8.514706045390001143e-03,1.020626444369999997e-02,1.000000000000000000e+00
1.969958142999999939e+00,8.100502536730000425e-02,7.420391681800000971e-02,-9.798525730259999733e+00,1.364513300360000077e-02,1.549163926389999883e-02,4.942865110929999840e-03,1.000000000000000000e+00
1.974995974000000043e+00,5.680120689119999566e-02,8.868220893169999341e-02,-9.787026431119999259e+00,4.327192902569999312e-03,2.419482916589999857e-05,-3.098896704609999976e-03,1.000000000000000000e+00
1.979975282000000059e+00,6.311153624890000757e-02,1.013590091480000011e-01,-9.826982009410000884e+00,1.305860746650000168e-02,1.054738182570000120e-02,-5.767868831749999384e-03,1.000000000000000000e+00
1.984984797000000079e+00,5.779523659699999788e-02,6.105933469320000417e-02,-9.811163678029998891e+00,-1.425078953619999785e-03,-9.036526083950001051e-03,-6.036938168110000252e-03,1.000000000000000000e+00
1.989956690999999944e+00,6.800349584180000184e-02,1.003807204340000092e-01,-9.794164612439999473e+00,-1.264378428459999931e-03,8.473079651590000386e-03,-7.921131327749999758e-04,1.000000000000000000e+00
1.995003732999999890e+00,4.262333619590000233e-02,1.110734980930000032e-01,-9.804354582540000251e+00,2.646398963409999673e-03,4.736489616330000034e-03,6.485988385980000388e-03,1.000000000000000000e+00
2.000031110000000112e+00,6.332567675649999894e-02,1.147535565789999934e-01,-9.801298702100000426e+00,-6.736722774800000743e-03,-2.629728987809999696e-02,-8.954511955379999139e-03,1.000000000000000000e+00
2.005060031000000187e+00,3.873844845350000315e-02,8.233479440000000815e-02,-9.832382991669998518e+00,-1.201585028319999970e-02,-4.182375036179999429e-03,-6.682908162469999684e-03,1.000000000000000000e+00
2.009980206999999908e+00,5.241695479190000562e-02,9.941736442770000848e-02,-9.777948806170000395e+00,4.558419808750000315e-03,2.557246480140000239e-04,-5.677589215339999551e-03,1.000000000000000000e+00
2.014977082000000141e+00,3.347767838099999921e-02,7.065916601639998795e-02,-9.811697931039999432e+00,-6.052753888070000476e-03,-1.114756707099999987e-02,-6.280527915810000909e-03,1.000000000000000000e+00
2.019984706999999879e+00,7.385108022569999986e-02,9.995767271639999230e-02,-9.843073897030000907e+00,2.658755751329999577e-03,3.555242437869999390e-04,-4.090198781340000263e-03,1.000000000000000000e+00
2.024981331000000218e+00,7.066327593589999401e-02,8.007323354310000307e-02,-9.806956289469999533e+00,-2.557285595690000218e-03,-1.602423563600000045e-02,-3.436354920269999932e-03,1.000000000000000000e+00
2.029967295000000060e+00,1.361498068210000023e-02,5.274622784540000664e-02,-9.822157365729999867e+00,2.417603507639999854e-03,4.987961612640000320e-03,3.485369030389999859e-03,1.000000000000000000e+00
2.034994243999999952e+00,5.696781389609999885e-02,8.829928316189998572e-02,-9.827830735190000055e+00,-7.080960087479998798e-03,-1.994338119400000317e-03,-4.318179562689999961e-04,1.000000000000000000e+00
2.039987356999999779e+00,4.607410227090000254e-02,5.351693365669999564e-02,-9.853209506599998946e+00,1.111028133890000231e-03,-9.374720975760000158e-03,1.125520188359999986e-02,1.000000000000000000e+00
2.044992435999999802e+00,9.611761049630000719e-02,7.533124034749999476e-02,-9.814607681010000917e+00,8.985778316860001599e-03,-3.419072832910000082e-03,-1.271052565429999989e-02,1.000000000000000000e+00
2.049974402000000140e+00,1.174225931249999952e-02,1.074094956929999983e-01,-9.818432792250000318e+00,-1.180680375550000050e-02,2.689190208910000133e-03,6.601737812159999726e-03,1.000000000000000000e+00
2.054979664999999844e+00,7.864679006969998998e-02,8.702976554950000998e-02,-9.830660990180000169e+00,-4.697180353109999158e-03,-1.438187900930000150e-03,-4.524865653369999148e-04,1.000000000000000000e+00
2.059984898999999814e+00,7.194603205569999327e-02,9.206183229949999047e-02,-9.792942377160001044e+00,-1.234463602299999858e-02,-2.228326164189999795e-03,3.325202036650000501e-03,1.000000000000000000e+00
2.064999003000000055e+00,4.470478211249999390e-02,1.005676304409999916e-01,-9.789400174510001662e+00,9.916250593959998957e-03,1.895830966529999956e-03,-2.845318522299999800e-04,1.000000000000000000e+00
2.069953395000000196e+00,5.371109538879999951e-02,1.048716660449999921e-01,-9.831886148069999720e+00,1.500493148339999885e-03,-1.745614223180000021e-02,3.691099118439999764e-03,1.000000000000000000e+00
2.075009039999999860e+00,9.292412995089997796e-02,6.562476574549999664e-02,-9.824915140010000769e+00,6.523737683890000992e-03,-7.298772688959999540e-03,-4.100117832420000462e-03,1.000000000000000000e+00
2.079966209999999815e+00,7.061729050289999865e-02,1.014633280390000031e-01,-9.813929635610001867e+00,1.965248584749999805e-02,-3.621276933699999791e-03,-9.358221665020000773e-03,1.000000000000000000e+00
2.085007001000000137e+00,7.607771589980000249e-02,8.120169871690000041e-02,-9.813000245810000521e+00,7.194015197460000826e-04,6.916669197380000654e-03,-1.024454087020000050e-02,1.000000000000000000e+00
2.089985588999999866e+00,3.304220957319999735e-02,7.994944276660001514e-02,-9.830187527450000573e+00,-5.775216966869999545e-03,-9.163133800030000969e-03,-1.424647052769999981e-03,1.000000000000000000e+00
2.095034952999999867e+00,7.115409622669999212e-02,9.215473474730000170e-02,-9.795579155409999572e+00,7.775525562470000408e-03,1.949254889039999912e-03,-1.371689699589999888e-02,1.000000000000000000e+00
2.099977754000000196e+00,2.291255938940000084e-02,9.570292874819999462e-02,-9.792411631289999363e+00,-2.607645932590000031e-03,-2.805887255820000564e-03,5.330996587870000247e-03,1.000000000000000000e+00
2.105044916999999849e+00,4.234052349949999489e-02,1.028761539790000040e-01,-9.795521872260000151e+00,-7.527055218819998957e-03,-5.788444541390000767e-03,5.377491936090000521e-03,1.000000000000000000e+00
2.109951505999999810e+00,6.664547796219999487e-02,6.577270458250000784e-02,-9.822676421169999728e+00,2.579530701039999940e-03,3.492514602840000090e-03,-7.312038913369999296e-03,1.000000000000000000e+00
2.114978310000000139e+00,4.794837171019999261e-02,7.405720182370000015e-02,-9.826386966130000289e+00,5.060714669530000029e-03,1.523967832330000048e-03,-9.185660630460000184e-03,1.000000000000000000e+00
2.119984162999999810e+00,2.865865159359999928e-02,7.521313952630000188e-02,-9.823307704810000374e+00,-3.891818691049999789e-03,2.456079702820000450e-03,7.330542430279999785e-03,1.000000000000000000e+00
2.124879893000000131e+00,6.407258613369999634e-02,8.628193372379999726e-02,-9.781602067979999759e+00,-3.801849961749999567e-04,-9.296831674870000353e-03,5.330651998519999810e-03,1.000000000000000000e+00
2.129970998000000115e+00,3.358328504679999882e-02,1.064622049049999963e-01,-9.795410228579999767e+00,2.517483429980000003e-03,3.902693279090000832e-04,7.431638427079999797e-03,1.000000000000000000e+00
2.134968203000000120e+00,5.551260098599999915e-02,4.888958438330000267e-02,-9.842157366709999522e+00,4.658114165069999861e-03,5.767863243820000457e-03,9.403566829860000517e-03,1.000000000000000000e+00
2.139945281000000143e+00,5.065563050800000328e-02,8.137832479230000526e-02,-9.813885211949999743e+00,6.367283873260000393e-03,-6.532913539559999979e-04,-4.753596149380000246e-03,1.000000000000000000e+00
2.144996357000000131e+00,1.999811269780000025e-02,6.231278708669999583e-02,-9.810684370080000605e+00,-1.984634902330000093e-03,1.170579344030000038e-02,5.719768814739999499e-03,1.000000000000000000e+00
2.150017338000000056e+00,4.189921860589999880e-02,9.343681958020000344e-02,-9.784852009690000685e+00,-8.036253042519999820e-03,4.409602843229999919e-04,8.368901908399999090e-03,1.000000000000000000e+00
2.155029906000000217e+00,4.188692994649999973e-02,8.134390193280000014e-02,-9.811918880309999480e+00,-1.481299288570000171e-02,-6.040633656079999469e-03,6.006341427560000536e-03,1.000000000000000000e+00
2.159981065000000200e+00,8.696061843660000956e-02,7.769364493010000317e-02,-9.812518599769999739e+00,-7.131180725989999872e-03,4.901124164460000064e-03,-8.388081565499999614e-03,1.000000000000000000e+00
2.164976884000000101e+00,2.024555497009999927e-02,1.268728325099999776e-01,-9.766229726810001566e+00,5.845825187859999932e-03,7.314749527719999374e-04,9.263385087249999608e-03,1.000000000000000000e+00
2.169971121000000114e+00,6.185945382860000286e-02,9.817653405379998810e-02,-9.783904499710001090e+00,2.164700767030000150e-03,-1.983579481019999945e-03,5.436019971970000413e-03,1.000000000000000000e+00
2.174976414000000080e+00,7.362950989689999448e-02,6.941142184439999530e-02,-9.797645440289999286e+00,4.221332259479999502e-03,-7.227752357720000588e-04,9.993176907299998468e-03,1.000000000000000000e+00
2.179974442999999873e+00,5.408626254380000803e-02,8.850336349970000516e-02,-9.806218038320000829e+00,6.912539713080000092e-03,-1.064247917380000026e-02,5.137543193999999716e-03,1.000000000000000000e+00
2.184982730000000206e+00,5.359724148449999948e-02,8.624756566330001040e-02,-9.793007843619999875e+00,-3.834231756630000743e-04,-4.338590428229999012e-03,-6.890983786430000596e-04,1.000000000000000000e+00
2.189929826999999829e+00,6.200514590959999711e-02,7.894136170260000751e-02,-9.808740250279999628e+00,-1.255427952860000036e-03,6.498199887569999778e-03,-6.004231050610000196e-03,1.000000000000000000e+00
2.195009706000000005e+00,3.195298043130000154e-02,8.590363846329999997e-02,-9.835743992539999425e+00,-7.478621788319999956e-03,4.338032100350000357e-03,-4.518927540630000676e-03,1.000000000000000000e+00
2.200034973999999810e+00,1.214904088200000065e-02,8.825686879220000225e-02,-9.833725053929999405e+00,-3.883036784829999467e-03,6.136342883109999549e-03,1.318784803150000080e-02,1.000000000000000000e+00
2.204998584000000150e+00,8.483242903519999656e-02,7.764894727189998458e-02,-9.820659820650000427e+00,1.205191668120000024e-02,-2.028687624259999968e-03,-3.793803974989999432e-03,1.000000000000000000e+00
2.209971765000000143e+00,8.966476282880000981e-02,7.643099088349999959e-02,-9.808610486419999219e+00,8.303917013109998399e-03,-9.750889614219999946e-03,-4.320819862189999132e-03,1.000000000000000000e+00
2.214975410000000089e+00,7.047062117430000217e-02,1.037145410319999933e-01,-9.827173732589999489e+00,1.418516412379999814e-02,-1.767207635570000081e-03,-7.674100808800000603e-03,1.000000000000000000e+00
2.219968756000000099e+00,6.954774787549999893e-02,8.979082776070000660e-02,-9.785420164970000556e+00,3.432431025429999363e-03,-1.355901360510000176e-03,-8.739354088899999734e-03,1.000000000000000000e+00
2.224999780000000094e+00,3.627041893869999839e-02,7.775408814680000169e-02,-9.806487502910000487e+00,2.292819879950000125e-02,4.028661176560000348e-03,1.543716993179999929e-03,1.000000000000000000e+00
2.229973390000000055e+00,4.641266374260000216e-02,6.701437977319998907e-02,-9.824514157989998608e+00,1.233247853820000108e-02,6.406139582399999685e-03,-1.053935289379999939e-02,1.000000000000000000e+00
2.234988807000000133e+00,3.048893576070000298e-03,1.052542904200000073e-01,-9.795542915049999522e+00,-3.376595908780000068e-03,7.553807459770000773e-03,9.603334590790000083e-03,1.000000000000000000e+00
2.239968991000000020e+00,7.661839864779999842e-02,9.950306081660000024e-02,-9.778412332030001153e+00,-9.237338788809999410e-03,-4.418856929989999592e-03,-1.449805870649999856e-02,1.000000000000000000e+00
2.244982638999999836e+00,3.890235204459999846e-02,1.087015813299999911e-01,-9.806515559970000240e+00,-3.729240968820000338e-03,-3.650948405270000065e-03,-8.963356725869999972e-03,1.000000000000000000e+00
2.249958116000000174e+00,6.785482635250000838e-02,8.608323281389999859e-02,-9.793143452699998974e+00,1.725246757270000250e-02,4.304349422450000069e-04,1.164152752609999824e-03,1.000000000000000000e+00
2.254976194000000156e+00,8.658809532980001056e-02,9.545496360279999426e-02,-9.816586872120000251e+00,4.531177692120000149e-03,3.253650851550000511e-03,-6.756336428230000010e-03,1.000000000000000000e+00
2.259981826999999832e+00,-3.001485654209999892e-03,7.204186167959999998e-02,-9.795746913189999461e+00,1.208136416970000127e-02,-1.139775291090000010e-02,3.385471180080000097e-03,1.000000000000000000e+00
2.264958339000000098e+00,5.588328376209999310e-02,8.620022852339999375e-02,-9.794482007819999225e+00,-3.004002850500000262e-03,2.889793366190000073e-03,1.314206514510000198e-03,1.000000000000000000e+00
2.270013521000000090e+00,6.783189756799999637e-02,4.919537609659999783e-02,-9.809742120800001075e+00,-2.166673075409999896e-03,4.739878233520000532e-03,-6.565119139849999973e-03,1.000000000000000000e+00
2.274976827000000146e+00,1.628589409150000070e-02,6.460263788980000199e-02,-9.816949275700000754e+00,2.892757998780000686e-03,-5.542375147340000002e-03,1.073397696020000208e-02,1.000000000000000000e+00
2.279954801999999781e+00,7.054634872510001653e-02,8.977938391810000307e-02,-9.792193604619999547e+00,2.824430819600000017e-03,-6.834024097770000604e-03,2.439442090690000214e-03,1.000000000000000000e+00
2.285044157000000187e+00,6.170166488440000790e-02,7.885046854879999845e-02,-9.821689748220000737e+00,3.218536032359999802e-03,4.956481046970000366e-03,-5.747290793809999888e-03,1.000000000000000000e+00
2.290008569999999910e+00,2.743653505330000131e-02,1.001568576830000057e-01,-9.825956758019998460e+00,-2.980735385789999754e-03,1.931580528619999959e-02,1.285929605359999867e-02,1.000000000000000000e+00
2.294947882999999855e+00,9.702101647630000103e-02,9.289993622460000766e-02,-9.837969851889999617e+00,-2.212515566500000089e-03,-1.456572301689999793e-02,-1.651266706180000085e-03,1.000000000000000000e+00
2.299980129000000151e+00,3.985078904300000391e-02,1.028356941039999944e-01,-9.794714647530000207e+00,1.159312436359999799e-03,8.000999689100000978e-03,6.419377401470000889e-03,1.000000000000000000e+00
2.304979302000000008e+00,8.442268832369999310e-02,7.515203872249999473e-02,-9.824887082960000129e+00,5.927789956330000581e-03,-4.901175852859999873e-04,1.254118047650000078e-03,1.000000000000000000e+00
2.309949618000000093e+00,4.881672920969999663e-02,1.077233017490000083e-01,-9.782612706330001018e+00,4.425792954859999670e-03,-1.054115593429999845e-02,1.149607822299999983e-03,1.000000000000000000e+00
2.315027355999999870e+00,7.694409607129999717e-02,4.312995684410000224e-02,-9.815061269990000170e+00,-9.627242572610000479e-03,4.337001591919999936e-04,-1.062536612149999954e-03,1.000000000000000000e+00
2.319990916000000070e+00,2.669567182440000033e-02,7.906486021810001097e-02,-9.794427062760000524e+00,7.394482381639999949e-03,-1.438952051099999735e-03,1.169007923449999833e-02,1.000000000000000000e+00
2.324972298000000048e+00,7.377016047660001075e-02,7.632983663049999756e-02,-9.836127438900000186e+00,-3.496554214510000282e-03,1.508445711810000017e-03,-2.511607017369999980e-04,1.000000000000000000e+00
2.329950592999999959e+00,1.493052710990000129e-02,9.684713034719999447e-02,-9.805022106539999172e+00,1.402027346189999892e-02,1.152754854410000147e-02,1.375321112570000032e-02,1.000000000000000000e+00
2.334979801999999882e+00,9.641117748220000283e-02,8.625295422450000860e-02,-9.787394095389998938e+00,6.582625210290000625e-03,-5.069429986179999938e-03,-7.751122582700000277e-03,1.000000000000000000e+00
2.339968198000000221e+00,5.141501120769999961e-02,9.447668402200000426e-02,-9.801599146350000069e+00,4.755777306850000365e-03,-2.698701573540000179e-03,-9.316300973299999205e-03,1.000000000000000000e+00
2.345016503000000085e+00,7.224302397459999962e-04,1.113689921749999867e-01,-9.782046889139998314e+00,-3.066545585170000077e-03,-1.255898037930000153e-03,4.760511219500000030e-03,1.000000000000000000e+00
2.350022087000000148e+00,4.992132488409999763e-02,8.727135575310000781e-02,-9.807648363389999346e+00,-5.253001116219999968e-03,6.328407675030000082e-03,6.329720839859998872e-03,1.000000000000000000e+00
2.355041815999999955e+00,6.665570252869999768e-02,7.315653122349999316e-02,-9.788521638110001533e+00,1.261137984690000047e-02,-3.679061075670000177e-03,4.970836453139999877e-04,1.000000000000000000e+00
2.359969330999999837e+00,7.775537592160000622e-02,1.146958533090000065e-01,-9.790593183689999535e+00,-1.378928963090000036e-02,3.051224630329999951e-03,-8.952748030420000242e-04,1.000000000000000000e+00
2.364977586999999826e+00,7.931064253960000421e-02,8.122429414119999858e-02,-9.808370832439999631e+00,8.566326461730000563e-03,9.923310019079999156e-03,-9.394995868210001023e-04,1.000000000000000000e+00
2.369965260999999934e+00,5.190640232069999860e-02,8.007749872619999987e-02,-9.806924725289999145e+00,-9.690200909969998166e-03,-1.731283217670000207e-02,8.712110109629998128e-03,1.000000000000000000e+00
2.375007270999999864e+00,5.994203936729999849e-02,8.020360019080000069e-02,-9.790363466589999675e+00,1.867866609249999987e-03,1.016916241499999990e-03,1.673082821070000226e-02,1.000000000000000000e+00
2.379957553000000114e+00,8.192381157950000270e-02,8.827945508339998804e-02,-9.824638076630000327e+00,5.745786475020000020e-04,9.715397842229999900e-03,6.848646327850000520e-03,1.000000000000000000e+00
2.384974265999999954e+00,5.744734560790000499e-02,1.004182576989999937e-01,-9.801680394889999093e+00,1.730474270879999929e-02,6.558508612219999742e-03,2.867835108190000364e-03,1.000000000000000000e+00
2.389941714999999967e+00,1.133000424360000036e-01,8.716584041880000300e-02,-9.803993348010001441e+00,8.359375409779998614e-03,-3.182968357580000002e-04,-8.351674303410000152e-03,1.000000000000000000e+00
2.394985881999999844e+00,5.599732489609999392e-02,7.854203278730000071e-02,-9.842981542580000465e+00,-1.896149362440000073e-03,6.249474827200000859e-04,4.028659313919999777e-03,1.000000000000000000e+00
2.399991781999999851e+00,2.533434317619999779e-02,9.720140541130001255e-02,-9.770008660820000301e+00,5.239495076240000253e-04,-4.760849755260000531e-03,5.457394756380000260e-03,1.000000000000000000e+00
2.404991046000000132e+00,7.349710655579999585e-02,9.199736136170000300e-02,-9.815721779730001373e+00,2.348284004260000300e-03,3.114283550530000302e-03,-1.045681163669999990e-02,1.000000000000000000e+00
2.409954815999999944e+00,3.194773800059999558e-02,8.132408298750000430e-02,-9.808726221749999752e+00,4.515615291890000618e-03,-1.133126392960000055e-02,-9.945873171089999847e-04,1.000000000000000000e+00
2.414989251000000170e+00,6.991414720219998880e-02,6.095237175390000317e-02,-9.817548995160001013e+00,8.739789016539999816e-03,1.219395454970000070e-02,-8.757039904590000552e-05,1.000000000000000000e+00
2.419965518000000149e+00,5.232658222780000451e-02,8.959366122079999439e-02,-9.813666600760001302e+00,-4.645243287090000499e-03,1.126087643210000114e-02,8.760374039410000896e-04,1.000000000000000000e+00
2.425018768999999796e+00,5.681261420119999850e-02,9.545499100220000699e-02,-9.825501999989999291e+00,1.201473409309999950e-03,-4.513284657150000109e-04,-2.856948878619999885e-03,1.000000000000000000e+00
2.429948525999999998e+00,5.934960816580000381e-02,1.157991201089999950e-01,-9.807972188509999967e+00,3.709436627099999950e-03,3.166304435579999580e-03,-4.030755255369999901e-03,1.000000000000000000e+00
2.435001739000000054e+00,3.302622655279999903e-02,7.065882808960001482e-02,-9.807241536150000272e+00,5.766835995020000091e-03,-8.681830018760000253e-03,1.135519240050000041e-03,1.000000000000000000e+00
2.440009831999999879e+00,6.438544234199999883e-02,9.211311496210002059e-02,-9.791437817820000333e+00,1.240200642500000061e-02,8.019098080689998631e-03,3.324210643769999734e-03,1.000000000000000000e+00
2.444994878000000149e+00,7.947029921379999973e-02,5.470125720359999416e-02,-9.853256268350000013e+00,8.395661599930000218e-03,3.752348478880000292e-03,-1.354265492410000040e-03,1.000000000000000000e+00
2.449958370000000052e+00,4.347395710930000018e-02,1.029090881340000013e-01,-9.794156429130000063e+00,3.538884920999999743e-03,3.199415747080000018e-03,-4.891115240750000363e-03,1.000000000000000000e+00
2.454995648999999780e+00,2.682251079119999868e-02,8.389055420839998389e-02,-9.789483761139999629e+00,-4.418508149680000843e-03,2.801517024639999572e-03,4.182394593949999295e-03,1.000000000000000000e+00
2.460020129000000111e+00,5.955194863780000070e-02,1.111144054919999957e-01,-9.790670340580000186e+00,-2.890477480830000185e-04,4.010780714450000277e-03,1.387360692020000140e-02,1.000000000000000000e+00
2.464973645000000158e+00,7.699257485549999835e-02,7.772887150719999527e-02,-9.808908592579999919e+00,1.763344742359999884e-02,7.954030297700000890e-03,4.001260269429999551e-03,1.000000000000000000e+00
2.469958446000000141e+00,8.842411511789999290e-02,8.702714433420000173e-02,-9.828451497439999685e+00,-9.277579374610000346e-03,4.306396935140000687e-03,-4.941842518750000531e-03,1.000000000000000000e+00
2.474989009000000184e+00,8.603284520039999883e-02,9.660630732870000015e-02,-9.813540344039999752e+00,1.028215163389999956e-03,-8.488454855979999866e-03,-3.414907027040000025e-03,1.000000000000000000e+00
2.479950119999999814e+00,3.844630623959999910e-02,4.547636470659999902e-02,-9.833154560569999703e+00,-7.620851392860000708e-04,-3.427126444879999984e-03,-3.696227911859999680e-03,1.000000000000000000e+00
2.484996209000000178e+00,4.039075483829999980e-02,9.792625822030000260e-02,-9.805867909710000774e+00,-1.078072190279999974e-02,-4.758756607770000396e-03,1.197386719289999894e-02,1.000000000000000000e+00
2.490005279000000016e+00,6.071044362369999031e-02,6.947307063749999512e-02,-9.808321732599999621e+00,2.327855676409999828e-03,-1.930131390690000351e-02,1.184920314700000114e-03,1.000000000000000000e+00
2.495000286999999872e+00,4.148379250569999427e-02,7.769104198110000914e-02,-9.814766670960000994e+00,-7.998838555070000248e-06,4.660508595409999788e-03,7.577441632750000697e-03,1.000000000000000000e+00
2.499960188999999833e+00,7.646241350160000450e-02,1.051453684190000043e-01,-9.804171627189999683e+00,-7.469831034539999894e-03,1.651833951470000131e-02,-4.843114875259999820e-03,1.000000000000000000e+00
2.504991104000000135e+00,-8.641667515249999362e-03,7.283780239680000268e-02,-9.824379717959999425e+00,1.828539185229999947e-02,8.230442181230000764e-03,2.888875640929999822e-02,1.000000000000000000e+00
2.509971613999999906e+00,1.003082671189999969e-01,1.158633444520000000e-01,-9.803025964279999727e+00,-7.712760940189999567e-03,-1.474994467569999950e-03,3.789104986939999947e-03,1.000000000000000000e+00
2.514997158999999982e+00,6.747230700799999870e-02,9.089524533869999812e-02,-9.801676887759999346e+00,7.295244140549999798e-04,5.784348584709999956e-03,-4.162254277619999686e-03,1.000000000000000000e+00
2.519958268999999973e+00,2.771198871050000248e-02,9.682190457440000009e-02,-9.807442611679999089e+00,-5.183926783500000281e-03,-7.397714070979999335e-03,3.928967285900000078e-03,1.000000000000000000e+00
2.524948823999999981e+00,3.855221886609999649e-02,1.090019707819999961e-01,-9.775255329300000184e+00,4.101553000509999998e-03,-2.343331230800000352e-03,5.418658256529999308e-03,1.000000000000000000e+00
2.529970346999999897e+00,6.983582583549999279e-02,8.392380802399999895e-02,-9.783658415990000634e+00,-2.720274729650000098e-03,3.971231635659999877e-03,-4.989994689819999933e-03,1.000000000000000000e+00
2.535031674999999929e+00,3.455548651330000304e-02,1.027267538370000011e-01,-9.798886964780001207e+00,3.934908658270000123e-03,-1.568636856970000160e-03,1.614537835120000153e-02,1.000000000000000000e+00
2.540029700999999918e+00,4.440756186480000756e-02,1.102806580819999938e-01,-9.772354347169999400e+00,1.392630673939999897e-02,-1.191770285370000182e-02,5.513350479300000058e-03,1.000000000000000000e+00
2.544992598999999966e+00,6.376113186460000137e-02,8.389400654079999520e-02,-9.790571556379999762e+00,8.575504645709998777e-03,4.639192484320000219e-03,-6.077993661170000110e-03,1.000000000000000000e+00
2.549879874999999796e+00,3.962297620300000295e-02,7.771394793269999213e-02,-9.805677940100000711e+00,1.358569599690000011e-02,-1.978331245479999882e-03,9.206886403260000976e-03,1.000000000000000000e+00
2.554966312999999989e+00,8.008100585760000167e-02,6.355899688860000563e-02,-9.799115512839998487e+00,-8.238880895080000211e-03,-3.904970828439999989e-03,-4.784663207829999501e-03,1.000000000000000000e+00
2.559938400000000058e+00,6.705873950479999956e-02,6.593514230229999273e-02,-9.792464822779999523e+00,2.218008507039999876e-03,-8.059179410339999475e-03,-3.567089326679999742e-03,1.000000000000000000e+00
2.564981916999999889e+00,6.385382881649999398e-02,3.592579761890000306e-02,-9.824445184410000920e+00,3.774964483449999662e-03,-6.291927304120000126e-03,-1.007663784550000058e-03,1.000000000000000000e+00
2.569948144000000045e+00,6.120350610389999751e-02,8.009816705489999911e-02,-9.813453834800000664e+00,9.590797126290000890e-03,4.952790681270000800e-03,-7.088092621420000357e-03,1.000000000000000000e+00
2.574974940999999795e+00,3.917242855710000027e-02,8.409004970270000934e-02,-9.767906135589999650e+00,-2.314974786709999687e-03,-6.780924275520000717e-03,-6.109430920329999605e-03,1.000000000000000000e+00
2.580003302000000165e+00,5.770102354150000168e-02,8.630799061359999136e-02,-9.782518013780000743e+00,1.072837971150000097e-02,1.453022006899999836e-02,-9.697396308180001104e-03,1.000000000000000000e+00
2.585037584000000166e+00,4.042881725979999979e-02,8.492503008889999705e-02,-9.807386497579999585e+00,4.046163521710000044e-03,-1.052188314500000083e-02,-7.578011136499999620e-03,1.000000000000000000e+00
2.589955817999999965e+00,4.470592375680000792e-03,8.743648318690000476e-02,-9.797477097989998995e+00,1.262008771299999964e-02,3.028105944400000162e-03,6.199767813089999968e-03,1.000000000000000000e+00
2.595011056999999788e+00,1.170215015110000062e-01,1.137072806629999960e-01,-9.772340318639999523e+00,-3.000102238729999895e-03,2.240506000820000065e-03,-2.129375934599999839e-02,1.000000000000000000e+00
2.600037024999999780e+00,-7.627138444149999218e-03,8.018758063769999833e-02,-9.801629541489999653e+00,-8.401584345850000683e-04,1.164700649680000012e-02,9.568344801659999996e-03,1.000000000000000000e+00
2.604980419999999963e+00,1.185627944030000075e-01,8.110508820830000798e-02,-9.831566999110000538e+00,-6.754867732520000723e-03,-1.155323814599999851e-03,-2.211312577130000040e-02,1.000000000000000000e+00
2.609954553000000121e+00,2.215415137070000234e-02,1.004560780919999952e-01,-9.791362414500000000e+00,5.883197300140001126e-03,4.185946658249999931e-03,-7.648544851689999518e-04,1.000000000000000000e+00
2.614948392000000066e+00,3.733357977440000114e-02,8.729201494860000521e-02,-9.809719908960000012e+00,7.227784954009999372e-04,-3.627574071290000108e-03,1.728631090369999899e-03,1.000000000000000000e+00
2.619959220999999783e+00,4.655257910340000055e-02,6.931024932519999626e-02,-9.820704244319999887e+00,6.966070272029998775e-03,1.357645075770000029e-02,6.070898845789999589e-03,1.000000000000000000e+00
2.625003432000000192e+00,1.031066017339999918e-01,1.086786297130000051e-01,-9.802232183560001033e+00,2.280667424199999890e-03,-7.025670260190000106e-03,-1.258263643829999993e-02,1.000000000000000000e+00
2.629976262000000009e+00,2.182334166390000399e-02,9.441133630139998678e-02,-9.807668237130000577e+00,-5.945761688050000583e-03,3.725342452529999994e-03,2.760807517920000394e-03,1.000000000000000000e+00
2.635047038999999813e+00,5.534141827069999353e-02,1.025949441510000115e-01,-9.825520704689999718e+00,4.697793163359999594e-03,1.124433055520000085e-02,-7.721621077510000281e-04,1.000000000000000000e+00
2.639991911000000080e+00,5.711523214329999876e-02,1.028287985730000076e-01,-9.792538472539998651e+00,-1.344558433630000218e-03,1.408043783160000274e-03,2.158500254149999919e-03,1.000000000000000000e+00
2.644996211000000041e+00,5.858629107660000279e-02,9.206385072660000501e-02,-9.808528653350000681e+00,-1.201807055619999974e-02,-5.819716956469999508e-03,-6.752762012179999891e-03,1.000000000000000000e+00
2.649921556999999872e+00,1.501969181429999890e-02,1.134344459380000059e-01,-9.812308171889998931e+00,-1.219521625900000118e-03,-6.253205239770000257e-03,7.329653948550000041e-03,1.000000000000000000e+00
2.655003879000000122e+00,6.048277691420000240e-02,8.942055140990000373e-02,-9.836157834039999770e+00,-2.432293258610000036e-03,-8.902773261069999930e-03,1.051008701320000098e-03,1.000000000000000000e+00
2.659998555000000042e+00,5.285216330479999836e-02,7.881835637739999234e-02,-9.817476514439999136e+00,1.615545712410000048e-03,1.641075359660000002e-03,7.142975926399999440e-03,1.000000000000000000e+00
2.664977071000000031e+00,8.580490906290000330e-02,6.581476275909999007e-02,-9.803410579690000404e+00,4.152932204310000146e-03,-1.605342701080000184e-02,2.447223756460000215e-03,1.000000000000000000e+00
2.669923792000000073e+00,6.060432550119999873e-02,9.667055907080000787e-02,-9.821966811599999403e+00,3.147342707960000107e-03,9.626448154449999571e-04,-2.593877026810000042e-03,1.000000000000000000e+00
2.675056666000000138e+00,4.505592907119999879e-02,7.690081405199999942e-02,-9.784977681900000945e+00,1.109376922250000091e-02,6.623719818890000215e-03,-1.811752468349999909e-02,1.000000000000000000e+00
2.679984575999999841e+00,1.827542394089999925e-02,9.547331211020000652e-02,-9.816447755910001405e+00,-3.633484942840000276e-03,-9.222621098159999517e-03,6.352412514390000202e-03,1.000000000000000000e+00
2.685050482999999932e+00,-4.704149969810000886e-03,7.436760577999999844e-02,-9.802852945799999773e+00,2.221374888899999803e-04,7.958603091539999397e-03,1.615371741349999959e-02,1.000000000000000000e+00
2.690016697999999984e+00,1.029079738890000123e-01,9.448696795399999515e-02,-9.787033445380000529e+00,4.538251087069999738e-03,2.849648706610000311e-03,4.826816730199999690e-03,1.000000000000000000e+00
2.695002625999999957e+00,1.093289103149999997e-01,7.997316156889999750e-02,-9.815518366110000059e+00,1.158768124880000042e-02,6.494103930889999834e-03,-1.054301299150000107e-02,1.000000000000000000e+00
2.700039800999999962e+00,4.094284489629999857e-02,9.676800069640000002e-02,-9.806737678280001091e+00,-4.113196860999999982e-03,-8.110320195559999473e-03,-6.566243246200000093e-04,1.000000000000000000e+00
2.704953582999999995e+00,5.377276244819999967e-02,6.714274626010000024e-02,-9.801249602260000415e+00,7.539687678220000772e-03,1.126447040589999803e-02,-6.087251007560000489e-03,1.000000000000000000e+00
2.709969603999999865e+00,8.887704651720000626e-02,1.040684599029999963e-01,-9.783248081620000036e+00,-1.297429762780000044e-02,-1.783103332850000024e-03,-1.505646295850000121e-02,1.000000000000000000e+00
2.715011323999999782e+00,1.622984392220000113e-02,7.984250266030000487e-02,-9.841029239460000966e+00,1.066174940210000161e-03,-1.724047772590000041e-02,4.193063825370000122e-03,1.000000000000000000e+00
2.720015704000000145e+00,6.062168762799999971e-02,1.134986337479999968e-01,-9.798445650760001513e+00,5.525746382770000374e-03,-2.415028400719999770e-03,2.975191455330000127e-03,1.000000000000000000e+00
2.725045074000000067e+00,1.057847805680000031e-01,8.592046173389998598e-02,-9.818898071679999617e+00,-4.932534880939999471e-03,-8.186199702320000673e-03,-1.481396518649999959e-02,1.000000000000000000e+00
2.729985092000000169e+00,-2.633768869960000179e-03,8.623920882689999068e-02,-9.791956873260000194e+00,-8.428028784689999345e-03,2.268049865960000114e-05,1.051459088920000083e-02,1.000000000000000000e+00
2.734979382000000125e+00,8.906235822249999878e-02,1.148472079450000016e-01,-9.776068399249998819e+00,-2.294788602739999701e-03,6.679766811430000624e-03,-2.807260025290000353e-04,1.000000000000000000e+00
2.739942936999999912e+00,5.191222014010000302e-02,7.769904262450000321e-02,-9.806906020589998718e+00,1.269996725020000085e-02,1.763903303069999911e-03,9.346912614999999466e-03,1.000000000000000000e+00
2.744948819000000206e+00,7.717384057340000159e-02,1.112245056700000012e-01,-9.789833305229999283e+00,2.718552714209999791e-04,5.371855106199999348e-03,-4.586962517350000497e-03,1.000000000000000000e+00
2.749950226000000164e+00,6.951244823319999155e-02,8.508665039139999553e-02,-9.778295427650000704e+00,1.462162937969999988e-03,7.530401926489999022e-04,-4.442836623640000239e-03,1.000000000000000000e+00
2.754959221000000014e+00,5.715454124040000167e-02,8.361080568519999034e-02,-9.813899240479999619e+00,-6.192230619490000053e-03,7.457775995139999739e-03,-1.110470853749999853e-03,1.000000000000000000e+00
2.759917403000000213e+00,2.224836442619999681e-04,8.132984600800000075e-02,-9.816482827230000652e+00,-1.711910218000000164e-02,4.856131970880000169e-03,1.414637826380000032e-02,1.000000000000000000e+00
2.764969934999999879e+00,7.788123079099999735e-02,1.099584586559999855e-01,-9.793751355459999530e+00,-1.211106404659999941e-02,1.042445283379999851e-02,5.936536937949999856e-03,1.000000000000000000e+00
2.769955849000000025e+00,6.788357752290000158e-02,8.845947869219999982e-02,-9.813238730739998417e+00,7.027234882119999700e-03,7.032159715890000558e-03,-8.360847830770000780e-03,1.000000000000000000e+00
2.774978606999999986e+00,3.030047768359999533e-02,6.819900014759999740e-02,-9.815643453789999029e+00,5.289929918940000121e-03,4.617271479220000537e-03,-6.164936348799999934e-04,1.000000000000000000e+00
2.779941147999999806e+00,4.560684095219999512e-02,8.228513743889999399e-02,-9.827186592069999449e+00,-1.408366719260000172e-03,-7.842555642129999532e-03,1.162521634249999956e-02,1.000000000000000000e+00
2.784968500000000180e+00,6.244611744300000711e-02,7.649951237530000503e-02,-9.817005389800000259e+00,1.843205653130000057e-03,-7.199579384179999667e-03,4.876340739430000577e-03,1.000000000000000000e+00
2.789941424999999864e+00,5.377821950799999834e-02,9.324849393390000074e-02,-9.808573077020000142e+00,-5.297915078699999905e-03,4.138510674239999527e-03,-9.640238713469999202e-04,1.000000000000000000e+00
2.795001500000000139e+00,1.482577211080000033e-02,9.233095896389997836e-02,-9.774179224510000097e+00,2.220668247899999813e-04,-6.161470897500000155e-03,1.675917394460000112e-02,1.000000000000000000e+00
2.800031682000000188e+00,8.822669284970000025e-02,9.713717193550000517e-02,-9.766039172670000212e+00,-2.583759371189999886e-03,4.222276154910000259e-03,1.577141229060000083e-04,1.000000000000000000e+00
2.805008080999999986e+00,7.014119285710000706e-02,1.025788697990000081e-01,-9.818955354819999926e+00,1.246750820430000007e-03,-1.304882112890000043e-02,-5.418008659029999608e-04,1.000000000000000000e+00
2.809920568999999979e+00,4.525710049930000561e-02,9.095942401550000111e-02,-9.787814951150000553e+00,-7.523261010649998949e-03,2.882010303440000077e-03,1.078477595000000046e-02,1.000000000000000000e+00
2.815003810999999967e+00,5.237070449740000022e-02,9.432307349599999835e-02,-9.822828396860000311e+00,2.878889907150000010e-03,-3.595408517869999512e-03,4.430864006279999594e-03,1.000000000000000000e+00
2.819917502000000020e+00,4.156268926109999567e-02,1.149412520379999997e-01,-9.777581726430000231e+00,-3.118715714659999784e-03,2.128096297380000293e-03,2.600920386610000145e-03,1.000000000000000000e+00
2.824980803999999956e+00,5.919860972210000405e-02,1.004331356079999904e-01,-9.791536602020000757e+00,9.080702438950000871e-03,-7.945709861810000552e-03,8.111692033710000277e-03,1.000000000000000000e+00
2.829981724000000032e+00,6.372038429569999718e-02,1.506284505609999935e-01,-9.772204709560000424e+00,1.084030792120000038e-02,2.512231469150000285e-03,7.764091715219999853e-04,1.000000000000000000e+00
2.834997791999999794e+00,8.798203390619999120e-02,1.207234247689999984e-01,-9.782218154049999725e+00,1.971044577659999963e-02,-8.653532713649998709e-03,-6.988979876040000289e-03,1.000000000000000000e+00
2.839926095000000039e+00,4.471919423030000507e-02,9.668201204649999603e-02,-9.815192202900000495e+00,-6.405164487659999704e-03,-6.342840380970000101e-03,2.789578400550000309e-03,1.000000000000000000e+00
2.844974242000000153e+00,4.567782839569999725e-02,9.194345748359999959e-02,-9.819475579299998813e+00,8.828138001260000048e-03,-5.357853136959999860e-03,4.103464074429999733e-03,1.000000000000000000e+00
2.849981574000000073e+00,1.331131242729999796e-02,1.076510950290000129e-01,-9.795421334500000299e+00,2.900000894439999730e-03,-5.026015453039999609e-03,1.659428700799999920e-02,1.000000000000000000e+00
2.855030619999999963e+00,5.742033887000000392e-02,9.330123790130000205e-02,-9.805943313039998444e+00,1.331844832750000117e-02,-9.510195814069999061e-04,4.631090909239999297e-03,1.000000000000000000e+00
2.859992699000000194e+00,7.371207361379999989e-02,6.715649622420000187e-02,-9.796686824389999160e+00,-8.415690390389999167e-04,6.625772453839999694e-03,-7.299923803660000356e-03,1.000000000000000000e+00
2.864983752000000106e+00,4.204444946259999760e-02,9.324733402330000198e-02,-9.805238379640000446e+00,-1.088206656280000031e-02,-1.272550877179999887e-02,-2.881642431019999871e-03,1.000000000000000000e+00
2.869975200999999920e+00,4.649780757569999673e-02,9.563383643419999525e-02,-9.806310392780000385e+00,-1.267613098029999989e-02,-1.183829456570000167e-02,-3.156061051409999891e-03,1.000000000000000000e+00
2.875002410000000008e+00,5.648449192519999773e-02,7.990209649349999665e-02,-9.827202958690000045e+00,-9.514718316499999953e-03,-1.816197857260000090e-02,4.130992572750000202e-03,1.000000000000000000e+00
2.879986417000000021e+00,6.487997526010000349e-02,9.676569914150000284e-02,-9.804526431970000289e+00,1.105629140510000019e-03,-1.727499067780000107e-03,4.866198636589999862e-03,1.000000000000000000e+00
2.885009971000000117e+00,5.396772789780000107e-02,1.038105304859999883e-01,-9.817527952369999866e+00,1.488994574169999951e-03,-1.845360151490000114e-03,8.154788054529999927e-03,1.000000000000000000e+00
2.889985666999999925e+00,9.075637572410000242e-02,8.124264264860001084e-02,-9.808231716230000785e+00,3.806150751189999858e-03,-1.354271080340000159e-04,-1.661588903519999895e-04,1.000000000000000000e+00
2.895003228999999845e+00,8.625678101620000426e-02,9.714402180139999898e-02,-9.759300804330001355e+00,-3.547582309690000286e-03,9.132422506809999632e-03,-8.432693779470000484e-03,1.000000000000000000e+00
2.899983408000000207e+00,1.026064245259999952e-02,1.123244936680000139e-01,-9.803893979289998839e+00,6.369672715659999845e-03,-1.047816034410000048e-02,7.139944471419999890e-03,1.000000000000000000e+00
2.904996446000000176e+00,6.230561299380000390e-02,1.206112787639999906e-01,-9.805359960189999669e+00,-1.225711032750000096e-02,2.056265994910000047e-02,-9.586242958900000445e-05,1.000000000000000000e+00
2.909963696000000155e+00,6.370108137360000478e-02,8.843098325010000094e-02,-9.812342074160000038e+00,-3.982406109569999741e-03,-6.447503808890000382e-03,-7.098803762350000719e-03,1.000000000000000000e+00
2.915001045999999985e+00,8.972062120189999712e-02,9.073947938819998393e-02,-9.809548059529999975e+00,6.426978856329999823e-03,1.186997862530000079e-03,-1.392353232950000082e-02,1.000000000000000000e+00
2.919993574999999897e+00,4.548155690499999793e-02,5.397765563680000794e-02,-9.796213361659999563e+00,-3.860474098469999539e-03,3.449454903599999747e-03,2.743326593190000082e-03,1.000000000000000000e+00
2.925011382000000104e+00,1.376621658790000077e-02,9.577045929269999147e-02,-9.795241301760000852e+00,-5.968073382970000285e-03,1.228657085449999910e-03,1.335512660440000068e-02,1.000000000000000000e+00
2.929962229000000029e+00,7.933865392449999943e-02,8.108925131829999855e-02,-9.840601369439998081e+00,-1.053290441630000060e-02,1.693231519310000070e-03,-7.211809977890000327e-03,1.000000000000000000e+00
2.935038468000000123e+00,5.587589047360000394e-02,8.371070412939998762e-02,-9.794195007569999945e+00,2.802176866680000308e-03,2.534135244789999762e-03,6.843587383630000097e-03,1.000000000000000000e+00
2.939934576999999827e+00,4.550719823630000604e-02,1.219449841870000051e-01,-9.793126501559999753e+00,2.095940755680000041e-03,3.854956012219999954e-04,2.709354739640000044e-03,1.000000000000000000e+00
2.944984794999999878e+00,6.847465701759999912e-02,9.332892049270000157e-02,-9.799045954740000397e+00,7.998808287080000010e-03,-9.564550593500000669e-03,-1.032867468890000077e-02,1.000000000000000000e+00
