t,ax,ay,az,wx,wy,wz,zv
5.075882000000000310e-03,3.720384797219999484e+00,1.632989763000000094e+00,8.963667143740000398e+00,7.558538112790000492e-03,6.443946622310000281e-03,-2.998168114570000462e-03,1.000000000000000000e+00
1.019112999999999963e-02,3.690552553540000336e+00,1.654468604359999873e+00,8.954022532559999803e+00,8.223975077270000850e-03,-3.685904666779999967e-03,-5.548557732250000187e-03,1.000000000000000000e+00
1.522198800000000053e-02,3.668749887049999714e+00,1.651660268939999954e+00,8.902851732769999415e+00,1.556053664540000062e-02,7.245910819619999846e-03,1.092962222170000119e-03,1.000000000000000000e+00
2.025467900000000113e-02,3.699232119080000381e+00,1.629373910589999808e+00,8.938812103949999255e+00,2.483782358469999868e-02,-1.193617098030000032e-02,-7.941600866619999768e-03,1.000000000000000000e+00
2.519099099999999938e-02,3.688255967029999915e+00,1.626872595300000057e+00,8.925638734119999640e+00,1.615171320739999805e-02,8.730923291299999556e-04,-1.019782479849999993e-02,1.000000000000000000e+00
3.010420600000000141e-02,3.698865039330000215e+00,1.626802744929999989e+00,8.919534572030000774e+00,2.600100636479999935e-02,3.998797852550000330e-03,-1.543115358800000066e-02,1.000000000000000000e+00
3.508269499999999708e-02,3.659296706790000187e+00,1.601567765909999830e+00,8.887658839820000267e+00,1.677656173710000143e-02,-1.824129838499999974e-03,-3.184605389829999952e-03,1.000000000000000000e+00
4.010096600000000178e-02,3.686958036180000509e+00,1.626900067829999852e+00,8.930306141410000009e+00,7.384703960270000075e-03,-1.312403194610000171e-02,-2.942292718219999964e-03,1.000000000000000000e+00
4.509405400000000147e-02,3.716709323580000390e+00,1.633721438279999827e+00,8.907801464129999403e+00,1.625078544020000168e-02,2.554470673199999743e-03,-7.631799671799999402e-04,1.000000000000000000e+00
5.008853499999999653e-02,3.709994920630000248e+00,1.635038219969999984e+00,8.916562278220000692e+00,1.278248988089999809e-02,4.512905143199999816e-03,-2.457793802020000109e-03,1.000000000000000000e+00
5.510687000000000224e-02,3.747526194390000231e+00,1.649362074999999983e+00,8.936912407810000403e+00,1.447994261980000037e-02,-6.045355461539999448e-03,-5.450846161689999574e-03,1.000000000000000000e+00
6.004280800000000307e-02,3.731479899469999584e+00,1.622150973600000157e+00,8.951575723930000450e+00,-5.605394835579999784e-05,-7.169303484259999422e-03,-2.905601635579999932e-03,1.000000000000000000e+00
6.524104099999999962e-02,3.757640761169999788e+00,1.647178301220000085e+00,8.958471913189999469e+00,6.408381741489999929e-03,-3.872139146550000136e-03,-1.226265821609999994e-02,1.000000000000000000e+00
7.011719700000000610e-02,3.695620066060000042e+00,1.667603541870000150e+00,8.956552343300000274e+00,7.649308536199999828e-03,-8.733673021200000913e-03,-2.155375294389999877e-02,1.000000000000000000e+00
7.526368999999999421e-02,3.626692075780000302e+00,1.660476028079999944e+00,8.951096415980000387e+00,1.065410953020000211e-02,-5.638798233120000288e-03,-3.700148547070000304e-03,1.000000000000000000e+00
8.004301099999999725e-02,3.618772973219999578e+00,1.641616283179999858e+00,8.955867868169999468e+00,8.960466831920000166e-03,-2.721425145859999832e-03,-2.586208283899999751e-04,1.000000000000000000e+00
8.523694499999999452e-02,3.688282270519999795e+00,1.651930902579999971e+00,8.936112781860000354e+00,3.427807241679999960e-03,3.685068804770000100e-04,-1.087389886380000018e-03,1.000000000000000000e+00
9.010553100000000259e-02,3.689330610530000332e+00,1.625611197060000013e+00,8.917298191280000452e+00,2.890626434239999300e-03,-1.132802106439999984e-02,-3.913752268999999735e-03,1.000000000000000000e+00
9.509359700000000193e-02,3.707798871890000125e+00,1.647252827760000038e+00,8.937866347530000866e+00,-5.825656000520000079e-03,-1.084806956350000025e-02,-2.387716248629999719e-02,1.000000000000000000e+00
1.000928670000000020e-01,3.727991472830000319e+00,1.665962496669999959e+00,8.924151125910000815e+00,-3.332823747769999949e-03,-1.154061779379999923e-02,-2.532900311050000075e-02,0.000000000000000000e+00
1.050511860000000047e-01,3.704939390809999900e+00,1.646017586879999994e+00,8.964270954850000805e+00,2.123266225680000251e-03,-1.345277391370000054e-02,-4.766618832950000016e-03,1.000000000000000000e+00
1.100744699999999937e-01,3.755721775799999662e+00,1.673203407709999979e+00,8.938271421199999622e+00,8.636220358309999734e-03,-1.103346236049999873e-02,-1.783931814129999932e-02,1.000000000000000000e+00
1.150777429999999962e-01,3.738286949140000370e+00,1.664577033659999872e+00,8.914868333779999432e+00,2.468694001440000299e-02,-8.625620976090001002e-03,-8.097436279060000325e-03,0.000000000000000000e+00
1.200608860000000055e-01,3.705950029160000270e+00,1.710248505379999839e+00,8.942683392419999322e+00,1.362445112320000151e-02,-1.433481462300000009e-02,-1.500437781209999939e-02,1.000000000000000000e+00
1.250789969999999973e-01,3.693539460390000251e+00,1.670830687229999834e+00,8.926075371970000560e+00,1.249944232400000167e-02,-1.686854660509999951e-02,-1.227128878240000068e-02,0.000000000000000000e+00
1.300319390000000130e-01,3.685622111399999845e+00,1.667199929509999956e+00,8.922280071339999452e+00,1.219818834220000141e-02,-1.163927651940000092e-02,-1.267149113119999879e-03,1.000000000000000000e+00
1.350268649999999959e-01,3.661857204930000442e+00,1.636366107570000006e+00,8.923180235049999354e+00,3.573391214010000067e-02,-1.495208218690000090e-02,1.000987179579999886e-02,1.000000000000000000e+00
1.400946449999999899e-01,3.677475922080000181e+00,1.622025009140000140e+00,8.908271419730001028e+00,2.531601674850000178e-02,-1.108440197999999849e-02,4.644030705090000655e-03,0.000000000000000000e+00
1.451361340000000000e-01,3.680556060180000255e+00,1.644452529520000317e+00,8.885642239299999190e+00,8.049197494979998951e-03,-1.561926119029999858e-02,-5.799011327329999660e-03,1.000000000000000000e+00
1.500915600000000127e-01,3.655901803659999949e+00,1.633896940979999934e+00,8.901336067509999950e+00,1.238763052970000104e-02,-7.315484341229998820e-03,-5.567337386310000809e-03,1.000000000000000000e+00
1.550694679999999881e-01,3.643730888869999518e+00,1.662666377729999923e+00,8.927360735610001541e+00,1.464946474879999863e-02,-9.005590341989999636e-03,1.143363537269999862e-03,1.000000000000000000e+00
1.600303710000000046e-01,3.737054192469999592e+00,1.651316423940000000e+00,8.873490613730000476e+00,4.426870960739999993e-03,6.860793102529999694e-03,-1.427390985189999975e-02,1.000000000000000000e+00
1.651027549999999899e-01,3.703499128869999435e+00,1.675556838970000184e+00,8.926917083490000238e+00,2.030013687909999753e-02,4.381975159049999601e-04,-1.108849979939999925e-02,1.000000000000000000e+00
1.700855769999999878e-01,3.724235919690000340e+00,1.698112808039999866e+00,8.936468171170000474e+00,1.505253650249999998e-02,-7.946379482749999640e-03,-5.862186662850000498e-04,1.000000000000000000e+00
1.750053119999999962e-01,3.711555886340000221e+00,1.685055904199999954e+00,8.925617106810001644e+00,2.236590906979999890e-02,7.257776800540000246e-03,-8.212281391020000111e-04,1.000000000000000000e+00
1.800270639999999867e-01,3.731100252500000103e+00,1.663495668160000163e+00,8.917925967789999575e+00,1.479473058130000018e-02,-7.711693178859999227e-03,9.899695869539999922e-04,1.000000000000000000e+00
1.850052450000000126e-01,3.709889998949999601e+00,1.665821480760000028e+00,8.901905391830000625e+00,1.421598251910000110e-02,-2.109138760719999998e-03,1.411279896269999933e-03,1.000000000000000000e+00
1.900016800000000061e-01,3.729209031929999973e+00,1.697062276070000042e+00,8.938647268780000488e+00,7.727148476990000105e-03,2.434758469459999929e-03,-7.708194665610000086e-03,1.000000000000000000e+00
1.949704270000000017e-01,3.711618137919999949e+00,1.655237250649999936e+00,8.911809530730000262e+00,2.322961390020000447e-02,3.507524728780000035e-03,-1.312058232720000016e-02,1.000000000000000000e+00
1.999945280000000047e-01,3.725159464280000332e+00,1.618069695640000027e+00,8.885291526160001396e+00,1.077875308689999791e-02,-8.991890354080000992e-04,-1.602007448670000195e-02,1.000000000000000000e+00
2.049861289999999892e-01,3.683206282430000478e+00,1.619595882290000066e+00,8.921277616299999380e+00,1.101487316190000003e-02,-7.174791768189999266e-03,-1.127147581430000068e-03,1.000000000000000000e+00
2.101974379999999865e-01,3.738540923900000035e+00,1.664309614900000067e+00,9.002124592430000405e+00,-4.541427362709999846e-03,-3.392180893570000393e-03,-1.518393959850000002e-02,1.000000000000000000e+00
2.150988809999999918e-01,3.710174076590000425e+00,1.655754260259999944e+00,8.972576426379999859e+00,-1.624281145630000062e-02,5.307011771949999950e-03,-1.855007745329999985e-02,1.000000000000000000e+00
2.200624720000000090e-01,3.657553077990000290e+00,1.681622276489999956e+00,8.927778668760000258e+00,-3.901987103750000335e-03,-1.930472208190000096e-03,-7.749035954479999849e-03,1.000000000000000000e+00
2.251115449999999962e-01,3.681416184140000158e+00,1.690012795949999980e+00,8.933783462130000075e+00,-2.661511767659999889e-03,-1.737105473880000070e-02,-1.086574513470000072e-02,1.000000000000000000e+00
2.300706519999999866e-01,3.643012803730000471e+00,1.682651181140000007e+00,8.904261599570000740e+00,-1.069654896859999899e-02,-2.233433723449999853e-02,1.226735068489999978e-03,1.000000000000000000e+00
2.350858630000000060e-01,3.704626379340000053e+00,1.662155213339999937e+00,8.881124469610000460e+00,-3.300543408840000015e-03,-3.966942429540000134e-03,-7.318867370489999524e-03,1.000000000000000000e+00
2.401964050000000017e-01,3.663236676590000407e+00,1.671826420270000169e+00,8.892275393700000308e+00,3.890978987330000541e-04,-1.093720784409999883e-04,-3.206882858649999935e-03,1.000000000000000000e+00
2.451030130000000085e-01,3.693229079269999993e+00,1.689816688860000138e+00,8.915576774310000729e+00,-2.992271678519999641e-03,-6.860908586529999680e-03,-6.885073613380000672e-03,1.000000000000000000e+00
2.500643439999999940e-01,3.647143912180000669e+00,1.657612455340000013e+00,8.895050119109999542e+00,-4.596208687869999740e-03,-1.213921606540000094e-02,4.393365234140000452e-04,1.000000000000000000e+00
2.552313190000000120e-01,3.744623458680000461e+00,1.638442037059999912e+00,8.898571278969999554e+00,-5.702346679750000492e-04,1.320742070669999983e-02,-1.768674701450000109e-02,1.000000000000000000e+00
2.602340679999999851e-01,3.720218208480000399e+00,1.660966880340000174e+00,8.900085775189999993e+00,1.045119203629999924e-02,-1.200818084179999974e-02,-1.098290830849999941e-02,1.000000000000000000e+00
2.650505799999999801e-01,3.712733405689999877e+00,1.693246809440000167e+00,8.914503007600000473e+00,8.356556296349999455e-03,5.077644018460000103e-04,-6.277648732069999495e-03,1.000000000000000000e+00
2.700395449999999919e-01,3.696032738510000026e+00,1.639527932599999849e+00,8.895548716280000434e+00,6.422667298469999543e-03,-7.863803766670000861e-03,1.135523244740000055e-02,1.000000000000000000e+00
2.750985950000000013e-01,3.722522101509999626e+00,1.677004115170000142e+00,8.952272474019999038e+00,1.966463401909999617e-02,-1.416625268760000195e-02,-6.018944550310000290e-04,1.000000000000000000e+00
2.800578970000000001e-01,3.677000705789999824e+00,1.666456563799999957e+00,8.966913578319999800e+00,2.627485431729999904e-02,2.519743517039999860e-03,6.315286271270000203e-03,1.000000000000000000e+00
2.852311410000000214e-01,3.703979605869999414e+00,1.672038455580000083e+00,8.926205720349999595e+00,2.911683171990000346e-02,-4.946891567669999684e-04,1.294906949620000004e-03,1.000000000000000000e+00
2.900623689999999866e-01,3.733208038440000376e+00,1.638776821970000075e+00,8.936778552289998956e+00,1.074101496490000029e-02,-8.246245794000000434e-03,-1.156595721839999945e-02,1.000000000000000000e+00
2.951116719999999916e-01,3.663666884700000459e+00,1.624206590960000085e+00,8.893378971029999747e+00,-5.800589453430000236e-03,-9.521476924419999821e-03,-1.325185876340000070e-04,1.000000000000000000e+00
3.002326289999999731e-01,3.652371291439999723e+00,1.654180873460000090e+00,8.912830690469998984e+00,1.838515885170000086e-02,-2.476725028829999953e-03,6.963349878790000592e-03,1.000000000000000000e+00
3.052566870000000265e-01,3.670871701509999419e+00,1.681397673950000060e+00,8.890409599830000786e+00,1.244072522970000004e-02,-1.617866009470000227e-02,-3.111963393170000172e-03,1.000000000000000000e+00
3.102722960000000030e-01,3.696334644069999342e+00,1.666873181770000212e+00,8.874104361719998835e+00,1.300936657939999984e-02,-2.116257091979999866e-03,-1.045104302470000086e-02,1.000000000000000000e+00
3.150815920000000214e-01,3.707736620309999509e+00,1.709637387749999959e+00,8.883430408469999762e+00,1.496337354180000100e-02,1.681436086069999997e-03,-4.326990805569999772e-03,1.000000000000000000e+00
3.200825560000000181e-01,3.644524961859999745e+00,1.753001313179999965e+00,8.922948764380000952e+00,1.178205385799999984e-02,-3.511430462820000053e-03,5.156476050619999627e-03,1.000000000000000000e+00
3.250939259999999775e-01,3.693406481660000296e+00,1.678685638510000189e+00,8.862259610139998856e+00,2.599060349170000464e-02,-1.037011854349999956e-02,-3.660269081590000230e-03,1.000000000000000000e+00
3.300915170000000010e-01,3.697110889140000189e+00,1.651405855789999988e+00,8.871942215249999819e+00,-6.244166870599999640e-04,-7.555267075079999568e-04,-1.335523184390000062e-02,1.000000000000000000e+00
3.350981190000000276e-01,3.706027770569999991e+00,1.681371224330000080e+00,8.918068006600000430e+00,8.394760516239999667e-05,-8.189463987950000362e-04,-3.493637777859999894e-03,1.000000000000000000e+00
3.402367980000000069e-01,3.734331197250000400e+00,1.642988009930000048e+00,8.883557249720000826e+00,1.183729805050000132e-02,1.380712538959999978e-02,-4.764945711939999606e-03,1.000000000000000000e+00
3.451123910000000183e-01,3.709028413690000026e+00,1.685158049400000024e+00,8.927506866079999881e+00,1.302824821320000027e-02,5.413967650379999420e-03,-1.590866409240000029e-02,1.000000000000000000e+00
3.502560699999999749e-01,3.736432261180000491e+00,1.677633791369999905e+00,8.898975183599999284e+00,7.516759447749999865e-03,-4.008830524980000129e-03,-2.099527977409999802e-02,1.000000000000000000e+00
3.552635840000000211e-01,3.717039578450000104e+00,1.694164362670000257e+00,8.884567888060001195e+00,2.277339110149999984e-03,5.954276304689999459e-03,-1.668898016209999918e-02,1.000000000000000000e+00
3.602535190000000220e-01,3.688280224690000608e+00,1.696761831820000177e+00,8.907388207160000348e+00,2.422510879110000188e-03,2.410220727320000131e-02,-7.138608489189999552e-04,1.000000000000000000e+00
3.651052879999999723e-01,3.742617087300000200e+00,1.666670206550000088e+00,8.871446540680000936e+00,-8.909729309379998963e-03,1.214508526029999848e-02,-6.033706478769999999e-03,1.000000000000000000e+00
3.701111579999999956e-01,3.763212131559999563e+00,1.681316133149999947e+00,8.926565201319998977e+00,6.564521230759999895e-03,1.248827949170000159e-02,-7.013754919170000178e-03,1.000000000000000000e+00
3.751286679999999985e-01,3.740176416150000183e+00,1.693336095160000054e+00,8.939699992699999598e+00,3.517484758049999917e-03,6.585543509569999170e-03,2.037683734669999951e-03,1.000000000000000000e+00
3.801042949999999809e-01,3.712932435390000396e+00,1.651778342360000096e+00,8.924923279330000625e+00,-8.250279352070000877e-03,5.722078029069999246e-03,-3.445771057159999640e-03,1.000000000000000000e+00
3.852711939999999835e-01,3.695080552359999881e+00,1.659929061720000210e+00,8.901246635660001516e+00,-3.346186596900000039e-03,9.445628151299999622e-03,-4.063664004210000222e-03,1.000000000000000000e+00
3.902549009999999874e-01,3.721491881680000446e+00,1.655256832130000078e+00,8.913072682539999292e+00,9.868806228039998709e-04,2.478282153609999774e-02,-1.572507061059999836e-02,1.000000000000000000e+00
3.950992369999999920e-01,3.714406599589999747e+00,1.643258643560000065e+00,8.921275862739999951e+00,-1.199938543140000036e-02,9.905118495230000319e-03,1.146405236800000045e-03,1.000000000000000000e+00
4.000825960000000125e-01,3.762369835509999927e+00,1.669921171170000163e+00,8.981701982129999706e+00,-2.178934216499999951e-02,-1.400395063680000100e-03,-2.471660729499999994e-03,1.000000000000000000e+00
4.050747639999999761e-01,3.746095869319999938e+00,1.685462877560000017e+00,8.990003362000001275e+00,-5.157837178560000305e-03,-3.528012661260000390e-03,1.127440249549999975e-03,1.000000000000000000e+00
4.100471900000000058e-01,3.696405371219999569e+00,1.757325752249999873e+00,9.022284167880000538e+00,-7.729950826620000069e-03,7.652221713219999402e-03,-1.023749355230000159e-03,1.000000000000000000e+00
4.150416789999999967e-01,3.626293724119999506e+00,1.742976470509999931e+00,8.999514117669999536e+00,9.366787038740000473e-03,-7.729961536820000381e-03,1.534195523710000023e-02,1.000000000000000000e+00
4.200589759999999728e-01,3.737824884580000173e+00,1.712637154079999835e+00,8.948315260830000284e+00,3.803743049500000074e-03,-3.211158886550000147e-02,-2.295203972609999917e-03,1.000000000000000000e+00
4.250950019999999996e-01,3.656752283009999882e+00,1.669522381109999953e+00,8.898432747290000222e+00,-1.214912254360000186e-02,-9.546071290969999554e-03,2.063251333309999713e-03,1.000000000000000000e+00
4.299787820000000038e-01,3.673732351640000449e+00,1.681349450889999764e+00,8.901187014430000488e+00,4.516353947109999771e-04,-3.329266794030000601e-03,1.067653484639999838e-02,1.000000000000000000e+00
4.349124030000000030e-01,3.683506726680000565e+00,1.645743884510000088e+00,8.905353486460001022e+00,-1.347958762199999959e-02,-1.767593249679999881e-02,8.530982770030001022e-03,1.000000000000000000e+00
4.399174279999999992e-01,3.688355920280000699e+00,1.643094685170000124e+00,8.876568121480000073e+00,-1.423781272020000106e-02,7.566276472060000716e-03,6.897862069309999844e-03,1.000000000000000000e+00
4.449075169999999746e-01,3.696242289609999787e+00,1.668212613679999956e+00,8.896410886069999080e+00,4.360816441479999257e-03,9.329594671729999830e-03,5.749762058260000398e-03,1.000000000000000000e+00
4.498864570000000174e-01,3.690243049200000236e+00,1.656361286239999897e+00,8.901274108189998202e+00,-2.618580590929999938e-03,-1.010343618689999931e-02,7.569627836350000319e-03,1.000000000000000000e+00
4.548988620000000149e-01,3.707346159690000587e+00,1.650133936160000037e+00,8.871323791089999133e+00,-1.195770688349999909e-02,-6.583661306649999864e-03,3.625709796320000355e-03,1.000000000000000000e+00
4.599038710000000196e-01,3.671607030050000109e+00,1.625158338720000151e+00,8.861477519850000206e+00,6.273041013629999940e-03,-2.906965557489999980e-03,5.482946522529999131e-03,1.000000000000000000e+00
4.648925760000000018e-01,3.709419166569999593e+00,1.649194609479999851e+00,8.902207005130000184e+00,-2.223981358109999862e-02,5.033058114350000799e-03,2.957223216070000143e-03,1.000000000000000000e+00
4.700100560000000094e-01,3.735129361889999888e+00,1.658723777590000115e+00,8.912277148239999391e+00,-2.551970072089999961e-03,9.660881012680000782e-03,-2.213083440439999813e-03,1.000000000000000000e+00
4.750665450000000067e-01,3.751797880360000281e+00,1.651375899039999817e+00,8.896232022370000436e+00,-6.527112331240000551e-03,7.435830775650000219e-04,-5.594657734040000066e-03,1.000000000000000000e+00
4.799606570000000128e-01,3.701722766850000124e+00,1.642071771859999973e+00,8.901244297579999909e+00,-1.251051202419999932e-02,1.740111410619999896e-02,-7.305640727279999642e-03,1.000000000000000000e+00
4.849800169999999855e-01,3.663897770849999791e+00,1.656552717159999855e+00,8.914988745289999628e+00,6.821454502640000167e-03,2.258256077769999794e-03,-2.404091181229999884e-03,1.000000000000000000e+00
4.900173130000000099e-01,3.648269116819999880e+00,1.642278108089999744e+00,8.911728866709999863e+00,-1.031144929579999977e-04,-6.205405108630000603e-03,6.683995015920000428e-03,1.000000000000000000e+00
4.950056319999999732e-01,3.738483056230000212e+00,1.636367276610000143e+00,8.937675793389999512e+00,7.680116686969999835e-03,-5.917852278799999935e-03,-3.394966013730000339e-03,1.000000000000000000e+00
5.000193969999999766e-01,3.741926474680000503e+00,1.667276648010000084e+00,8.948494709049999329e+00,-1.127929892390000001e-02,6.332953460510000465e-03,2.911277115349999935e-04,1.000000000000000000e+00
5.050184049999999480e-01,3.721373516000000325e+00,1.702964924240000011e+00,8.949414161980000060e+00,1.113360933960000007e-02,-8.738351054489999423e-03,1.475277636199999985e-02,1.000000000000000000e+00
5.101806190000000019e-01,3.740828158050000241e+00,1.654218721249999913e+00,8.932062629689999866e+00,2.149465307590000401e-02,-7.843665778639999364e-03,-4.923917353149999572e-03,1.000000000000000000e+00
5.151847760000000109e-01,3.723046417649999995e+00,1.681456126139999840e+00,8.920942685260000005e+00,1.264875009659999910e-02,-1.629481278359999966e-02,-1.227453444150000163e-02,1.000000000000000000e+00
5.200703209999999466e-01,3.724658236759999852e+00,1.671626806039999913e+00,8.901901884700000878e+00,-8.443366386930001820e-04,2.058153506369999816e-03,7.962698582559999631e-04,1.000000000000000000e+00
5.250289529999999649e-01,3.763439510570000035e+00,1.667137824060000106e+00,8.928495292599999189e+00,5.534607917070000216e-03,-4.471976775680000168e-03,-1.139541901649999966e-02,1.000000000000000000e+00
5.299898830000000505e-01,3.735826696499999766e+00,1.657849625099999891e+00,8.953688186039999053e+00,-2.341699786480000087e-03,-2.272051526229999872e-03,-1.076951343570000004e-02,1.000000000000000000e+00
5.349867959999999867e-01,3.740200381540000230e+00,1.720872629120000052e+00,8.958714489769999290e+00,1.852979417889999989e-03,-9.307907894249999384e-03,-3.917295485729999950e-03,1.000000000000000000e+00
5.399822949999999455e-01,3.684908410169999815e+00,1.699522236440000000e+00,8.947048601900000619e+00,8.272852748630000683e-03,-1.784288696940000002e-02,8.363366127010000289e-03,1.000000000000000000e+00
5.449837370000000236e-01,3.715848907359999842e+00,1.690879641910000064e+00,8.907921875639999598e+00,2.281252760440000138e-03,-2.029735222459999947e-02,1.692442456259999782e-03,1.000000000000000000e+00
5.501874730000000380e-01,3.697030809639999749e+00,1.711027234670000174e+00,8.901662815249999028e+00,6.462317891419999856e-03,-9.444192051889998066e-03,7.211944088339999892e-03,1.000000000000000000e+00
5.551825169999999865e-01,3.684757895780000236e+00,1.712317420609999807e+00,8.906879673110001505e+00,6.266359239819999788e-03,-9.288590401410000072e-03,1.107686851170000195e-02,1.000000000000000000e+00
5.600550570000000228e-01,3.706419107969999960e+00,1.726475271430000014e+00,8.893648435619999404e+00,-5.384634714569999647e-03,-2.474369481209999933e-03,3.994650207460000331e-03,1.000000000000000000e+00
5.651513689999999590e-01,3.660435939950000162e+00,1.716787990149999832e+00,8.866773288180000989e+00,1.330286078159999968e-02,6.317451596259999677e-03,1.170065160839999993e-02,1.000000000000000000e+00
5.700388419999999901e-01,3.678643796819999867e+00,1.705056928089999868e+00,8.878124118749999738e+00,4.380853846670000259e-03,8.493700996040000339e-03,8.909159805630000907e-04,1.000000000000000000e+00
5.751664269999999801e-01,3.695135497409999914e+00,1.706185639859999936e+00,8.880995874799999967e+00,3.897118382160000023e-03,6.870035547759999715e-03,-6.113307550550000670e-03,1.000000000000000000e+00
5.800509169999999992e-01,3.658418462649999814e+00,1.711877129499999928e+00,8.854497743969998780e+00,-2.149233780799999702e-02,-4.402545280749999533e-03,9.273216128349999823e-03,1.000000000000000000e+00
5.850227540000000337e-01,3.678245445149999959e+00,1.694447709659999912e+00,8.898979859780000723e+00,-3.251429181550000418e-03,1.137267239389999976e-02,1.081043295560000020e-02,1.000000000000000000e+00
5.901786199999999871e-01,3.757727562669999521e+00,1.674816103600000217e+00,8.861107517500000696e+00,-1.460503321139999984e-02,-6.236273329699999583e-03,1.065078470859999980e-02,1.000000000000000000e+00
5.950276439999999667e-01,3.753148125919999689e+00,1.677591267400000197e+00,8.906452387610000798e+00,-1.541915256529999972e-02,2.062131837009999885e-02,1.230331603440000011e-02,1.000000000000000000e+00
6.000400190000000356e-01,3.778300395100000042e+00,1.697976176049999841e+00,8.927630200199999422e+00,-1.744564436379999681e-02,7.698039058600000990e-03,3.767438465730000262e-03,1.000000000000000000e+00
6.051687839999999596e-01,3.699033381630000505e+00,1.702980998600000184e+00,8.929477873889998918e+00,-1.330371107910000017e-02,4.395546391609999812e-03,2.748150611300000622e-03,1.000000000000000000e+00
6.101765139999999477e-01,3.697309042059999662e+00,1.709205864460000113e+00,8.966097001239999642e+00,-1.316812541339999927e-02,-3.421457018700000026e-03,8.202155120670000937e-03,1.000000000000000000e+00
6.150545080000000553e-01,3.669383216519999547e+00,1.727074844759999728e+00,8.963957651119999426e+00,-1.473807170990000005e-02,1.469524204729999797e-02,2.133018150930000162e-02,1.000000000000000000e+00
6.200212120000000438e-01,3.713471072309999954e+00,1.730687336170000146e+00,8.972070814949999473e+00,-2.041305415330000109e-02,3.282323945310000168e-03,1.567943207920000082e-02,1.000000000000000000e+00
6.249821970000000171e-01,3.659093293169999761e+00,1.699232167459999943e+00,8.903610442190000640e+00,-2.765227109190000060e-02,1.827444136139999911e-02,2.886022999879999870e-02,1.000000000000000000e+00
6.300329780000000213e-01,3.690195118399999696e+00,1.708680817670000129e+00,8.897468870689998255e+00,-1.754820905629999803e-02,1.246546208860000067e-02,2.808319777249999871e-02,1.000000000000000000e+00
6.350111149999999594e-01,3.718772101330000357e+00,1.681942740609999820e+00,8.843152758610001385e+00,-2.247765660289999939e-02,2.678078971799999902e-02,2.708100341259999516e-02,1.000000000000000000e+00
6.401582710000000009e-01,3.737470956580000614e+00,1.678450514579999941e+00,8.841527203239998300e+00,-3.069661930199999930e-02,2.133265882729999674e-02,3.696868894619999898e-03,1.000000000000000000e+00
6.450303619999999682e-01,3.708645844110000311e+00,1.683466589179999806e+00,8.881350095060000172e+00,-3.893139585850000084e-02,3.105618245899999935e-02,7.308000698690000213e-03,1.000000000000000000e+00
6.501433530000000349e-01,3.711294605049999973e+00,1.733461769320000068e+00,8.894688300060000330e+00,-2.310364320869999835e-02,2.140889875590000144e-02,2.037303522229999900e-02,1.000000000000000000e+00
6.550656449999999742e-01,3.736772452919999932e+00,1.764615470859999924e+00,8.917394637390000156e+00,-5.241353437300000362e-02,3.014622069900000159e-02,1.585179008540000059e-02,1.000000000000000000e+00
6.600642039999999877e-01,3.770404965669999608e+00,1.746652382539999993e+00,8.925504878610000858e+00,-3.991109505300000082e-02,2.006217651070000066e-02,2.150126546620000079e-02,1.000000000000000000e+00
6.650584999999999969e-01,3.754394618849999699e+00,1.764822829999999954e+00,8.964661999999998798e+00,-5.320525914430000031e-02,2.927740104499999829e-02,3.674197942019999386e-02,1.000000000000000000e+00
6.702141860000000451e-01,3.813364401949999927e+00,1.846963353070000036e+00,8.976909487149999478e+00,-2.682354114949999854e-02,3.512555267659999737e-03,2.687940746549999718e-02,1.000000000000000000e+00
6.752209829999999968e-01,3.724356038939999891e+00,1.843545799709999766e+00,8.985880729119999799e+00,-2.792950719590000380e-02,2.106303535400000024e-02,5.202306061980000590e-02,1.000000000000000000e+00
6.800642110000000295e-01,3.716103466640000352e+00,1.820972879509999753e+00,8.972855827849999244e+00,-3.319175168869999831e-02,2.019499801100000172e-02,6.165375560519999881e-02,1.000000000000000000e+00
6.850395660000000442e-01,3.723081488959999685e+00,1.766925062979999739e+00,8.907937657730000680e+00,-2.498511597509999599e-02,1.938578300180000130e-02,6.231109797949999779e-02,1.000000000000000000e+00
6.900034849999999720e-01,3.633815644049999793e+00,1.709685610800000033e+00,8.863738450519999645e+00,-4.222519695759999886e-02,2.872218005359999937e-02,7.501325756310001092e-02,1.000000000000000000e+00
6.950267300000000370e-01,3.657805591449999838e+00,1.650350647649999836e+00,8.874086826060000988e+00,-4.374115914110000142e-02,1.671780273320000107e-02,6.890473514799999588e-02,1.000000000000000000e+00
6.999958950000000346e-01,3.644448097230000627e+00,1.603808968959999914e+00,8.850933914009999626e+00,-5.371469259259999823e-02,2.865487895909999902e-02,6.308526545760000104e-02,1.000000000000000000e+00
7.052194640000000181e-01,3.640200668919999494e+00,1.532083895320000000e+00,8.801869731110000927e+00,-5.791973322630000059e-02,3.661861643199999794e-02,5.022310093050000313e-02,1.000000000000000000e+00
7.101992790000000166e-01,3.626092940850000002e+00,1.550191068279999751e+00,8.837205248389999213e+00,-8.174724131819999240e-02,4.443370550869999575e-02,5.023884773249999436e-02,1.000000000000000000e+00
7.151927319999999977e-01,3.663475746040000480e+00,1.492932034620000126e+00,8.831859211180001168e+00,-1.085988730189999946e-01,5.866549909109999156e-02,4.840007051830000351e-02,1.000000000000000000e+00
7.201442909999999920e-01,3.712129594569999469e+00,1.534480727329999850e+00,8.833193674660000383e+00,-1.031397506589999957e-01,6.009904295210000136e-02,3.490497171880000554e-02,1.000000000000000000e+00
7.251351459999999527e-01,3.734906659049999522e+00,1.535158188199999829e+00,8.926383415010000988e+00,-9.183733910319999416e-02,5.894798785450000578e-02,2.823644131420000036e-02,1.000000000000000000e+00
7.301781470000000551e-01,3.762076405530000223e+00,1.526673852970000134e+00,8.930806492150001219e+00,-8.372928202149999832e-02,7.099342346189999042e-02,3.572179004550000286e-02,1.000000000000000000e+00
7.350262229999999786e-01,3.723101654959999784e+00,1.496023570900000044e+00,8.937560058060000756e+00,-8.264698088169999957e-02,5.384058132769999755e-02,3.232894092800000369e-02,1.000000000000000000e+00
7.402104189999999528e-01,3.722654203459999422e+00,1.508120397540000157e+00,8.959079815950000025e+00,-9.411926567549999678e-02,4.894392192359999644e-02,2.684899978340000298e-02,1.000000000000000000e+00
7.451978580000000463e-01,3.662836571359999738e+00,1.472648686660000150e+00,8.965380961919999336e+00,-6.498867273330000138e-02,5.063305795189999847e-02,2.963132411240000305e-02,1.000000000000000000e+00
7.501782359999999983e-01,3.640284840069999639e+00,1.459531430930000040e+00,8.952952857499999695e+00,-7.427313178780001190e-02,5.388492718340000265e-02,3.341482579709999928e-02,1.000000000000000000e+00
7.550403589999999943e-01,3.642197687949999985e+00,1.409431913639999978e+00,8.931020427159999997e+00,-6.708924472330000943e-02,4.000104218719999910e-02,2.967800572509999776e-02,1.000000000000000000e+00
7.600349269999999713e-01,3.647192719760000035e+00,1.386028387829999931e+00,8.966424333490000009e+00,-5.992394313220000129e-02,5.638206005100000057e-02,1.227139588449999846e-02,1.000000000000000000e+00
7.652409169999999650e-01,3.601172434599999583e+00,1.438890355570000112e+00,9.016890784410001913e+00,-3.301511332390000275e-02,2.964824438099999959e-02,5.413526669140000455e-03,1.000000000000000000e+00
7.700774550000000218e-01,3.537956684490000114e+00,1.437983177599999829e+00,9.039104954299999051e+00,-3.758300095799999713e-02,4.349235072730000401e-02,1.800346933309999661e-02,1.000000000000000000e+00
7.750568049999999598e-01,3.579534895550000151e+00,1.475030467229999864e+00,9.063593498870000431e+00,-3.828395903109999693e-02,2.922778390350000075e-02,1.461089495570000105e-02,1.000000000000000000e+00
7.799778440000000312e-01,3.630984804540000166e+00,1.497119695570000131e+00,9.021675680599999581e+00,-1.690677180890000006e-02,3.295719623570000228e-02,5.853061564270001065e-03,1.000000000000000000e+00
7.849264879999999778e-01,3.639098845149999928e+00,1.531774537110000001e+00,9.059449823189998696e+00,-1.724080741409999770e-02,1.776691153650000049e-02,1.647729985419999973e-02,1.000000000000000000e+00
7.900677360000000204e-01,3.672229253600000298e+00,1.539707375929999955e+00,9.022971565630001578e+00,-1.534179784359999965e-02,9.382588788869999571e-03,2.120484970510000053e-02,1.000000000000000000e+00
7.950901510000000227e-01,3.715317869219999736e+00,1.572405530439999977e+00,9.086261257749999487e+00,1.312350761149999948e-02,3.321882337329999831e-03,-1.170787261800000038e-03,1.000000000000000000e+00
8.000572929999999472e-01,3.609287059740000192e+00,1.591460213389999767e+00,9.076286391709999180e+00,2.841466665270000330e-02,-1.865055970849999883e-02,1.479602325709999944e-02,1.000000000000000000e+00
8.052157060000000310e-01,3.662400810290000308e+00,1.525635742089999969e+00,9.026827656529999189e+00,2.819169871510000119e-02,-1.599750667810000138e-02,6.288916338240000325e-04,1.000000000000000000e+00
8.101972370000000145e-01,3.570389466069999962e+00,1.514561974889999885e+00,8.971717179209999671e+00,2.192028984429999702e-02,-2.993429638450000041e-02,1.795866526659999768e-02,1.000000000000000000e+00
8.152169660000000428e-01,3.601871815039999980e+00,1.529970848689999885e+00,8.961177080489999724e+00,3.180672228340000046e-02,-2.080409973859999664e-02,1.385536510500000144e-02,1.000000000000000000e+00
8.202272609999999853e-01,3.600329846299999748e+00,1.549086321910000175e+00,8.970608925700000569e+00,4.063491523269999878e-02,-3.210972994570000100e-02,1.009790133680000049e-02,1.000000000000000000e+00
8.250941609999999926e-01,3.608725918719999814e+00,1.541622708030000011e+00,8.934737401849998761e+00,3.572720661760000332e-02,-2.208855189379999723e-02,4.387017339469999853e-03,1.000000000000000000e+00
8.301792199999999955e-01,3.648361763540000524e+00,1.563471113359999887e+00,9.001450638689998840e+00,3.214119747279999689e-02,-2.414872869849999867e-02,-1.736675971190000190e-03,1.000000000000000000e+00
8.350612440000000358e-01,3.672074647559999683e+00,1.525927272380000144e+00,8.940868451960000129e+00,2.655373886229999911e-02,-1.830556988720000167e-02,1.006815815340000040e-03,1.000000000000000000e+00
8.402037610000000489e-01,3.675572134290000292e+00,1.536615693529999938e+00,8.935100974470000068e+00,2.406740933659999582e-02,-1.944635622199999969e-02,-2.833231817929999629e-03,1.000000000000000000e+00
8.450649009999999794e-01,3.672832480189999860e+00,1.519806597549999916e+00,8.912844134480000235e+00,1.402879785750000066e-02,-2.471708692609999800e-02,-1.032466068859999933e-02,1.000000000000000000e+00
8.502253819999999740e-01,3.678846625909999446e+00,1.561452759270000268e+00,8.929405977700000108e+00,1.649179495869999845e-02,-5.387892015279999300e-04,-2.826551441099999906e-03,1.000000000000000000e+00
8.550306239999999613e-01,3.789379715249999947e+00,1.601165468720000096e+00,8.881253648950000468e+00,1.322404853999999998e-02,-1.057277247309999953e-02,-7.502581924199999870e-03,1.000000000000000000e+00
8.600627149999999776e-01,3.767396139240000164e+00,1.673969569779999889e+00,8.907184209019998633e+00,2.701189741489999976e-02,-9.486621245740000166e-03,-4.605442751200000163e-03,1.000000000000000000e+00
8.650723150000000361e-01,3.767695998969999405e+00,1.678691191470000232e+00,8.903534454339999016e+00,3.380284458399999969e-02,-1.167336292559999905e-02,-1.217738259579999966e-03,1.000000000000000000e+00
8.700584270000000231e-01,3.729913673069999991e+00,1.711180963929999965e+00,8.936263003989999731e+00,4.476462677120000150e-02,-2.705497294659999635e-02,8.325625211000000150e-03,1.000000000000000000e+00
8.752350119999999789e-01,3.776253399440000269e+00,1.685063795239999829e+00,8.951308012909999334e+00,1.655032858249999919e-02,-1.364464871589999954e-02,5.641419440510000820e-03,1.000000000000000000e+00
8.800529910000000067e-01,3.702012105180000123e+00,1.632005720400000026e+00,8.986410305950000676e+00,3.265409916639999688e-02,-2.383529581129999880e-02,1.785186864440000201e-02,1.000000000000000000e+00
8.852343480000000042e-01,3.693434538710000048e+00,1.587009663720000185e+00,8.996049071910000805e+00,2.669059298930000212e-02,-2.190668508409999646e-02,1.760824769740000281e-02,1.000000000000000000e+00
8.900845149999999650e-01,3.661526073280000126e+00,1.558438672150000093e+00,8.981563450439999485e+00,1.514544151719999891e-02,3.881440032269999930e-03,1.934826374049999909e-02,1.000000000000000000e+00
8.951086999999999794e-01,3.718736737749999577e+00,1.525104996209999841e+00,8.983786387180000332e+00,-1.236383151259999938e-02,-3.698373329830000359e-04,-1.034606713799999991e-03,1.000000000000000000e+00
9.000961790000000518e-01,3.659873922159999626e+00,1.520298326590000082e+00,8.980104483799999926e+00,-9.827454574409999824e-03,-1.131406798959999974e-02,1.099158544090000043e-02,1.000000000000000000e+00
9.052578209999999626e-01,3.685205639549999912e+00,1.533461905670000069e+00,8.979508856000000705e+00,-3.578540682789999733e-02,-3.027274739000000020e-03,-1.993068028239999932e-03,1.000000000000000000e+00
9.102259230000000478e-01,3.663895432759999515e+00,1.578727280809999911e+00,8.984178016849998727e+00,-5.367605760690000172e-02,-5.264758132399999409e-03,-8.002813905479999254e-03,1.000000000000000000e+00
9.152703949999999589e-01,3.683210374080000626e+00,1.614257297739999819e+00,8.968292465450000250e+00,-4.808875918390000115e-02,-1.432632841170000150e-02,-2.175580523909999980e-02,1.000000000000000000e+00
9.201092979999999644e-01,3.629341713510000123e+00,1.627413716439999991e+00,8.974330576569998996e+00,-5.940668284890000123e-02,2.510820981119999892e-03,-1.098340097809999936e-02,1.000000000000000000e+00
9.250906410000000468e-01,3.637662382609999856e+00,1.672466179479999759e+00,8.966233194839999143e+00,-4.735534265639999851e-02,-1.603109575810000159e-02,6.282611750069999612e-03,1.000000000000000000e+00
9.302563320000000191e-01,3.694223935530000169e+00,1.630738476939999959e+00,8.959080984989999052e+00,-5.168067663909999693e-02,-2.823066432030000260e-03,-1.573837362229999978e-04,1.000000000000000000e+00
9.351180260000000466e-01,3.626230888009999820e+00,1.616610582869999924e+00,8.956938712270000380e+00,-3.844752535219999462e-02,-9.428337216379999164e-03,4.770224913949999875e-03,1.000000000000000000e+00
9.402479689999999612e-01,3.581940495390000478e+00,1.639494614850000254e+00,8.962297024430000647e+00,-3.578209131960000122e-02,-7.348937448109999458e-03,-1.688113203269999991e-03,1.000000000000000000e+00
9.452214690000000363e-01,3.558333702090000106e+00,1.595713048529999956e+00,8.992177783429999849e+00,-3.239118680359999447e-02,-1.175848022099999952e-02,8.453710936010000107e-03,1.000000000000000000e+00
9.501029420000000059e-01,3.610363749059999794e+00,1.613674675549999993e+00,9.014147038660000888e+00,-3.567106649280000347e-02,1.730010844769999971e-03,2.003809204330000027e-03,1.000000000000000000e+00
9.550730280000000461e-01,3.628094636060000155e+00,1.591989205700000021e+00,8.999934388910000749e+00,-2.956254966559999572e-02,-9.908020496370000679e-03,8.279368281360000026e-03,1.000000000000000000e+00
9.600894239999999691e-01,3.671877663680000126e+00,1.594326416479999953e+00,9.004058190840000364e+00,-3.338840603829999754e-02,1.518995501099999930e-02,3.234397852790000041e-03,1.000000000000000000e+00
9.650984519999999955e-01,3.724727210340000205e+00,1.592996044659999999e+00,8.999652649360001533e+00,-3.937938809390000017e-02,-2.432265318929999892e-03,-1.413056720049999868e-02,1.000000000000000000e+00
9.702675210000000217e-01,3.677985332910000071e+00,1.629684583980000045e+00,8.989093845939999383e+00,-3.395384922619999746e-02,-5.606195889409999224e-03,5.434609949590000350e-03,1.000000000000000000e+00
9.751391799999999943e-01,3.717108259769999812e+00,1.666364939989999794e+00,8.975130787039999447e+00,-4.175759479399999974e-02,-1.394101418550000061e-02,1.509948354210000065e-02,1.000000000000000000e+00
9.801069599999999715e-01,3.659071665859999545e+00,1.665794738890000071e+00,9.011051995249999891e+00,-3.131209686400000108e-02,-2.637422643600000061e-02,1.048036199060000014e-02,1.000000000000000000e+00
9.851030100000000012e-01,3.670424834529999902e+00,1.698518612360000013e+00,8.964072217410000931e+00,-1.723565347490000135e-02,-2.698603086170000068e-02,2.467894926670000100e-02,1.000000000000000000e+00
9.900730319999999640e-01,3.716090607159999504e+00,1.698394693720000070e+00,8.958672404189998772e+00,-3.026270680129999890e-02,1.971690449859999847e-03,2.656104229390000154e-02,1.000000000000000000e+00
9.950862940000000378e-01,3.695704237209999743e+00,1.648209543970000190e+00,8.928286033760000961e+00,-2.648991346359999902e-02,2.828596625479999887e-03,3.411389887329999843e-02,1.000000000000000000e+00
1.000032371000000087e+00,3.767817871790000162e+00,1.646555785410000139e+00,8.896903053500000880e+00,-2.878770232200000140e-02,-7.166377268729999007e-03,3.229383379220000100e-02,1.000000000000000000e+00
1.005251934999999985e+00,3.760158881469999770e+00,1.609330947260000144e+00,8.854347521839999402e+00,-3.355861827730000080e-02,-4.679827485229999529e-03,3.218169882889999889e-02,1.000000000000000000e+00
1.010105679999999895e+00,3.785699565440000303e+00,1.586438878100000061e+00,8.827753529430001578e+00,-4.395386204119999807e-02,-6.035301368680000451e-03,2.797126397490000416e-02,1.000000000000000000e+00
1.015253374000000042e+00,3.750581782559999855e+00,1.568133552210000170e+00,8.771965591229999859e+00,-5.079932510849999999e-02,1.089917682109999876e-02,3.899686038490000201e-02,1.000000000000000000e+00
1.020092983000000064e+00,3.744693309049999641e+00,1.524036782459999850e+00,8.747071388469999320e+00,-6.044817343350000066e-02,7.233781274409999823e-03,3.493387997149999952e-02,1.000000000000000000e+00
1.025092032999999958e+00,3.764320385059999996e+00,1.516904446360000103e+00,8.759410645570000042e+00,-5.640620738269999657e-02,1.092289574439999841e-02,3.546341881159999904e-02,1.000000000000000000e+00
1.030102556999999974e+00,3.746065181919999709e+00,1.515912512720000160e+00,8.774293741919999334e+00,-6.965684145690000106e-02,1.649445109069999985e-02,3.555063530799999760e-02,1.000000000000000000e+00
1.035104891000000027e+00,3.755452895729999963e+00,1.494889744560000011e+00,8.816381656069999906e+00,-9.650090336799999058e-02,4.115720838309999685e-02,2.767826616759999636e-02,1.000000000000000000e+00
1.040088495000000002e+00,3.754187698099999970e+00,1.537049408769999959e+00,8.885883646839998207e+00,-8.646354824300001018e-02,1.824022084470000235e-02,3.066282346840000159e-02,1.000000000000000000e+00
1.045092842999999938e+00,3.762329211239999971e+00,1.556596843670000174e+00,8.944292581190000035e+00,-9.081818163389999976e-02,4.599993303419999680e-02,2.790478244419999920e-02,1.000000000000000000e+00
1.050098495000000076e+00,3.799263395889999728e+00,1.588634634579999982e+00,8.957983837410001371e+00,-9.436856955289998905e-02,5.617059767249999586e-02,3.405264019970000167e-02,1.000000000000000000e+00
1.055121634999999891e+00,3.805381001980000288e+00,1.632708754100000048e+00,8.955957884540000080e+00,-9.313943982120000131e-02,3.200905025010000043e-02,2.523782849309999868e-02,1.000000000000000000e+00
1.060069082999999912e+00,3.736992233150000065e+00,1.669822533100000062e+00,8.974266279169999194e+00,-7.890440523620000091e-02,3.528804332019999657e-02,3.942932188509999658e-02,1.000000000000000000e+00
1.065098459000000108e+00,3.664455112469999776e+00,1.655298040919999991e+00,8.917843550200000635e+00,-9.780494868760000737e-02,4.778189212080000137e-02,5.685740709300000223e-02,1.000000000000000000e+00
1.070105394999999904e+00,3.695326928330000094e+00,1.639378587260000186e+00,8.991504414219999575e+00,-9.289494156840000239e-02,4.671883955600000110e-02,4.509211331609999651e-02,1.000000000000000000e+00
1.075269201000000008e+00,3.614021687040000153e+00,1.595652258260000123e+00,9.003973435169999817e+00,-9.903815388679999832e-02,3.407992050050000221e-02,5.003901571039999496e-02,1.000000000000000000e+00
1.080102400999999990e+00,3.581486906399999892e+00,1.556902840880000083e+00,9.044825670039999821e+00,-1.183666959400000024e-01,5.407536402340000492e-02,5.056525394320000172e-02,1.000000000000000000e+00
1.085115896000000024e+00,3.573686754040000579e+00,1.525796339479999819e+00,9.019134179419999953e+00,-1.240455284710000050e-01,6.898542493580001045e-02,4.928354173900000024e-02,1.000000000000000000e+00
1.090089112000000027e+00,3.577480301110000038e+00,1.497321501750000117e+00,9.023211219600000277e+00,-1.324807554480000038e-01,5.150157585739999905e-02,4.095260426399999903e-02,1.000000000000000000e+00
1.095091744000000089e+00,3.600714169440000223e+00,1.475304754129999951e+00,8.978617460109999726e+00,-1.351617723699999885e-01,5.644653365019999119e-02,5.225828289990000486e-02,1.000000000000000000e+00
1.100083485999999944e+00,3.603949790360000183e+00,1.447708598930000035e+00,8.941318533809999636e+00,-1.642694175239999832e-01,6.294243782759999239e-02,5.003265291450000041e-02,1.000000000000000000e+00
1.105248991000000069e+00,3.623703999880000470e+00,1.474060599279999995e+00,8.960378039069999190e+00,-1.557132601740000011e-01,7.160472869869999313e-02,3.492371365430000513e-02,1.000000000000000000e+00
1.110096769000000094e+00,3.637404900719999556e+00,1.430003723150000017e+00,8.970334784940000361e+00,-1.468560397619999847e-01,6.674188375469999879e-02,3.200461342929999953e-02,1.000000000000000000e+00
1.115158756000000029e+00,3.642387657569999604e+00,1.393236127250000012e+00,8.997007103290000529e+00,-1.667796522380000090e-01,7.437335699799998978e-02,4.457906261089999989e-02,1.000000000000000000e+00
1.120217320000000072e+00,3.747684892080000107e+00,1.367087248249999831e+00,9.020722909919999921e+00,-1.582508981230000000e-01,4.790022596719999831e-02,3.012878447769999982e-02,1.000000000000000000e+00
1.125107676000000057e+00,3.721569330829999966e+00,1.381619777599999876e+00,9.062719638649999965e+00,-1.770860999820000059e-01,6.742837280040001047e-02,4.380897060039999624e-02,1.000000000000000000e+00
1.130100145999999972e+00,3.736103759880000208e+00,1.434981949959999836e+00,9.026585664469999770e+00,-1.569321900610000098e-01,6.319994479419999145e-02,2.850652858610000159e-02,1.000000000000000000e+00
1.135130458999999981e+00,3.661294018089999991e+00,1.448972189129999810e+00,8.996480449059999884e+00,-1.452415436510000046e-01,5.140736326579999765e-02,5.448626726869999770e-02,1.000000000000000000e+00
1.140071148999999950e+00,3.716887310490000207e+00,1.499673910099999841e+00,8.942617925969999604e+00,-1.480816453700000146e-01,4.659109935159999605e-02,4.879949241880000843e-02,1.000000000000000000e+00
1.145221009999999984e+00,3.685082889949999885e+00,1.460595553030000104e+00,8.955335953249999648e+00,-1.599668115379999922e-01,3.857013955710000136e-02,5.048507079479999660e-02,1.000000000000000000e+00
1.150087488000000047e+00,3.625919045590000334e+00,1.412136058029999974e+00,8.973597001599999956e+00,-1.349464952949999963e-01,4.130906611679999868e-02,6.123206764459999951e-02,1.000000000000000000e+00
1.155021815000000007e+00,3.660072367340000188e+00,1.454280816929999887e+00,9.028498220089998583e+00,-1.281180828810000172e-01,3.823531419040000073e-02,4.888451471919999514e-02,1.000000000000000000e+00
1.160018733000000024e+00,3.641203416219999767e+00,1.422121299339999867e+00,9.033941287930000286e+00,-1.299237310889999886e-01,4.363911226390000675e-02,5.932575464249999903e-02,1.000000000000000000e+00
1.165082665999999989e+00,3.641330841989999900e+00,1.362585845180000144e+00,9.012676381580000395e+00,-1.210248693820000082e-01,3.157003596429999726e-02,5.271152406930000589e-02,1.000000000000000000e+00
1.170060612999999972e+00,3.657172261980000005e+00,1.324102677529999994e+00,8.978520429480001397e+00,-1.402874290939999935e-01,5.189451202749999909e-02,5.595028772950000340e-02,1.000000000000000000e+00
1.175269048000000094e+00,3.616195231690000345e+00,1.323585375660000008e+00,9.034902241919999355e+00,-1.589458584790000018e-01,6.449314206839999730e-02,5.391597747799999757e-02,1.000000000000000000e+00
1.180052923999999948e+00,3.604545125909999648e+00,1.343659757039999958e+00,9.023626814660000051e+00,-1.767182648180000148e-01,4.425636306409999610e-02,6.468906998630000182e-02,1.000000000000000000e+00
1.185115662000000070e+00,3.632655952619999518e+00,1.284998309239999914e+00,8.960950870519999611e+00,-1.677155196670000181e-01,6.238484755160000200e-02,3.796876966949999654e-02,0.000000000000000000e+00
1.190075105000000022e+00,3.526461477009999790e+00,1.370104550249999997e+00,9.022220454999999362e+00,-1.903948485849999983e-01,7.663396745919999475e-02,4.726156219840000478e-02,0.000000000000000000e+00
1.195002066000000029e+00,3.517283898819999699e+00,1.372385646919999980e+00,9.002516806619999201e+00,-1.907552480699999942e-01,7.133198529480000438e-02,5.085664615040000336e-02,0.000000000000000000e+00
1.200037980000000060e+00,3.533196922749999747e+00,1.367746735079999887e+00,9.020166445080000983e+00,-1.792784184219999855e-01,6.619244068860000163e-02,5.121098086240000180e-02,0.000000000000000000e+00
1.205236093999999980e+00,3.585747778719999612e+00,1.362841719639999782e+00,9.022421530529999956e+00,-2.036286294460000201e-01,7.237619906660000546e-02,4.851461574440000396e-02,1.000000000000000000e+00
1.210075226000000059e+00,3.581149929529999998e+00,1.358366620049999973e+00,9.058034695699999972e+00,-1.907220631839999792e-01,7.489228248599999471e-02,5.184243246910000269e-02,0.000000000000000000e+00
1.215107536999999960e+00,3.549567042790000571e+00,1.360427059710000108e+00,9.140431239360001570e+00,-2.046661376949999722e-01,6.374638527629999940e-02,4.883123934269999883e-02,0.000000000000000000e+00
1.220090891999999982e+00,3.543527762619999688e+00,1.327487497659999960e+00,9.194686561160001048e+00,-2.191668897869999966e-01,6.333309412000000249e-02,6.396042555570000121e-02,0.000000000000000000e+00
1.225290460999999942e+00,3.505756250369999272e+00,1.333891519490000066e+00,9.214837368779999593e+00,-2.079967558379999804e-01,6.014303490519999629e-02,5.816716700789999889e-02,1.000000000000000000e+00
1.230122436999999902e+00,3.499063766999999991e+00,1.288737349640000085e+00,9.216585673760000930e+00,-2.117374986410000270e-01,6.313095241790001033e-02,5.175040289760000217e-02,0.000000000000000000e+00
1.235132267000000006e+00,3.448315576540000649e+00,1.317504302179999920e+00,9.222534353029999465e+00,-2.145382761960000217e-01,6.591069698330000171e-02,4.704695940019999745e-02,0.000000000000000000e+00
1.240244993999999989e+00,3.397065574029999979e+00,1.357891257619999958e+00,9.210713566849999978e+00,-2.085135728120000032e-01,5.341684445740000481e-02,6.148450076580000423e-02,0.000000000000000000e+00
1.245120793999999975e+00,3.451940489030000503e+00,1.321979547900000052e+00,9.186920603329999935e+00,-2.218834757800000057e-01,6.308728456499999859e-02,5.126016587019999182e-02,0.000000000000000000e+00
1.250248693999999938e+00,3.390252971409999816e+00,1.269133508370000163e+00,9.116517864330001331e+00,-1.969805210830000153e-01,4.925280436869999140e-02,5.855007842180000310e-02,1.000000000000000000e+00
1.255281316000000036e+00,3.390644893330000187e+00,1.239642625470000148e+00,9.134179193230000493e+00,-2.029573023319999892e-01,4.030073806639999923e-02,5.261141434309999504e-02,1.000000000000000000e+00
1.260278283999999971e+00,3.391116310239999709e+00,1.193175400260000130e+00,9.126080057919999433e+00,-2.029194980860000164e-01,5.183285102250000803e-02,4.786003381009999724e-02,1.000000000000000000e+00
1.265140364999999933e+00,3.375459891420000247e+00,1.155913810299999955e+00,9.074330581459999934e+00,-1.975240409369999894e-01,6.736283749340001015e-02,4.277402162549999443e-02,1.000000000000000000e+00
1.270128959000000002e+00,3.360148048259999687e+00,1.146437468350000044e+00,9.084719873530000100e+00,-1.884937435390000027e-01,4.881180822850000184e-02,5.276669934389999900e-02,1.000000000000000000e+00
1.275277250000000029e+00,3.431577499959999944e+00,1.143045049439999961e+00,9.122856419699999719e+00,-1.906834542749999972e-01,5.747228488330000107e-02,4.832167923449999514e-02,1.000000000000000000e+00
1.280096931000000104e+00,3.468061602749999750e+00,1.044753748159999995e+00,9.058672993600000112e+00,-1.838267594579999775e-01,5.849894881249999290e-02,5.427249148490000813e-02,0.000000000000000000e+00
1.285122628000000100e+00,3.563203061690000339e+00,1.020888011670000095e+00,9.073846597339999320e+00,-1.865542083979999932e-01,5.306621268390000062e-02,4.142651334400000024e-02,0.000000000000000000e+00
1.290257589999999954e+00,3.645451429049999525e+00,1.033435577750000167e+00,9.049622841189998823e+00,-1.936533153059999957e-01,3.383828327059999752e-02,3.308273851870000004e-02,0.000000000000000000e+00
1.295082355999999990e+00,3.698683545280000651e+00,1.092732546979999997e+00,9.064617581220000275e+00,-1.634785681959999848e-01,5.174222216009999320e-02,4.081237688659999918e-02,0.000000000000000000e+00
1.300049610999999938e+00,3.756581022980000295e+00,1.139846837920000189e+00,9.031806613989999732e+00,-1.568553745749999839e-01,3.227974846959999478e-02,4.438605159519999621e-02,0.000000000000000000e+00
1.305233016000000079e+00,3.750373400510000010e+00,1.178655803460000095e+00,8.986950404169999018e+00,-1.363858729599999875e-01,1.736980117860000006e-02,5.871881172059999904e-02,1.000000000000000000e+00
1.310111121999999906e+00,3.753574534639999793e+00,1.193936228570000146e+00,8.970975420930001221e+00,-1.267819702630000045e-01,3.332331031559999934e-02,7.763165235519998986e-02,1.000000000000000000e+00
1.315151477999999985e+00,3.789223647910000103e+00,1.103335262600000144e+00,8.955534690689999522e+00,-1.131146848200000055e-01,1.067093759779999887e-02,8.860115706919999279e-02,1.000000000000000000e+00
1.320100395999999954e+00,3.808330791699999995e+00,1.040563383799999908e+00,8.978048135790000828e+00,-1.072596535090000053e-01,-4.167263861749999528e-03,7.958310097460000176e-02,1.000000000000000000e+00
1.325046729999999950e+00,3.703145200869999432e+00,1.024461778499999864e+00,9.011319121749998828e+00,-1.119716018439999988e-01,4.253846127539999758e-03,8.689826726910000743e-02,1.000000000000000000e+00
1.330243494999999943e+00,3.693119773680000328e+00,9.699240595640000739e-01,9.011906566249999528e+00,-9.872583299880000052e-02,1.686484552919999963e-03,7.507683336730000545e-02,1.000000000000000000e+00
1.335133502999999999e+00,3.620025019110000297e+00,9.254192204700000257e-01,8.934875349020000357e+00,-1.079155355690000068e-01,1.970480754970000206e-02,7.624970376489999258e-02,1.000000000000000000e+00
1.340255069999999993e+00,3.628588849319999809e+00,8.801663394879999380e-01,8.924730971629999843e+00,-1.277913153169999982e-01,1.912959478799999835e-02,6.839115917679999823e-02,1.000000000000000000e+00
1.345131598000000039e+00,3.649231239850000197e+00,8.441925243089999364e-01,8.902696249950000862e+00,-1.377354860309999984e-01,1.805292442440000270e-02,6.431868672370000262e-02,1.000000000000000000e+00
1.350269750999999907e+00,3.653616907590000018e+00,8.859727607449999764e-01,8.916934618660000922e+00,-1.293603032829999944e-01,1.791272498670000088e-02,5.409837886689999875e-02,1.000000000000000000e+00
1.355277569999999931e+00,3.602801497109999751e+00,8.554198746359999994e-01,8.947831276709999671e+00,-1.494329869749999873e-01,3.272238001230000359e-02,5.492910370230000283e-02,1.000000000000000000e+00
1.360273328999999976e+00,3.650239247850000091e+00,8.934581480640000350e-01,8.942941751099999337e+00,-1.420619934799999817e-01,4.048241674900000114e-02,2.881605923180000084e-02,1.000000000000000000e+00
1.365263622000000066e+00,3.607455752659999515e+00,8.743300345500000237e-01,8.938986291470000012e+00,-1.383629441260000037e-01,4.100745543840000201e-02,3.350644558670000384e-02,1.000000000000000000e+00
1.370118069999999966e+00,3.679723408750000146e+00,9.327839040189999098e-01,8.990054799930000229e+00,-1.475868523119999998e-01,3.841447457669999732e-02,3.972795978190000327e-02,1.000000000000000000e+00
1.375263984999999911e+00,3.689128365950000266e+00,9.930223188179999605e-01,9.071271193889998585e+00,-1.276741623880000009e-01,3.378187865019999930e-02,3.200631961230000072e-02,1.000000000000000000e+00
1.380090186999999968e+00,3.658266194700000362e+00,1.011151265229999874e+00,9.114573160000000840e+00,-1.039020493630000014e-01,2.525371126829999840e-02,5.244658887389999635e-02,1.000000000000000000e+00
1.385266080000000066e+00,3.684051793340000103e+00,1.001900840999999875e+00,9.132253778119999055e+00,-1.153092458840000029e-01,1.931663416329999772e-02,4.382356628780000041e-02,1.000000000000000000e+00
1.390280696999999899e+00,3.617939737269999956e+00,9.499950779960000258e-01,9.162609753419999947e+00,-6.685736775400000220e-02,7.227816153319999680e-03,4.535019025209999916e-02,1.000000000000000000e+00
1.395252179000000092e+00,3.489785358780000291e+00,8.882978426909999836e-01,9.135209705319999429e+00,-5.556302145119999814e-02,-1.685274019839999929e-02,5.678099393839999842e-02,1.000000000000000000e+00
1.400130615999999995e+00,3.407072296519999988e+00,8.240627594720000282e-01,9.098815618899999791e+00,-3.622862696649999797e-02,-8.995518088339999468e-03,6.649289280180001316e-02,1.000000000000000000e+00
1.405263144000000075e+00,3.398936628600000009e+00,7.740092002099999702e-01,9.077232148119998456e+00,-4.870177432890000074e-02,1.133868470789999982e-03,6.770807504649999087e-02,1.000000000000000000e+00
1.410131293000000063e+00,3.483386013130000070e+00,7.211003245829999964e-01,9.025293871089999698e+00,-4.115801677110000195e-02,-1.175977475940000010e-02,4.364777728919999600e-02,1.000000000000000000e+00
1.415269797999999968e+00,3.545382450580000455e+00,6.553856703299999475e-01,9.016789077600000368e+00,-3.896356374030000846e-02,-1.828595623370000284e-02,1.975148171190000204e-02,1.000000000000000000e+00
1.420281858999999924e+00,3.550088728580000463e+00,6.782212600599999419e-01,9.059670772469999633e+00,-4.064204543830000210e-02,-2.147775515910000169e-02,1.261542085560000102e-02,1.000000000000000000e+00
1.425283115999999906e+00,3.524203176690000383e+00,7.113842556020000263e-01,9.046118632460000697e+00,-3.130564466119999806e-02,-1.957726106049999942e-02,2.198181487620000374e-02,1.000000000000000000e+00
1.430128813000000054e+00,3.585443242809999376e+00,7.825361324719999345e-01,9.028417556069999961e+00,-4.193808883430000245e-02,-1.974712312219999849e-02,8.614043705170000564e-03,1.000000000000000000e+00
1.435106707000000092e+00,3.627436464409999672e+00,7.984120392569999947e-01,8.952196486180000079e+00,-8.298654109239999785e-03,-1.736571080979999737e-02,-9.674119763080000350e-03,1.000000000000000000e+00
1.440295762000000090e+00,3.631830023190000034e+00,8.314053042550000328e-01,8.932897326950000050e+00,-3.699670778590000153e-03,-2.919891290370000073e-02,-9.824069216850001007e-03,1.000000000000000000e+00
1.445092185000000029e+00,3.714110539260000010e+00,8.371990121600000334e-01,8.957320989580001225e+00,1.920737884940000237e-02,-2.886613644659999714e-02,7.410068064930000444e-06,1.000000000000000000e+00
1.450236469000000028e+00,3.731860715480000312e+00,8.920541995499999821e-01,8.978094313019999717e+00,4.586811736230000242e-02,-4.828504845500000003e-02,6.149198859930000288e-03,1.000000000000000000e+00
1.455266680999999895e+00,3.700635848399999706e+00,9.612450054809998923e-01,8.985873130330000791e+00,4.418706521390000641e-02,-1.655684225259999864e-02,8.657957427200000181e-03,1.000000000000000000e+00
1.460247547999999895e+00,3.652643386380000301e+00,9.590464725229999043e-01,8.988376053060001425e+00,5.620186403390000501e-02,-3.334970027209999827e-02,1.304872799659999999e-02,1.000000000000000000e+00
1.465090672000000094e+00,3.608755437080000128e+00,9.699057932549999261e-01,8.989479630389999087e+00,4.962806776169999268e-02,-5.725028738380000259e-02,1.917229406540000083e-02,1.000000000000000000e+00
1.470055349999999983e+00,3.584045358710000073e+00,9.300612741220000146e-01,9.033285454369998746e+00,6.781377643349999207e-02,-3.912632539869999315e-02,7.116856053470000526e-03,1.000000000000000000e+00
1.475266712000000036e+00,3.565148350540000344e+00,9.421236139679999289e-01,9.056771543900000054e+00,6.683479249480001050e-02,-4.352551326160000039e-02,9.709564968940001539e-03,1.000000000000000000e+00
1.480123210999999994e+00,3.553013091590000450e+00,8.887407641529999625e-01,9.063775285180000196e+00,4.994805902239999457e-02,-2.819005213680000205e-02,7.081178016960000716e-03,1.000000000000000000e+00
1.485139833999999937e+00,3.594486088710000082e+00,9.115444243750000508e-01,9.079667266319999541e+00,4.461954906579999880e-02,-1.705452054740000042e-02,-2.624010294679999730e-02,1.000000000000000000e+00
1.490289235999999962e+00,3.509684529730000335e+00,9.319303559299999540e-01,9.106424340339998480e+00,3.560765460130000531e-02,-3.410906530919999811e-03,-6.969123147430001178e-03,1.000000000000000000e+00
1.495090150000000007e+00,3.563636776930000138e+00,9.617491556100000727e-01,9.111316788550000823e+00,8.708039298649999579e-03,-1.047492586079999850e-02,-2.105249650779999690e-02,1.000000000000000000e+00
1.500111924999999902e+00,3.451486900049999917e+00,9.927974240210000190e-01,9.097561234920000572e+00,-2.109726658090000165e-03,-2.349008433520000105e-02,-1.249033398929999886e-02,0.000000000000000000e+00
1.505254848000000090e+00,3.595546119150000219e+00,1.060349303640000018e+00,9.106387515459999804e+00,-1.092528924349999916e-02,1.273419242349999904e-03,-3.166533261540000616e-02,0.000000000000000000e+00
1.510129593999999909e+00,3.610552841890000142e+00,1.060999584239999960e+00,9.068847766139999322e+00,-1.783718541259999776e-02,4.770909436050000188e-04,-2.803810313340000457e-02,1.000000000000000000e+00
1.515259195999999919e+00,3.551403026040000466e+00,1.076859051350000041e+00,9.107423872769999207e+00,-5.272451788189999426e-03,-6.673550698909999634e-03,-3.221039893110000212e-03,1.000000000000000000e+00
1.520113067999999901e+00,3.573750466929999980e+00,1.048353526220000109e+00,9.085635234810000682e+00,-5.622170865540000034e-03,-2.544939285140000122e-03,-2.239431440829999648e-02,1.000000000000000000e+00
1.525284319999999916e+00,3.479773375590000217e+00,1.049794957200000045e+00,9.105374539019999602e+00,-6.962603423740000054e-03,-6.297731306399999979e-03,-5.205334164199999780e-03,0.000000000000000000e+00
1.530087809000000076e+00,3.561554125440000274e+00,1.026120870820000031e+00,9.129805215919999384e+00,-3.950818441810000081e-03,2.969734370709999939e-03,-1.584164798260000173e-02,0.000000000000000000e+00
1.535142476000000089e+00,3.593879647250000087e+00,9.317079453509999887e-01,9.102503367500000664e+00,-2.932199276980000159e-05,-2.322142012420000054e-02,-1.266041491179999839e-02,1.000000000000000000e+00
1.540258357999999994e+00,3.640802141940000070e+00,8.826797105490000739e-01,9.071863314570000725e+00,-1.816682517529999777e-02,-2.118820324539999814e-02,-3.384416922929999599e-02,1.000000000000000000e+00
1.545266983999999955e+00,3.607703589940000288e+00,8.417345366980000243e-01,9.022603901360000123e+00,-2.289275638760000092e-02,-9.451052173969999581e-03,-2.697232738139999919e-02,1.000000000000000000e+00
1.550144285000000011e+00,3.670406714349999877e+00,8.982184212680000002e-01,8.981934621839998911e+00,-2.126604691149999726e-02,-1.576359942560000282e-02,-1.567079871890000170e-02,1.000000000000000000e+00
1.555090137000000095e+00,3.775214704040000591e+00,9.382441421870000298e-01,8.955108574229999618e+00,-1.676802150909999928e-02,-9.193744510409999210e-03,-3.189153224229999972e-02,1.000000000000000000e+00
1.560110085999999896e+00,3.741956285299999685e+00,8.542950353249999518e-01,8.884670179389999589e+00,4.553038626910000178e-03,-9.934784844519999394e-03,-1.974808238450000142e-02,1.000000000000000000e+00
1.565272154999999943e+00,3.770990072080000033e+00,8.987622458220000388e-01,8.938011308960000179e+00,-3.107644617560000218e-03,-1.583804376420000146e-02,-2.196490205820000180e-02,0.000000000000000000e+00
1.570134906000000052e+00,3.767624687300000108e+00,9.645626786609999836e-01,8.986172405539999630e+00,1.936567481609999860e-03,-8.835105225440001084e-03,-1.758792996409999990e-02,0.000000000000000000e+00
1.575120741000000102e+00,3.701444534430000211e+00,1.040588225979999892e+00,9.088701636639999748e+00,2.378400228920000276e-02,-1.003440469500000050e-02,-8.591946214440000090e-03,1.000000000000000000e+00
1.580127738999999920e+00,3.618484511669999737e+00,1.131653521529999873e+00,9.126620156150000440e+00,1.356565300379999894e-02,-1.953592523929999908e-02,-5.907903891060000898e-03,1.000000000000000000e+00
1.585126569000000041e+00,3.515900043249999829e+00,1.166751065329999948e+00,9.156617235000000576e+00,2.639572694900000141e-02,-1.393699273470000097e-02,-4.005385562780000186e-06,1.000000000000000000e+00
1.590279597999999961e+00,3.449332352359999909e+00,1.138991828520000027e+00,9.219626941150000476e+00,3.265173733230000014e-02,-1.618817076089999751e-02,5.537742748860000064e-03,0.000000000000000000e+00
1.595152909000000063e+00,3.423751920899999579e+00,1.152704273659999945e+00,9.280041954619999700e+00,2.334810607140000091e-02,-2.702537737790000269e-02,9.070894680920000425e-03,0.000000000000000000e+00
1.600119599999999975e+00,3.467264607159999734e+00,1.139771361530000027e+00,9.314707609810000122e+00,3.250993415709999695e-02,-2.560902573170000321e-02,1.171194203200000110e-02,1.000000000000000000e+00
1.605182018999999904e+00,3.508277877809999445e+00,1.090377435220000191e+00,9.251196968410001276e+00,2.008431032299999933e-02,-3.735052794219999306e-02,4.539831541479999108e-03,1.000000000000000000e+00
1.610127781999999952e+00,3.524611172969999817e+00,1.032622142470000171e+00,9.189700589439999234e+00,1.823707669970000070e-02,-2.737771533429999779e-02,7.673814892770000444e-03,1.000000000000000000e+00
1.615257806000000018e+00,3.549881807830000735e+00,1.027752782869999937e+00,9.182195912899999257e+00,-4.954862408339999816e-03,-3.960556164380000382e-02,4.589942283930000672e-03,1.000000000000000000e+00
1.620108950999999964e+00,3.503835219180000404e+00,1.014341804899999921e+00,9.131875592460000135e+00,-2.575249876830000041e-03,-2.540834993120000274e-02,9.545858018100001480e-03,1.000000000000000000e+00
1.625279295999999984e+00,3.577914600869999351e+00,1.037408207709999974e+00,9.069390786970000562e+00,-1.645288243890000168e-02,-8.796481415629999259e-03,2.452315995469999885e-03,1.000000000000000000e+00
1.630117038000000074e+00,3.651221829150000264e+00,1.030735013549999968e+00,9.021561114310001628e+00,-4.655973613259999783e-02,-1.141147688029999809e-02,2.395429881289999879e-03,1.000000000000000000e+00
1.635124529999999909e+00,3.747634330940000424e+00,1.000575656810000158e+00,9.008505817899999712e+00,-3.433288261290000365e-02,-1.824862323700000150e-02,-2.550342585889999857e-03,0.000000000000000000e+00
1.640224694000000039e+00,3.770569216319999750e+00,9.671133860570000351e-01,8.996378742250000116e+00,-5.602253600959999219e-02,-1.531802676620000123e-02,-1.155059318989999986e-02,0.000000000000000000e+00
1.645117224999999905e+00,3.715901806590000245e+00,1.018358420129999997e+00,8.993455548280000045e+00,-5.717429146169999282e-02,-4.261299036439999965e-03,-1.056611072270000062e-02,0.000000000000000000e+00
1.650078627000000075e+00,3.738338971590000170e+00,1.046849259139999821e+00,9.005100977889998859e+00,-5.940527841450000263e-02,-9.836412966249999390e-03,1.192923402410000101e-03,0.000000000000000000e+00
1.655037650999999999e+00,3.769002113139999999e+00,1.049126848679999835e+00,8.990943273200000974e+00,-5.124459415669999768e-02,-1.052279584110000013e-02,-5.733491387220000270e-03,0.000000000000000000e+00
1.660083159999999891e+00,3.721138830460000158e+00,1.087297954709999903e+00,9.004895226189999491e+00,-5.342010781169999334e-02,-5.557648371910000294e-03,1.329727191480000077e-02,1.000000000000000000e+00
1.665257159999999903e+00,3.776315651019999997e+00,1.164745862979999824e+00,9.026583326380000827e+00,-5.346036702390000173e-02,-3.194768680260000413e-03,1.157323643570000102e-02,1.000000000000000000e+00
1.670143775999999969e+00,3.646257192480000242e+00,1.125675616159999892e+00,9.002588702809999788e+00,-5.679066106680000225e-02,-1.617438974790000143e-03,2.090252377089999933e-02,1.000000000000000000e+00
1.675239232000000023e+00,3.594467968530000501e+00,1.091787813470000090e+00,9.043083794810000242e+00,-4.831196367740000358e-02,-5.403346382080000294e-03,2.042345330120000010e-02,1.000000000000000000e+00
1.680257957000000024e+00,3.404006186949999790e+00,1.145592249699999954e+00,9.147523243450001118e+00,-5.919086933140000478e-02,6.222161930050000046e-03,3.650925308469999547e-02,1.000000000000000000e+00
1.685108609000000035e+00,3.319853739530000070e+00,1.154637214490000119e+00,9.188597012110001572e+00,-5.393561348320000115e-02,2.049446338789999867e-03,4.378355294470000214e-02,1.000000000000000000e+00
1.690084997000000033e+00,3.313473975369999991e+00,1.136816530309999962e+00,9.175500799169999055e+00,-7.561980187889999483e-02,-4.998436197640000267e-04,3.523080423470000000e-02,0.000000000000000000e+00
1.695042498999999925e+00,3.308833748349999659e+00,1.047454239289999922e+00,9.172683403660000678e+00,-8.301580697299999756e-02,1.796603389079999905e-02,4.782574996349999580e-02,0.000000000000000000e+00
1.700125174000000072e+00,3.442525010440000255e+00,9.922251040250000820e-01,9.146838768310001200e+00,-9.454212337730000248e-02,3.249637782570000133e-02,3.384929895399999694e-02,0.000000000000000000e+00
1.705117030000000033e+00,3.444256948790000106e+00,9.921390331770000293e-01,9.138383659180000507e+00,-8.878462016580000726e-02,2.542319707569999990e-02,2.080499939620000099e-02,0.000000000000000000e+00
1.710135149000000077e+00,3.422237424690000474e+00,9.689400169630000281e-01,9.078250385249999610e+00,-1.238170117139999887e-01,5.428830534219999948e-02,3.029461950059999728e-02,0.000000000000000000e+00
1.715270681000000019e+00,3.430962290670000137e+00,9.296335502299998277e-01,9.054688307879999343e+00,-1.121955290440000003e-01,3.432578593490000218e-02,1.423862855879999903e-02,1.000000000000000000e+00
1.720133726999999890e+00,3.444839717119999367e+00,9.176296625730000489e-01,9.048361442950000111e+00,-1.059955358510000084e-01,7.121407240629999691e-02,-1.069773919880000071e-03,1.000000000000000000e+00
1.725118678999999933e+00,3.442179558000000306e+00,8.376667758030000854e-01,9.035683163160001641e+00,-1.051695346829999989e-01,6.455279141660000275e-02,8.093904703860000521e-03,1.000000000000000000e+00
1.730110499000000024e+00,3.559028406359999952e+00,7.788676000270000621e-01,9.007619098189998397e+00,-1.120106875900000187e-01,7.564273476600000268e-02,-3.190540708599999813e-03,0.000000000000000000e+00
1.735124442999999905e+00,3.749228614390000214e+00,7.266329703990000999e-01,8.968471913669999296e+00,-1.141622588040000080e-01,5.612381920219999820e-02,-4.570016171779999609e-03,0.000000000000000000e+00
1.740279128000000064e+00,3.910999723540000250e+00,7.178343815889999258e-01,8.977190642180000069e+00,-1.058076322079999909e-01,6.848220527170000016e-02,-1.040011364970000116e-02,0.000000000000000000e+00
1.745120867000000020e+00,3.837752408759999678e+00,6.986594332590000400e-01,8.936102844989999738e+00,-9.774314612150000747e-02,5.556512251500000249e-02,-8.991699665780001141e-03,0.000000000000000000e+00
1.750244511000000003e+00,3.717827221690000350e+00,7.190675035810000226e-01,8.903964662450000844e+00,-8.264978230000000203e-02,5.242034047840000294e-02,-1.280674617739999827e-02,0.000000000000000000e+00
1.755276759000000020e+00,3.591260989180000252e+00,7.478818023940000392e-01,8.880182804849999556e+00,-7.031875848770000048e-02,4.695571213959999490e-02,-1.959919370710000094e-02,1.000000000000000000e+00
1.760127919000000096e+00,3.525322828369999328e+00,7.851789751309999899e-01,8.904343432639999278e+00,-4.670954123139999664e-02,6.201912090179999976e-02,-2.353258803490000314e-02,1.000000000000000000e+00
1.765107471000000094e+00,3.519495729649999571e+00,8.122603126719999400e-01,8.892036908769998860e+00,-2.629794366659999813e-02,5.515028908850000411e-02,-4.964550025759999902e-04,1.000000000000000000e+00
1.770134937999999991e+00,3.581682721230000421e+00,8.184199312800000126e-01,8.913672986519999952e+00,6.598884239789999662e-03,4.654064029459999835e-02,-1.274092867969999973e-02,1.000000000000000000e+00
1.775110415000000108e+00,3.522715276219999581e+00,8.187742246100001564e-01,8.935311402350000876e+00,1.048561185599999890e-02,6.039006263019999765e-02,-1.866871304809999965e-02,1.000000000000000000e+00
1.780063575000000009e+00,3.486989882840000554e+00,8.301746664810000231e-01,9.016310354169998931e+00,5.835316330190000456e-02,5.005866289139999925e-02,-5.558690056199999327e-03,1.000000000000000000e+00
1.785075360000000000e+00,3.422364558199999962e+00,8.406036329719999145e-01,9.087830699030000403e+00,6.678662449120000011e-02,3.028582595290000082e-02,-1.417692285029999947e-03,1.000000000000000000e+00
1.790035913999999950e+00,3.348952700509999936e+00,8.403511195160000558e-01,9.167399910300000343e+00,9.811510890720000211e-02,4.291809722780000336e-02,4.896739497779999291e-03,1.000000000000000000e+00
1.795070783999999975e+00,3.335008930829999940e+00,8.728373117739999243e-01,9.214589531499999708e+00,1.093392223120000090e-01,4.592042043809999724e-02,2.354355342690000324e-02,1.000000000000000000e+00
1.800124478999999944e+00,3.548718024740000310e+00,9.056791856029999810e-01,9.216425514760000937e+00,1.201960593459999865e-01,2.243245951830000195e-02,1.193551113830000057e-03,1.000000000000000000e+00
1.805287934000000094e+00,3.669220427169999521e+00,9.634691112710001004e-01,9.236813053749999725e+00,1.508590579029999990e-01,-5.177885759619999190e-04,1.245070900770000114e-02,1.000000000000000000e+00
1.810090511000000069e+00,3.751256028559999844e+00,1.012145244699999891e+00,9.252517403360000614e+00,1.562467813489999968e-01,-1.515144482249999869e-02,1.401625853029999855e-02,1.000000000000000000e+00
1.815101320999999990e+00,3.713293085390000137e+00,9.868679609060000413e-01,9.223661895750000284e+00,1.725903898479999865e-01,-4.172854870559999929e-02,4.200124740600000295e-02,1.000000000000000000e+00
1.820259375000000013e+00,3.714178928319999518e+00,9.825179490029999352e-01,9.247967484969999319e+00,1.543799936770000047e-01,-5.796476826069999616e-02,4.146977886560000021e-02,0.000000000000000000e+00
1.825286761999999952e+00,3.717062959319999749e+00,9.190569919619999695e-01,9.201720697580000774e+00,1.626054942610000165e-01,-5.317729711529999709e-02,4.253994673489999712e-02,0.000000000000000000e+00
1.830105802999999920e+00,3.646563481949999908e+00,8.536061762780000617e-01,9.170705966110000773e+00,1.693533062929999944e-01,-9.047337621449999534e-02,4.602454975250000468e-02,0.000000000000000000e+00
1.835073785000000068e+00,3.623785540690000140e+00,8.221912665119999186e-01,9.101436615049999901e+00,1.572798788549999993e-01,-7.971257716419999362e-02,4.551982507109999382e-02,0.000000000000000000e+00
1.840257121000000051e+00,3.572932136289999949e+00,8.150534505209999780e-01,9.081414986769999587e+00,1.462807506319999951e-01,-7.706571370360000561e-02,4.645893722769999651e-02,0.000000000000000000e+00
1.845122361999999905e+00,3.614503333080000491e+00,8.253577677189999351e-01,9.033723261260000470e+00,1.302125453949999900e-01,-6.926240026949999351e-02,2.438693121079999956e-02,1.000000000000000000e+00
1.850088724999999990e+00,3.501794361009999967e+00,8.682162278450000770e-01,9.010333033330001129e+00,1.190637573599999943e-01,-6.762041896580001099e-02,2.533148042859999921e-02,1.000000000000000000e+00
1.855094204000000024e+00,3.521535711050000295e+00,9.428385573049999913e-01,8.964003243829999690e+00,8.989544957879999632e-02,-5.266372486949999487e-02,3.342058742419999791e-03,1.000000000000000000e+00
1.860081278000000005e+00,3.404940545190000112e+00,1.014658834960000089e+00,8.990389730969999604e+00,5.982945486900000109e-02,-1.806598156690000095e-02,8.492258377369998890e-03,1.000000000000000000e+00
1.865243823999999995e+00,3.389470881119999834e+00,1.107650933840000018e+00,9.000337124489998786e+00,5.744822695849999966e-02,-1.683763973410000100e-02,2.787396544590000410e-03,1.000000000000000000e+00
1.870059519000000003e+00,3.414450131809999789e+00,1.161103926279999810e+00,9.009930297739998650e+00,5.079032480719999215e-02,9.438738226890000180e-03,-2.382592763749999659e-03,1.000000000000000000e+00
1.875268605999999894e+00,3.395858244070000254e+00,1.198536342770000207e+00,9.073008977469999792e+00,5.903156846759999993e-02,-4.660448525100000135e-03,-1.205427106470000260e-04,1.000000000000000000e+00
1.880096546999999951e+00,3.426238477020000062e+00,1.214248071970000176e+00,9.116799603880000546e+00,3.253695368770000151e-02,2.385520003739999978e-02,5.153095349670000318e-03,1.000000000000000000e+00
1.885095694999999960e+00,3.388643490379999790e+00,1.192157674589999994e+00,9.153136991669999389e+00,5.850752815600000073e-02,4.050615709280000649e-03,2.006489085029999724e-03,1.000000000000000000e+00
1.890097093000000061e+00,3.399073406719999912e+00,1.198808949170000027e+00,9.246490398149999734e+00,4.781029000880000074e-02,6.936330813909999393e-03,8.370663039390000351e-03,1.000000000000000000e+00
1.895047710000000052e+00,3.388669209350000155e+00,1.158863526949999834e+00,9.302900852160000511e+00,3.855541720990000171e-02,2.461400348689999924e-03,1.918107084929999984e-02,1.000000000000000000e+00
1.900091234000000018e+00,3.436089716690000184e+00,1.149535580500000043e+00,9.335606020930001137e+00,3.572483733299999797e-02,8.996375836429999296e-04,1.920378580690000267e-02,1.000000000000000000e+00
1.905254715000000099e+00,3.465950601949999932e+00,1.124524254170000015e+00,9.353348598369999323e+00,1.486470643429999884e-02,-1.496219076219999951e-03,3.066570311780000141e-02,1.000000000000000000e+00
1.910125915000000063e+00,3.578979015229999838e+00,1.138374792600000074e+00,9.351171838860000918e+00,1.753427460790000017e-02,-9.113362058999999182e-03,4.195851832630000111e-02,1.000000000000000000e+00
1.915143725999999935e+00,3.685654260099999746e+00,1.054535721990000008e+00,9.303858299019999833e+00,2.117423154409999939e-02,-3.597255423669999674e-02,2.311307191850000067e-02,1.000000000000000000e+00
1.920222086000000106e+00,3.662843877880000321e+00,1.005098321860000032e+00,9.251160728049999449e+00,2.803326956929999905e-02,-4.303777590390000379e-02,4.653825983409999589e-02,1.000000000000000000e+00
1.925115697999999931e+00,3.684739775609999768e+00,8.901333875560000219e-01,9.150146577690000171e+00,1.116889994590000018e-02,-3.740252926950000251e-02,4.551103711130000812e-02,1.000000000000000000e+00
1.930115910999999906e+00,3.705471597990000365e+00,8.745400971040000471e-01,9.131423757040000311e+00,-2.088872483000000103e-03,-5.530028045180000046e-02,2.949266508220000152e-02,1.000000000000000000e+00
1.935266380999999924e+00,3.670641984410000003e+00,9.214777893680000664e-01,9.054923870199999669e+00,6.213782355189999967e-03,-5.027440935369999891e-02,2.784528024490000309e-02,1.000000000000000000e+00
1.940275970999999933e+00,3.607347031580000696e+00,8.666834653200000682e-01,9.022355479550000723e+00,-3.559931879860000516e-03,-4.364772513509999896e-02,2.991012111309999943e-02,1.000000000000000000e+00
1.945260980999999889e+00,3.677304364909999901e+00,8.646940450679999612e-01,8.933813272749999257e+00,-1.279310695829999865e-02,-2.530327625570000238e-02,1.034823944789999960e-03,1.000000000000000000e+00
1.950100098999999920e+00,3.650157414790000221e+00,8.950104920730000968e-01,8.883288954170000196e+00,-2.211122959850000264e-02,-4.268054664130000592e-02,1.030400954189999996e-02,1.000000000000000000e+00
1.955235032000000039e+00,3.742008892269999887e+00,9.126669986640000287e-01,8.891794916709999441e+00,-3.032815270130000129e-02,-4.345506429669999254e-02,9.504131041469998306e-03,1.000000000000000000e+00
1.960256693000000050e+00,3.733696698740000208e+00,9.266092339720000126e-01,8.850178711729999037e+00,-2.497367374600000314e-02,-3.267923742529999648e-02,8.721906691790000041e-03,1.000000000000000000e+00
1.965079559999999947e+00,3.643442135059999920e+00,9.235917858470000796e-01,8.881137913610000822e+00,-2.334476076069999864e-02,-2.839960157870000113e-02,1.371123548600000110e-02,1.000000000000000000e+00
1.970112840000000087e+00,3.630610710530000507e+00,9.831062702850000834e-01,8.999336423019999032e+00,-2.945065498349999991e-02,-6.149271968749999914e-03,-4.610198549930000222e-03,1.000000000000000000e+00
1.975099756999999956e+00,3.534031327739999728e+00,1.003667704539999983e+00,9.033000792210000185e+00,-8.115010568870000560e-04,-6.198469549419999801e-03,1.920803263780000020e-02,1.000000000000000000e+00
1.980086447999999999e+00,3.611925883809999682e+00,1.087840171829999925e+00,9.148599932769998944e+00,-1.417009625579999932e-02,-1.834385097029999842e-02,1.575986854730000025e-02,1.000000000000000000e+00
1.985084615999999968e+00,3.502076100560000071e+00,1.087348004399999901e+00,9.198487122489998669e+00,1.854203827679999986e-02,-2.889812737699999981e-02,3.056564182040000244e-02,1.000000000000000000e+00
1.990091864000000044e+00,3.525697506899999834e+00,1.129561444620000188e+00,9.267284179860000748e+00,2.341448143120000019e-02,-4.218303412200000158e-02,3.499640524390000562e-02,1.000000000000000000e+00
1.995081866999999898e+00,3.567462764959999699e+00,1.101609534790000122e+00,9.342200596889998820e+00,3.789760917430000375e-02,-7.018268853430000009e-02,2.594311349090000149e-02,1.000000000000000000e+00
2.000086936999999843e+00,3.543218550540000233e+00,1.065857034209999998e+00,9.345250632110001732e+00,5.175998434419999683e-02,-6.570951640609999644e-02,4.299191385509999741e-02,1.000000000000000000e+00
2.005254461999999904e+00,3.571756662769999480e+00,1.011219727350000097e+00,9.355109178300001105e+00,5.184282362459999294e-02,-8.138645440339999093e-02,4.689405113459999691e-02,1.000000000000000000e+00
2.010097136000000173e+00,3.591680675899999731e+00,8.784720297260000255e-01,9.269147051119999148e+00,5.767970532180000109e-02,-9.866575151680000155e-02,3.759741410609999945e-02,1.000000000000000000e+00
2.015266459999999871e+00,3.524905187480000368e+00,8.103549174420000556e-01,9.219246417400000837e+00,5.865070223809999705e-02,-1.011414602400000085e-01,4.646984115240000018e-02,1.000000000000000000e+00
2.020236315000000005e+00,3.541471706880000347e+00,7.884232177490000382e-01,9.150783122019999993e+00,4.527225717899999863e-02,-1.091907173400000070e-01,3.686672821640000347e-02,1.000000000000000000e+00
2.025101763999999971e+00,3.581060789939999989e+00,7.557111808449999968e-01,9.091845195359999465e+00,4.512798041109999936e-02,-9.563782066110000646e-02,1.952125877140000257e-02,1.000000000000000000e+00
2.030049093000000138e+00,3.558755434630000547e+00,7.608413102750000157e-01,9.000897096460001023e+00,1.497875340279999912e-02,-9.447692334649999968e-02,1.774528995159999761e-02,1.000000000000000000e+00
2.035082279000000050e+00,3.587811725509999938e+00,7.745438185439998957e-01,8.934057018380000770e+00,3.478297963739999683e-03,-9.750802069900001146e-02,-4.106783308089999855e-05,1.000000000000000000e+00
2.040259637000000126e+00,3.592814063840000127e+00,8.049246360209999507e-01,8.872878619310000659e+00,1.386334537530000029e-03,-7.167211920020000182e-02,-1.840325444940000069e-02,1.000000000000000000e+00
2.045102265000000141e+00,3.642828387069999785e+00,8.831075805720000060e-01,8.864357459209999845e+00,2.885784767570000187e-02,-7.503092288970000800e-02,-2.747785858809999662e-02,1.000000000000000000e+00
2.050077550000000137e+00,3.670420742869999309e+00,9.290611571690000625e-01,8.837346118160001041e+00,3.034727275369999977e-02,-6.501426547770000619e-02,-2.222535759209999864e-02,1.000000000000000000e+00
2.055094409000000066e+00,3.669412734880000304e+00,9.586884528659999072e-01,8.824066365349999330e+00,4.981378838419999594e-02,-8.763833343980000079e-02,-1.744969561700000088e-02,1.000000000000000000e+00
2.060087369000000113e+00,3.732662387250000435e+00,9.645739307080000158e-01,8.844731552239998962e+00,6.191687285899999393e-02,-8.365719020369999370e-02,-1.069035287950000079e-02,1.000000000000000000e+00
2.065047969000000094e+00,3.714661451140000015e+00,9.350796868060000655e-01,8.850107984580001030e+00,8.173657953740000315e-02,-7.375980168579999996e-02,-2.245040051640000145e-02,1.000000000000000000e+00
2.070244232999999934e+00,3.721145844719999651e+00,8.733755103039999579e-01,8.878374294119998567e+00,1.039225086570000067e-01,-6.786206364629999988e-02,-2.335211075840000136e-02,1.000000000000000000e+00
2.075089984999999970e+00,3.692188630309999553e+00,8.664565977609999248e-01,8.903479509280000315e+00,1.130633279680000047e-01,-7.964009791610000832e-02,-9.514216333629999314e-03,1.000000000000000000e+00
2.080250980000000194e+00,3.747376849040000568e+00,8.186486985340000189e-01,8.880866110939999558e+00,1.040279343720000027e-01,-7.982338219880000252e-02,-1.874482072890000170e-02,0.000000000000000000e+00
2.085078414999999907e+00,3.741102883339999963e+00,7.406411836159999540e-01,8.923038196229999386e+00,1.021971330049999960e-01,-8.298625051980000611e-02,-4.304203763600000093e-02,0.000000000000000000e+00
2.090099074999999917e+00,3.577154430159999787e+00,7.691247891699999339e-01,9.000519495319998953e+00,1.104026883840000112e-01,-8.068524301049999348e-02,-4.868140444159999719e-02,0.000000000000000000e+00
2.095241753999999901e+00,3.524389346910000054e+00,7.207926468729999314e-01,9.023091392610000483e+00,1.011256054040000074e-01,-8.635273575780000321e-02,-6.132455542680000093e-02,0.000000000000000000e+00
2.100101603999999789e+00,3.484783020450000102e+00,7.819977147459999944e-01,9.073633831369999569e+00,9.603329002860000463e-02,-6.762073189020000041e-02,-6.905857473610001185e-02,0.000000000000000000e+00
2.105241606999999959e+00,3.494985850030000396e+00,8.191090825879999704e-01,9.111982558989998537e+00,1.085360720749999897e-01,-8.528272062540000198e-02,-6.882431358099999619e-02,1.000000000000000000e+00
2.110106775999999851e+00,3.565673251200000227e+00,8.414424949490000305e-01,9.099783002629999729e+00,1.102913469079999931e-01,-7.505944371219999689e-02,-8.188617974520000231e-02,1.000000000000000000e+00
2.115179710000000046e+00,3.623310616650000426e+00,8.603283972050000949e-01,9.116385177859999800e+00,1.090459376569999916e-01,-8.896273374560000058e-02,-8.327802270650000449e-02,1.000000000000000000e+00
2.120242673999999994e+00,3.714785662040000158e+00,8.513890116850000300e-01,9.071655809299999262e+00,1.217337697739999947e-01,-9.355266392230000838e-02,-9.910350292919999082e-02,1.000000000000000000e+00
2.125105550999999870e+00,3.679315412469999824e+00,9.632863751150000375e-01,9.095010965920000245e+00,1.312785446639999909e-01,-1.050433814530000037e-01,-8.126567304130000169e-02,1.000000000000000000e+00
2.130080593999999827e+00,3.764868374330000211e+00,9.915580914839999815e-01,9.065988285050000428e+00,1.612261831760000153e-01,-1.091000437739999968e-01,-1.038001924750000110e-01,1.000000000000000000e+00
2.135099594999999795e+00,3.706909229579999909e+00,1.017900739489999928e+00,9.089435796140000079e+00,1.832377761600000043e-01,-1.335406601430000062e-01,-9.288886934520000638e-02,1.000000000000000000e+00
2.140008259000000024e+00,3.678182901310000030e+00,1.022761112059999977e+00,9.079041243369999847e+00,2.077655643219999959e-01,-1.399974972009999930e-01,-9.477045387030000323e-02,1.000000000000000000e+00
2.145057484000000070e+00,3.598211538969999346e+00,1.015611824829999899e+00,9.052245590900000138e+00,2.167524397370000078e-01,-1.433552354570000187e-01,-8.709902316330001004e-02,1.000000000000000000e+00
2.150253833999999920e+00,3.631365036030000493e+00,1.028470210430000087e+00,9.029272127069999598e+00,2.489288300279999810e-01,-1.521963626149999971e-01,-9.261355549100000473e-02,1.000000000000000000e+00
2.155117361999999925e+00,3.620731413809999744e+00,1.010565866549999914e+00,9.018881665960000404e+00,2.620648443699999941e-01,-1.695743203159999768e-01,-9.653015434739999068e-02,0.000000000000000000e+00
2.160091695999999839e+00,3.586040039659999401e+00,1.008570308820000205e+00,9.055244772720000057e+00,2.735136151309999764e-01,-1.564216613770000042e-01,-9.250140935180001245e-02,0.000000000000000000e+00
2.165074782000000031e+00,3.590945931880000330e+00,9.596144086040000465e-01,9.028496466529999154e+00,2.966153919699999753e-01,-1.763078421350000036e-01,-9.691564738749999797e-02,0.000000000000000000e+00
2.170058486999999925e+00,3.585763268550000049e+00,9.193504219509999187e-01,9.044593614850001018e+00,2.988194823270000078e-01,-1.749303489919999954e-01,-1.038719937209999916e-01,0.000000000000000000e+00
2.175096340000000072e+00,3.584644201390000173e+00,8.984916121870000216e-01,9.095730512370000298e+00,2.764849066730000193e-01,-1.867987364530000194e-01,-1.255597174170000052e-01,0.000000000000000000e+00
2.180090211000000000e+00,3.598185235490000355e+00,9.224877701279999842e-01,9.137270144980000453e+00,3.178598284720000056e-01,-1.992578953499999916e-01,-1.325692981480000032e-01,1.000000000000000000e+00
2.185065910000000056e+00,3.622582886900000076e+00,9.198937350470000052e-01,9.117818425530000326e+00,3.030652999879999698e-01,-2.035891115669999918e-01,-1.453223973509999989e-01,1.000000000000000000e+00
2.189993058999999853e+00,3.614579905450000297e+00,9.733967771760000387e-01,9.130676738060001796e+00,3.137665987009999879e-01,-1.985590755939999896e-01,-1.352619379760000018e-01,1.000000000000000000e+00
2.195052596000000023e+00,3.692781920019999831e+00,9.947610522440000214e-01,9.142446086310000553e+00,3.381055593489999955e-01,-2.098113298420000161e-01,-1.441477686170000161e-01,1.000000000000000000e+00
2.200019956999999859e+00,3.722194769250000146e+00,1.045702061860000143e+00,9.127181881680000330e+00,3.643819391729999912e-01,-2.376007437709999892e-01,-1.578674018379999933e-01,0.000000000000000000e+00
2.205243092999999988e+00,3.753061908939999913e+00,1.196373977110000153e+00,9.116562287989999902e+00,3.867481350900000558e-01,-2.380575984719999760e-01,-1.458810865880000029e-01,0.000000000000000000e+00
2.210249355000000193e+00,3.863885797920000087e+00,1.199533244860000014e+00,9.080650432130001448e+00,4.001528024669999684e-01,-2.568269371990000161e-01,-1.678258031610000145e-01,1.000000000000000000e+00
2.215248154999999830e+00,3.875462253949999880e+00,1.276111822949999919e+00,9.035550476689998334e+00,4.465853571889999984e-01,-2.596560716629999765e-01,-1.470032334330000079e-01,0.000000000000000000e+00
2.220084181999999906e+00,4.035334836000000536e+00,1.358742029229999870e+00,9.014954847909999458e+00,4.780944287780000135e-01,-2.734135091300000098e-01,-1.436390727759999930e-01,0.000000000000000000e+00
2.225253019999999804e+00,4.112741024019999081e+00,1.458728590120000002e+00,8.930028493510000942e+00,5.449814796449999887e-01,-2.925523221489999548e-01,-1.260766536000000049e-01,0.000000000000000000e+00
2.230104094000000092e+00,4.194923924930000325e+00,1.536290407100000088e+00,8.843232253589999203e+00,5.810663700100000550e-01,-3.142223060129999967e-01,-1.237210482359999975e-01,0.000000000000000000e+00
2.235099369999999919e+00,4.083941045990000518e+00,1.522534415069999980e+00,8.744595938270000701e+00,6.197372078899999748e-01,-3.422996699809999765e-01,-9.074439108369999896e-02,0.000000000000000000e+00
2.240236980999999794e+00,4.097393525019999316e+00,1.566093716949999992e+00,8.681804843320000131e+00,6.540490984919999917e-01,-3.391372561450000100e-01,-7.784727215770000097e-02,0.000000000000000000e+00
2.245110480000000130e+00,4.120386570339999999e+00,1.696692712109999945e+00,8.656838159839999491e+00,7.071689963339998775e-01,-3.624315857890000325e-01,-7.389740645890000015e-02,0.000000000000000000e+00
2.250071339999999864e+00,4.198239333090000081e+00,1.808859978519999911e+00,8.617450736830001290e+00,7.424503564830000624e-01,-3.713678419590000224e-01,-4.053110256789999727e-02,0.000000000000000000e+00
2.255045151000000025e+00,4.300344201299999725e+00,1.897580172240000085e+00,8.602011760149999020e+00,7.669850587840000289e-01,-3.546781837940000126e-01,-9.150228463109999835e-03,0.000000000000000000e+00
2.260074091999999979e+00,4.410335438849999790e+00,1.890952716919999999e+00,8.554530462529999824e+00,7.991945743559999427e-01,-3.787229657169999819e-01,4.397119395430000056e-03,0.000000000000000000e+00
2.265078351000000101e+00,4.502271379740000690e+00,1.930256845570000213e+00,8.593677062530000299e+00,7.983357906339999532e-01,-3.864573836330000289e-01,1.171291526409999964e-02,0.000000000000000000e+00
2.270078516999999962e+00,4.545397404760000093e+00,1.953647511900000078e+00,8.577121064530000893e+00,7.892180681229999939e-01,-3.823926448820000323e-01,3.322601690890000098e-02,0.000000000000000000e+00
2.275272150000000160e+00,4.582699545940000618e+00,2.037473942230000112e+00,8.665569747830000225e+00,7.854109406470001220e-01,-3.834372460840000385e-01,6.401026248930000162e-02,0.000000000000000000e+00
2.280049785000000107e+00,4.571563234900000161e+00,2.107178177579999812e+00,8.735204425070000056e+00,7.573238015170000725e-01,-3.922577202319999512e-01,8.413305878639999735e-02,0.000000000000000000e+00
2.285090176999999834e+00,4.725814469930000428e+00,2.233424822739999982e+00,8.794702323699999269e+00,7.162579298019999818e-01,-3.946385383609999908e-01,7.499973475930001021e-02,0.000000000000000000e+00
2.290073270999999799e+00,4.759342937780000504e+00,2.328461798400000227e+00,8.818809760000000608e+00,6.844649314880000279e-01,-3.844445347789999801e-01,9.509284794330001567e-02,0.000000000000000000e+00
2.295050317999999923e+00,4.871425886910000003e+00,2.463822308869999755e+00,8.842873941669999738e+00,6.170184016230000346e-01,-4.098564684390000323e-01,1.209823489189999907e-01,0.000000000000000000e+00
2.300095089000000037e+00,5.042343010069999742e+00,2.157508288759999893e+00,9.112292940110000572e+00,5.461408495899999771e-01,-3.820333480830000461e-01,1.437462717290000080e-01,0.000000000000000000e+00
2.305236626000000122e+00,5.194487043690000583e+00,1.766797344950000070e+00,9.413876424570000623e+00,4.395005404950000361e-01,-3.370119929309999818e-01,2.053580731150000116e-01,0.000000000000000000e+00
2.310235443999999916e+00,5.659509278250000719e+00,1.740356789529999837e+00,9.436351291230000271e+00,3.428061306480000292e-01,-2.887205183509999884e-01,2.660158574579999935e-01,1.000000000000000000e+00
2.315076669000000198e+00,6.056683134460000062e+00,1.380372700149999909e+00,9.517519169879999907e+00,2.174401581289999996e-01,-2.447176277639999953e-01,3.357736766340000401e-01,1.000000000000000000e+00
2.320073207000000082e+00,6.480007915499999882e+00,9.074768826749999295e-01,9.617907297300000380e+00,6.963939219710001127e-02,-1.927524805070000014e-01,4.132605791089999925e-01,1.000000000000000000e+00
2.325072254999999810e+00,6.639905047470000099e+00,9.222947317739998985e-01,9.747882753729999905e+00,-6.725395470860000280e-02,-1.571639627220000057e-01,4.923024773599999904e-01,0.000000000000000000e+00
2.330015717999999847e+00,6.647865066560000535e+00,1.357254567159999814e+00,9.567073182119999686e+00,-1.930043697359999921e-01,-1.473825722930000026e-01,5.661967396739999714e-01,0.000000000000000000e+00
2.335126804000000167e+00,6.893715557889999346e+00,4.557663304360000112e-01,9.810194540739999525e+00,-3.377956748009999788e-01,-9.605934470889998522e-02,6.330873966219999760e-01,0.000000000000000000e+00
2.340091354000000123e+00,6.662363547509999151e+00,9.246667216030000080e-01,9.628433952010000851e+00,-4.664679765699999980e-01,-6.601256132130001175e-02,7.251337766650000072e-01,0.000000000000000000e+00
2.345243908000000044e+00,6.644529784659999549e+00,7.037808679260000311e-01,9.642578797220000553e+00,-5.875508785249999866e-01,-6.274405866860000014e-02,7.951452136040000340e-01,0.000000000000000000e+00
2.350168356000000180e+00,6.652057257550000102e+00,8.891802515490000447e-01,9.633507602010000781e+00,-6.880146265029999375e-01,-3.844083473090000036e-02,8.719505071640000216e-01,0.000000000000000000e+00
2.355221618999999933e+00,6.798782773260000134e+00,7.657803741130000397e-01,9.459148813969999736e+00,-7.662643790249999975e-01,-1.917809434240000041e-02,9.557451009749999837e-01,0.000000000000000000e+00
2.360240651999999884e+00,6.894500570780000892e+00,7.305273474889999452e-01,9.270699541260000842e+00,-8.303195834159999844e-01,-3.014487773179999955e-02,1.036798000339999914e+00,0.000000000000000000e+00
2.365066797999999970e+00,6.906595497719999699e+00,6.861070448739999827e-01,8.947751781730000076e+00,-9.002140760420000998e-01,-4.934158921239999857e-02,1.111774563789999837e+00,0.000000000000000000e+00
2.370044738999999900e+00,7.096475095499999775e+00,2.421320005239999962e-01,8.719545668169999431e+00,-9.688232541079999649e-01,-3.184051439169999914e-02,1.194209456439999872e+00,0.000000000000000000e+00
2.375051512000000198e+00,6.807250157350000386e+00,6.407857748309999657e-01,8.080396116239999316e+00,-1.019220709800000124e+00,-5.782232061030000148e-02,1.286251187319999989e+00,0.000000000000000000e+00
2.380074398000000091e+00,6.710828010950000255e+00,1.262169350180000205e-01,7.670062334199999832e+00,-1.035041451449999927e+00,-8.383885771039999157e-02,1.367139339449999991e+00,0.000000000000000000e+00
2.385229583000000098e+00,6.798425045859999294e+00,1.901926823140000222e-01,7.413348503549999968e+00,-1.084715127940000023e+00,-1.017704978590000114e-01,1.462976932529999941e+00,0.000000000000000000e+00
2.390258774999999947e+00,6.204403506430000270e+00,1.991717568709999941e+00,7.895758510770000349e+00,-1.093044400220000156e+00,-1.509674787520000061e-01,1.503557205200000135e+00,0.000000000000000000e+00
2.395108747000000093e+00,6.856030262610000037e+00,8.543083331980000361e-01,8.234244031170000255e+00,-9.987471699709999928e-01,-1.114169880749999869e-01,1.506547451019999873e+00,0.000000000000000000e+00
2.400101922000000165e+00,7.036387414289999143e+00,-2.799154406739999823e-01,7.978746590580001019e+00,-9.767086505890000270e-01,-2.309706807140000234e-02,1.542757987979999745e+00,0.000000000000000000e+00
2.405233592000000087e+00,6.720818659090000757e+00,-3.187916992959999862e-01,7.204428689739999392e+00,-1.001654505729999922e+00,4.044109955430000292e-02,1.578873991969999890e+00,0.000000000000000000e+00
2.410242842999999802e+00,6.306386794079999802e+00,3.643549614019999661e-01,6.819423410229999760e+00,-1.044556736949999953e+00,4.041952639819999804e-02,1.630881667139999935e+00,0.000000000000000000e+00
2.415249787000000037e+00,6.376821097269999683e+00,9.872291589019999147e-02,6.923113501810001402e+00,-1.065499901769999980e+00,3.302650153640000058e-02,1.661954402919999962e+00,0.000000000000000000e+00
2.420242487999999970e+00,6.562372310449999802e+00,-8.314896946029999569e-02,6.995369175199999567e+00,-1.044362545010000032e+00,3.940011188390000335e-02,1.672207236290000010e+00,0.000000000000000000e+00
2.425093089999999840e+00,6.441133702700000185e+00,-1.174375532320000026e-01,6.824285463309999855e+00,-1.070535063739999959e+00,6.042936816809999639e-02,1.673510432240000068e+00,0.000000000000000000e+00
2.430230090999999870e+00,5.836909333680000422e+00,5.148325596500000767e-01,7.043019984169998970e+00,-1.041750788689999929e+00,4.841578379269999288e-02,1.645761728289999892e+00,0.000000000000000000e+00
2.435238575000000072e+00,6.600992840750000035e+00,-6.138222915159999848e-01,7.490577289179999987e+00,-9.621817469600001393e-01,1.425955742599999965e-01,1.595635771750000043e+00,0.000000000000000000e+00
2.440245243000000119e+00,7.028239179139998960e+00,-1.332056559139999985e+00,6.894106018510000489e+00,-9.834939241410000088e-01,1.943587660790000171e-01,1.583475947379999971e+00,0.000000000000000000e+00
2.445220114000000056e+00,6.132696114559999856e+00,-5.559327779320000218e-01,6.185591838450000601e+00,-1.022995471949999846e+00,1.819745153189999964e-01,1.573165178300000022e+00,0.000000000000000000e+00
2.450233142000000086e+00,4.517451413219999878e+00,5.646455150890000718e-01,7.012069550110000549e+00,-9.995977878569999309e-01,1.508113443849999902e-01,1.520684361460000078e+00,0.000000000000000000e+00
2.455110842999999932e+00,7.149840774989999481e+00,6.272426218419999699e-01,7.059685872289999331e+00,-8.876068592069999985e-01,2.114420682189999956e-01,1.431354999539999895e+00,0.000000000000000000e+00
2.460238555000000105e+00,7.231874915069999687e+00,-2.648107237580000009e-02,7.866141955660000740e+00,-7.895556092259999881e-01,2.565567195419999891e-01,1.382539629939999903e+00,0.000000000000000000e+00
2.465092021999999883e+00,7.696572739980000577e+00,-4.650010821729999577e-01,7.425482593460000835e+00,-7.303086519239999630e-01,2.847793400290000165e-01,1.346510052680000014e+00,0.000000000000000000e+00
2.470086427000000029e+00,7.641807130569999273e+00,-4.454474001910000425e-01,6.650650313369999900e+00,-6.591694355009999340e-01,2.453894913199999861e-01,1.324490070339999992e+00,0.000000000000000000e+00
2.475082774000000096e+00,7.431859142760000481e+00,-2.464991644909999835e-01,6.581510726169999437e+00,-5.916159152979999503e-01,1.773950010539999955e-01,1.278827071190000053e+00,0.000000000000000000e+00
2.480080737999999840e+00,7.442505624460000746e+00,-1.701144284690000175e-01,6.601938012640000686e+00,-4.838513433930000107e-01,1.176194548609999918e-01,1.214935302729999833e+00,0.000000000000000000e+00
2.485049322000000060e+00,7.491728212789999120e+00,-2.536837604989999884e-01,6.840011440229999629e+00,-3.317569494250000028e-01,8.002389222380000555e-02,1.124034643170000125e+00,0.000000000000000000e+00
2.490212230000000027e+00,7.378669404360000961e+00,-3.495395234550000008e-01,6.864421074340000040e+00,-2.519147992130000291e-01,4.799253121019999430e-02,1.050844192500000052e+00,0.000000000000000000e+00
2.495236301999999906e+00,7.130307807000000331e+00,-3.148544694450000070e-01,6.788755884759999581e+00,-1.048846617340000037e-01,1.654327474529999897e-02,9.830229282379999711e-01,0.000000000000000000e+00
2.500086608999999793e+00,6.928705038200000388e+00,-4.345162654649999817e-02,6.715028385250000120e+00,-7.051797118039999923e-03,1.725480519240000024e-02,8.954636454580000571e-01,0.000000000000000000e+00
2.505048919000000041e+00,7.011999992000000681e+00,-1.674092976959999923e-01,6.697177671259999521e+00,1.568955481050000045e-01,-9.346358478069999309e-03,7.792679667470000515e-01,0.000000000000000000e+00
2.510043020999999985e+00,6.928531435200000033e+00,-1.334058875409999956e-01,6.757996004839999848e+00,2.986699640749999607e-01,-2.254890464250000268e-02,6.802337169650000126e-01,0.000000000000000000e+00
2.515242880000000181e+00,7.011882503099999830e+00,-1.342490968989999978e-01,6.843102391980000476e+00,4.525306522850000013e-01,-4.679754376410000249e-02,5.937125682830000084e-01,0.000000000000000000e+00
2.520028023000000061e+00,6.874707490549999633e+00,-2.751375587479999996e-01,6.859041134870000000e+00,5.903598666189999733e-01,-6.099040061239999894e-02,5.034448504449999806e-01,0.000000000000000000e+00
2.525046087999999855e+00,7.065763146369999248e+00,-2.650122331129999842e-01,6.872393368390000035e+00,7.331119775769999736e-01,-9.038604050869999962e-02,4.141543805600000350e-01,0.000000000000000000e+00
2.530048240999999809e+00,6.996529451149999801e+00,-3.804000142080000146e-01,6.989093748189999289e+00,8.601008653640001000e-01,-1.052204743029999945e-01,3.364064395430000354e-01,0.000000000000000000e+00
2.535049337999999874e+00,7.219676527759999907e+00,-5.743527066429999772e-01,7.077840537660000209e+00,9.859125614170000107e-01,-1.202892437580000001e-01,2.650839984419999795e-01,0.000000000000000000e+00
2.540041931000000197e+00,7.377351307499999677e+00,-7.064474567870000499e-01,7.141717674289998818e+00,1.095958113670000067e+00,-1.593916118139999949e-01,2.016740590329999805e-01,0.000000000000000000e+00
2.545229851999999848e+00,7.411881938130000513e+00,-7.693444963349999055e-01,7.184453823210001033e+00,1.164525747300000136e+00,-1.906103640790000053e-01,1.528735458850000173e-01,0.000000000000000000e+00
2.550249159999999904e+00,7.283389998250000552e+00,-8.975075695849999979e-01,7.167491582489999402e+00,1.267475485799999912e+00,-1.880832910539999847e-01,1.067450568080000051e-01,0.000000000000000000e+00
2.555070575999999871e+00,7.171946808330000422e+00,-1.080473296320000109e+00,7.159132334939999787e+00,1.311855077739999986e+00,-1.995139867069999906e-01,7.797432690860001125e-02,0.000000000000000000e+00
2.560250727000000115e+00,7.010715212889999215e+00,-1.248571635730000073e+00,7.195315993480000394e+00,1.372972488400000080e+00,-2.099443376060000088e-01,6.223959475759999888e-02,0.000000000000000000e+00
2.565100299000000028e+00,6.915058790169999803e+00,-1.274550711110000067e+00,7.175747954180000221e+00,1.413628578189999985e+00,-2.106437534089999897e-01,4.434446245430000155e-02,0.000000000000000000e+00
2.570085088999999989e+00,6.846848008250000284e+00,-1.338268857789999933e+00,7.204577742819999742e+00,1.414448499679999971e+00,-2.054796367880000196e-01,2.415777370329999854e-02,0.000000000000000000e+00
2.575062588999999846e+00,6.467153110099999935e+00,-1.403091020179999981e+00,7.151599016830000544e+00,1.409105658529999916e+00,-2.009122967720000097e-01,4.752998426559999767e-02,0.000000000000000000e+00
2.580255302999999945e+00,6.455581914769999763e+00,-1.491814574900000023e+00,7.168126957780000197e+00,1.391966104510000024e+00,-1.670177727940000134e-01,2.869462221859999870e-02,0.000000000000000000e+00
2.585238280000000000e+00,6.671086367669999184e+00,-1.319793582159999978e+00,7.248284782599999865e+00,1.360079646109999985e+00,-1.535575836899999991e-01,6.206613034009999391e-02,0.000000000000000000e+00
2.590108970000000177e+00,6.767237880440000630e+00,-1.307365477739999893e+00,7.335843823589999424e+00,1.332978010179999950e+00,-1.307513862849999930e-01,7.851508259770000053e-02,0.000000000000000000e+00
2.595242159000000104e+00,6.437974946410000676e+00,-1.353408266990000053e+00,7.257424366869999588e+00,1.309400916099999979e+00,-1.324750036000000020e-01,1.172064319250000070e-01,0.000000000000000000e+00
2.600238393999999786e+00,6.435682451559999961e+00,-1.062600297429999952e+00,7.330173961260000759e+00,1.239065408710000149e+00,-1.411277204749999958e-01,1.626821756359999871e-01,0.000000000000000000e+00
2.605073260000000168e+00,6.476939175580000985e+00,-9.003215310279999439e-01,7.419953016389999156e+00,1.209868192670000120e+00,-1.191589906809999988e-01,2.242134660480000208e-01,0.000000000000000000e+00
2.610265215000000083e+00,6.512011657999999592e+00,-8.311269257050000192e-01,7.291666243689999938e+00,1.158855676649999999e+00,-9.043126553300000203e-02,2.495676875110000026e-01,0.000000000000000000e+00
2.615203526000000167e+00,6.468981494570000379e+00,-4.669009609779999903e-01,7.334696407120000039e+00,1.123410940170000094e+00,-8.528948575260000831e-02,3.123388886450000346e-01,0.000000000000000000e+00
2.620228614999999817e+00,6.329084948099999330e+00,-3.670505206290000100e-01,7.242185881210000176e+00,1.091254472729999980e+00,-6.818774342540000200e-02,3.411692976950000400e-01,0.000000000000000000e+00
2.625240959000000096e+00,6.291735752919999314e+00,-2.025300945080000248e-01,7.133516247650000253e+00,1.058651208879999972e+00,-5.527650192380000049e-02,3.702872395519999915e-01,0.000000000000000000e+00
2.630118727999999795e+00,6.354404098280000746e+00,1.400517872620000125e-02,7.296487380239999432e+00,1.058894157409999925e+00,-5.208836123349999681e-02,3.902992010119999966e-01,0.000000000000000000e+00
2.635084301000000018e+00,6.327118616469999957e+00,1.401751076809999996e-01,7.307483406030000239e+00,1.031494617460000152e+00,-4.847109317780000370e-02,4.248323142529999985e-01,0.000000000000000000e+00
2.640100241999999930e+00,6.320073374129999699e+00,2.093898424760000099e-01,7.329932553719999966e+00,1.032834529879999907e+00,-3.727262094619999966e-02,4.582700133320000146e-01,0.000000000000000000e+00
2.645220672999999856e+00,6.406742188280000860e+00,3.846795546909999586e-01,7.399011350639998597e+00,1.018674731249999965e+00,-3.711139038209999852e-02,4.692451059820000325e-01,0.000000000000000000e+00
2.649897388999999936e+00,6.550431697289999633e+00,4.963568456299999876e-01,7.456351194460000720e+00,1.038310050960000064e+00,-3.101391904059999649e-02,4.959612786770000170e-01,0.000000000000000000e+00
2.655182076000000002e+00,6.618893239099999271e+00,6.790894211969999983e-01,7.572287604139999573e+00,1.021751761440000017e+00,-3.875776380300000046e-02,5.237099528309999696e-01,0.000000000000000000e+00
2.660222346999999932e+00,6.795846135290000589e+00,7.657954255509998864e-01,7.624273811970000203e+00,1.023129940030000018e+00,-4.994017258290000399e-02,5.425990819929999986e-01,0.000000000000000000e+00
2.665211913999999904e+00,6.790691821259999372e+00,1.006129199279999886e+00,7.637692096469999470e+00,1.026534438129999893e+00,-5.957364663480000516e-02,5.704942941669999268e-01,0.000000000000000000e+00
2.670055316000000012e+00,6.599170886019999571e+00,1.097935595510000084e+00,7.588613885050000007e+00,1.018029093740000057e+00,-6.038445234299999465e-02,6.041955351829999543e-01,0.000000000000000000e+00
2.675054365999999906e+00,6.449834311030000045e+00,1.251665217829999843e+00,7.556395038489999827e+00,1.010748267170000103e+00,-4.332010447980000345e-02,6.325460076330000625e-01,0.000000000000000000e+00
2.680217835000000104e+00,6.285638605090000830e+00,1.462664175999999872e+00,7.535172217710000453e+00,1.041331052779999933e+00,-5.053418129680000564e-02,6.512320041659999115e-01,0.000000000000000000e+00
2.685056653999999821e+00,6.230555600290000662e+00,1.581393285149999883e+00,7.618705071930000905e+00,1.029567956920000027e+00,-3.742776811120000074e-02,6.620208024979999939e-01,0.000000000000000000e+00
2.690023000000000053e+00,6.134799808840000424e+00,1.749684005320000013e+00,7.652102314620000456e+00,1.005468368529999879e+00,-2.735036797820000060e-02,6.799229383470000165e-01,0.000000000000000000e+00
2.695083315000000201e+00,5.910559676300000120e+00,1.885186846870000155e+00,7.700789480890000149e+00,9.964497685430000473e-01,-1.787698455150000046e-02,7.160319089890000432e-01,0.000000000000000000e+00
2.700223376999999925e+00,5.735095557370000208e+00,1.986807877090000174e+00,7.656152466789999167e+00,9.759556055069998903e-01,-7.502278778699999692e-03,7.124618291850001173e-01,0.000000000000000000e+00
2.705045451000000156e+00,5.464006579889999493e+00,2.184414269729999969e+00,7.558003642730000138e+00,9.426452517510000018e-01,1.167613454160000043e-02,7.028183341029999864e-01,0.000000000000000000e+00
2.710214380000000034e+00,5.280851321940000176e+00,2.383611146430000272e+00,7.540904039369999090e+00,9.039131402969999840e-01,3.261745348569999869e-02,6.850485801700000321e-01,0.000000000000000000e+00
2.715203133999999796e+00,5.299214077099999365e+00,2.548397365610000076e+00,7.501120895030000568e+00,8.899739384649999474e-01,6.333180516959999173e-02,6.862161755560000076e-01,0.000000000000000000e+00
2.720053526000000055e+00,5.280310054669999253e+00,2.693750423920000081e+00,7.494204832030000318e+00,8.710891008380000633e-01,6.520645320420000168e-02,6.534577608110000435e-01,0.000000000000000000e+00
2.725204866999999975e+00,5.135989262009999834e+00,2.760365461079999694e+00,7.455926831560000245e+00,8.650807738299998162e-01,6.624151021240000381e-02,6.459268331530000351e-01,0.000000000000000000e+00
2.730042912000000044e+00,5.039257319009999847e+00,2.913456420159999727e+00,7.368703890660000866e+00,8.530447483059999669e-01,9.139142185450001288e-02,6.290830373760000205e-01,0.000000000000000000e+00
2.735080932999999881e+00,4.874324823230000270e+00,3.078058368820000279e+00,7.354400640019999713e+00,8.551528453829999599e-01,9.181091934439999935e-02,6.127706170080000625e-01,0.000000000000000000e+00
2.740080938999999827e+00,4.789885083299999735e+00,3.086284637629999938e+00,7.293410457010001124e+00,8.444304466249998864e-01,1.057655289770000062e-01,5.783489346500000350e-01,0.000000000000000000e+00
2.745210463999999906e+00,4.605369058389999992e+00,3.060424512450000023e+00,7.274749595680000347e+00,8.354607224460000037e-01,1.121352687480000054e-01,5.712579488750000323e-01,0.000000000000000000e+00
2.750242195999999861e+00,4.410842803849999605e+00,2.987197363679999551e+00,7.259113050610000784e+00,8.194893002509999747e-01,1.046711280939999905e-01,5.705544352529999808e-01,0.000000000000000000e+00
2.755097247000000138e+00,3.781782684249999971e+00,2.746030061729999971e+00,7.140452768919999471e+00,8.055712580679998958e-01,1.026304662230000109e-01,5.343845486639999809e-01,0.000000000000000000e+00
2.760239712999999817e+00,4.087824901690000345e+00,3.005345891570000205e+00,7.287100543210001113e+00,7.851923108099999604e-01,8.027625828980000655e-02,5.194025039670000510e-01,0.000000000000000000e+00
2.765096976999999789e+00,3.738369951250000156e+00,3.008146335940000249e+00,7.318291215770000413e+00,7.594391703609999489e-01,8.349131792780001282e-02,4.915781617159999950e-01,0.000000000000000000e+00
2.769896709000000179e+00,3.701372638240000068e+00,2.808693438659999764e+00,7.367016375969999586e+00,7.043852806090000751e-01,5.793673172590000503e-02,4.900561571120000126e-01,0.000000000000000000e+00
2.775058897000000080e+00,3.501368536809999821e+00,2.831338693450000221e+00,7.420846750349999965e+00,6.874603033069999203e-01,5.624771490690000375e-02,4.809055328369999938e-01,0.000000000000000000e+00
2.779969978000000008e+00,3.183076786390000024e+00,2.920249149040000436e+00,7.388051565210000504e+00,6.492161750789999797e-01,4.528469219799999973e-02,4.662290215489999778e-01,0.000000000000000000e+00
2.784987741000000128e+00,3.210232796600000160e+00,2.927327416870000310e+00,7.407618435469998985e+00,6.290454864500000243e-01,3.839891776439999932e-02,4.701140224930000500e-01,0.000000000000000000e+00
2.790072550000000096e+00,2.963387449020000286e+00,3.084382018879999965e+00,7.459469034219999628e+00,5.883334279060000727e-01,6.920687388630000596e-03,4.871157705780000402e-01,0.000000000000000000e+00
2.795203384000000124e+00,2.621489782090000276e+00,3.043340983440000258e+00,7.502256621060000796e+00,5.640788674350000198e-01,-1.757752709090000184e-02,4.779507815840000062e-01,0.000000000000000000e+00
2.800047334999999915e+00,2.487370065459999946e+00,3.283680602390000036e+00,7.620609444239999419e+00,5.636664628980000424e-01,-4.217323288319999031e-02,5.027703046800000575e-01,0.000000000000000000e+00
2.805030751999999961e+00,2.221042457159999817e+00,3.489992864049999532e+00,7.728255579969999900e+00,5.507363080980000047e-01,-5.217417329549999677e-02,5.495476126670000294e-01,0.000000000000000000e+00
2.810004195999999954e+00,1.998214091120000147e+00,3.423490055099999818e+00,7.748583497730000325e+00,5.695230364800000222e-01,-7.090715318919998955e-02,5.507651567460000175e-01,0.000000000000000000e+00
2.815186500999999897e+00,1.785937075829999943e+00,3.586061959230000262e+00,7.799355069069999757e+00,5.510249733919999615e-01,-9.345632046460000675e-02,6.076230406759999259e-01,0.000000000000000000e+00
2.820195666000000045e+00,1.555524830530000013e+00,3.560105972459999712e+00,7.984178552500000414e+00,5.535450577739999822e-01,-1.059944108129999979e-01,6.412731409070000499e-01,0.000000000000000000e+00
2.825191837000000206e+00,1.327660077750000056e+00,3.261137638930000193e+00,8.102470585399998981e+00,5.741021633149999692e-01,-1.292015314099999868e-01,6.589339375500000706e-01,0.000000000000000000e+00
2.830210617000000095e+00,1.094903242079999783e+00,3.434920380649999938e+00,8.160366894050000042e+00,5.345371961589999721e-01,-1.461245417589999984e-01,6.791800260539999634e-01,0.000000000000000000e+00
2.835110885000000192e+00,7.888792178879999728e-01,3.178042883880000335e+00,8.193706853600000173e+00,5.254201889039999962e-01,-1.266856640579999971e-01,7.225652337069999875e-01,0.000000000000000000e+00
2.840183926999999997e+00,6.263523950039999733e-01,3.161898389279999666e+00,8.307028696869998896e+00,4.971497058869999708e-01,-1.405409127470000075e-01,7.471486926079999868e-01,0.000000000000000000e+00
2.845202074999999997e+00,4.429151417670000312e-01,3.153010149430000020e+00,8.291805993300000566e+00,4.534347355369999777e-01,-1.608232855800000027e-01,7.572776079180000286e-01,0.000000000000000000e+00
2.850207843000000185e+00,-1.217805691390000042e-02,2.856806312179999807e+00,8.372893207919998915e+00,4.137544631960000108e-01,-1.600844860079999876e-01,7.666226625440000220e-01,0.000000000000000000e+00
2.855013028000000119e+00,-2.865997955429999688e-01,2.868824959009999453e+00,8.408446751860001456e+00,3.628089427949999779e-01,-1.627531647680000026e-01,7.727594971660000089e-01,0.000000000000000000e+00
2.860043697000000051e+00,-3.158334705449999946e-01,2.661703134540000182e+00,8.524629245269998989e+00,3.007262647150000245e-01,-1.559955328700000088e-01,7.912356853489999065e-01,0.000000000000000000e+00
2.865023852999999843e+00,-4.866934201519999559e-01,3.060360215040000220e+00,8.601643511360000716e+00,2.255528271199999657e-01,-1.544549614190000031e-01,7.935333251949999722e-01,0.000000000000000000e+00
2.870194231999999790e+00,-4.557235142069999689e-01,2.833383935540000120e+00,8.648164439520000357e+00,1.575675308699999999e-01,-1.521533876660000062e-01,8.089150190350000713e-01,0.000000000000000000e+00
2.875001446000000183e+00,-5.451396908360000015e-01,2.862933562890000339e+00,8.851880839470000595e+00,9.616184979679999467e-02,-1.766873151059999980e-01,8.088768124580000274e-01,0.000000000000000000e+00
2.880000528000000060e+00,-6.370835593120000029e-01,2.954059940970000131e+00,8.783142818810000918e+00,5.724893510340000463e-02,-1.764790266750000114e-01,8.365002274510000557e-01,0.000000000000000000e+00
2.885000304000000071e+00,-7.474871770530000514e-01,3.117212567599999762e+00,8.877340274899999883e+00,-5.048184539190000205e-04,-1.763601154089999845e-01,8.383793234829999275e-01,0.000000000000000000e+00
2.890076162999999809e+00,-9.155999103110000759e-01,3.093329295450000238e+00,8.934867165710000947e+00,-1.463362574580000068e-02,-2.182055562730000065e-01,8.411815166470000271e-01,0.000000000000000000e+00
2.895047299999999879e+00,-1.465396377440000109e+01,4.263462448269999783e+01,1.813884119520000127e+01,2.794127166270000129e-01,-3.752767443660000035e-01,1.668827980760000107e-01,0.000000000000000000e+00
2.900102122999999921e+00,7.290250531669999035e+00,-6.578272474900000333e+00,2.391677928449999868e+01,1.864290237430000108e+00,1.299052953720000181e+00,-1.903731077910000014e-01,0.000000000000000000e+00
2.905022901000000157e+00,1.421865980180000122e+01,9.364678532289999469e-01,1.897825203820000084e+01,1.966399550440000255e+00,1.760670185089999951e+00,-1.703562885519999959e-01,0.000000000000000000e+00
2.910214662000000008e+00,-9.903596754799999236e-01,5.349969574089999957e-01,4.869809683889999796e+00,9.510474205019999738e-01,1.689940094950000082e+00,1.130919978020000077e-01,0.000000000000000000e+00
2.915063401999999915e+00,-6.964383669830000123e+00,1.089563064710000084e+01,7.641379845069999455e+00,7.449887990950000427e-01,9.984009265899999042e-01,1.224911138419999962e-01,0.000000000000000000e+00
2.920191004999999951e+00,-3.061560713410000356e-01,2.783818232860000297e+00,1.236393326740000020e+01,1.025956392290000130e+00,8.273832798000000377e-01,1.960628852250000109e-02,0.000000000000000000e+00
2.925197348999999836e+00,1.836672260679999891e+00,2.316489182659999813e+00,1.383279118349999948e+01,9.560291767120000506e-01,7.306076288220000325e-01,-5.964763835069999964e-02,0.000000000000000000e+00
2.930197809000000042e+00,-1.013339276789999799e+00,4.326372376519999285e+00,1.105900334619999903e+01,7.655377387999999783e-01,6.450188755989999523e-01,-2.119075953959999870e-01,0.000000000000000000e+00
2.935203383999999804e+00,-6.161044111039999382e-01,4.009180111780000111e+00,1.287757720180000121e+01,9.073358178139999675e-01,7.433124184610000462e-01,-2.399375289679999967e-01,0.000000000000000000e+00
2.940173898999999924e+00,1.482063471139999922e-01,4.038140248809999555e+00,1.275070906369999868e+01,7.831299304960001040e-01,8.274304866789999879e-01,-1.953604221339999836e-01,0.000000000000000000e+00
2.945189312000000115e+00,-8.155884341810000215e-01,4.006332613399999687e+00,1.109155186309999941e+01,6.273657083510000287e-01,7.811000943179999823e-01,-2.255541682240000123e-01,0.000000000000000000e+00
2.950114461000000077e+00,-1.579046429760000203e+00,3.941042102840000450e+00,1.076644429519999946e+01,6.499232053760000127e-01,6.801981329919999375e-01,-2.861958146099999878e-01,0.000000000000000000e+00
2.955038199000000088e+00,-2.254213343750000043e+00,4.321550947719999591e+00,1.119283313999999940e+01,7.410095334049999760e-01,6.757020950319999608e-01,-3.084393441680000070e-01,0.000000000000000000e+00
2.960038810999999992e+00,-1.125313139520000005e+00,6.227088800959999837e+00,8.698162688400000064e+00,6.073656082150000746e-01,6.344550848009999910e-01,-2.715921401979999872e-01,0.000000000000000000e+00
