t,ax,ay,az,wx,wy,wz,zv
5.001280000000000309e-03,2.409202683799999800e+00,2.312793981409999589e+00,-9.221844617200000371e+00,1.000226661560000077e-02,2.772670611739999971e-02,5.309186875819999450e-03,1.000000000000000000e+00
9.983548000000000075e-03,2.372123245470000086e+00,2.320144051909999838e+00,-9.216926450019998995e+00,-1.592958718539999943e-02,-8.900671964510000270e-04,6.441907025869999907e-03,1.000000000000000000e+00
1.494923000000000085e-02,2.403966682850000147e+00,2.300592379220000261e+00,-9.269787102589999606e+00,-1.978963240980000093e-02,2.396571263670000188e-02,2.546713221819999796e-04,1.000000000000000000e+00
2.001332000000000111e-02,2.409504297100000247e+00,2.296137884030000187e+00,-9.218418149879999746e+00,-1.296373270450000038e-02,3.370992373679999876e-03,1.141129061580000055e-02,1.000000000000000000e+00
2.502513400000000096e-02,2.442458326059999685e+00,2.291136422480000157e+00,-9.239182705489998426e+00,-1.584604196250000152e-02,1.075647957620000025e-02,1.484670676289999783e-02,1.000000000000000000e+00
2.999016100000000129e-02,2.401821633640000009e+00,2.286472230059999777e+00,-9.250696617670000066e+00,-2.339356020090000224e-02,3.452033735810000354e-03,1.149367168550000096e-02,1.000000000000000000e+00
3.497981900000000227e-02,2.437413463760000010e+00,2.295037813830000051e+00,-9.226646464519999924e+00,-4.099891986699999956e-03,7.371241226790000572e-03,-1.441481709479999936e-02,1.000000000000000000e+00
4.000480000000000008e-02,2.359341943700000055e+00,2.307037171440000201e+00,-9.211440712079999926e+00,3.667378565299999737e-03,8.563772775229998996e-03,3.262749873099999968e-03,1.000000000000000000e+00
4.498549500000000034e-02,2.402861644209999703e+00,2.303591999430000037e+00,-9.189307790730000036e+00,5.159441381689999773e-03,1.815529912709999694e-02,8.518137969080000552e-03,1.000000000000000000e+00
4.999708299999999772e-02,2.409667817099999887e+00,2.307977667159999857e+00,-9.232285347190000380e+00,2.065068576480000220e-03,1.120832469310000142e-02,1.027734298260000144e-02,1.000000000000000000e+00
5.498069199999999768e-02,2.425863603489999853e+00,2.302245699379999788e+00,-9.213893950450000148e+00,-1.322455517950000062e-02,1.960653346029999928e-03,-4.174923524259999651e-03,1.000000000000000000e+00
5.997447300000000037e-02,2.397106149429999888e+00,2.279402291669999858e+00,-9.241225609489998050e+00,1.348788756880000064e-02,1.091713830829999822e-02,-2.969551365820000122e-03,1.000000000000000000e+00
6.497222099999999667e-02,2.466597618799999836e+00,2.336749149750000143e+00,-9.187310479430001564e+00,6.523911841210000388e-03,-2.678217133510000245e-04,-6.756377406420000127e-03,1.000000000000000000e+00
6.999423400000000239e-02,2.408501549799999975e+00,2.282869383259999552e+00,-9.237562410810001623e+00,1.998464576899999920e-04,6.621509790420000534e-03,7.583291269839999987e-03,1.000000000000000000e+00
7.509577800000000192e-02,2.410616349990000185e+00,2.322255198840000201e+00,-9.231236714919999642e+00,4.262131638820000103e-03,-4.848935641350000415e-03,9.586796164509999232e-03,1.000000000000000000e+00
8.003691799999999856e-02,2.460190089850000206e+00,2.281558592929999740e+00,-9.249621681919999006e+00,2.680489560590000077e-03,5.571032874289999839e-03,-1.550861634309999874e-05,1.000000000000000000e+00
8.504428999999999461e-02,2.419917116170000160e+00,2.292254320590000116e+00,-9.253107770469998883e+00,-8.440097793939999385e-03,1.495565520599999873e-03,7.948641665280000573e-03,1.000000000000000000e+00
9.003944399999999626e-02,2.441891339829999730e+00,2.341235793640000118e+00,-9.229521143169998609e+00,-3.039650851860000585e-03,6.940872408450000225e-03,3.315228037540000113e-03,1.000000000000000000e+00
9.491860900000000101e-02,2.422500410659999659e+00,2.277980442180000065e+00,-9.264159325839999681e+00,3.329937113449999656e-03,4.684820771220000318e-03,-3.591991495340000461e-03,1.000000000000000000e+00
1.000412749999999990e-01,2.394531330499999999e+00,2.283975006420000398e+00,-9.252695098010001118e+00,4.467380931600000772e-04,1.081319525840000045e-02,1.114863250400000005e-02,1.000000000000000000e+00
1.051185189999999936e-01,2.411414514630000117e+00,2.288172165850000273e+00,-9.193331639419998425e+00,1.535833161320000230e-02,-7.510529831049999813e-03,9.263996034860001640e-04,1.000000000000000000e+00
1.100383540000000049e-01,2.414281448370000138e+00,2.296093752629999596e+00,-9.218753080920000897e+00,1.039693783970000070e-02,1.043816376479999967e-02,1.550703309479999764e-02,1.000000000000000000e+00
1.150698470000000029e-01,2.463642276129999864e+00,2.294822125250000067e+00,-9.237201176280001036e+00,-3.893043613059999578e-03,-7.832426344980000050e-04,-6.099820137020000102e-03,1.000000000000000000e+00
1.199793160000000025e-01,2.395932137209999979e+00,2.279418366029999810e+00,-9.225502555180000286e+00,1.521673705429999780e-02,-1.037462893870000000e-02,1.280694641170000182e-02,1.000000000000000000e+00
1.250555459999999897e-01,2.469676295600000238e+00,2.325883764599999903e+00,-9.216315624639999982e+00,5.230325274170000149e-03,1.250815950329999850e-02,-5.489423871039999896e-03,1.000000000000000000e+00
1.300444199999999939e-01,2.390802957629999614e+00,2.258787665929999910e+00,-9.277517404580001070e+00,1.457945676519999947e-03,4.645208828149999594e-03,1.029914524410000150e-02,1.000000000000000000e+00
1.349985959999999985e-01,2.427042145749999769e+00,2.289023521979999920e+00,-9.226001152349999401e+00,-1.298142410809999953e-02,-9.558359161020000064e-03,1.523876562709999990e-06,1.000000000000000000e+00
1.400531299999999979e-01,2.417155688629999855e+00,2.321201013609999642e+00,-9.219055863260001260e+00,2.536662854250000022e-03,5.338481627399999097e-03,-5.591303110119999649e-03,1.000000000000000000e+00
1.449805590000000088e-01,2.395324088309999766e+00,2.323618742279999871e+00,-9.216548264349999187e+00,-6.345603615050000521e-03,-1.398561894889999851e-02,-2.469199942420000158e-03,1.000000000000000000e+00
1.500347579999999903e-01,2.409549889809999623e+00,2.340283899749999730e+00,-9.210991214750000822e+00,4.122026264670000315e-03,-3.161886241290000170e-03,-1.575958798640000186e-03,1.000000000000000000e+00
1.549891810000000036e-01,2.399847264829999993e+00,2.318892298279999764e+00,-9.208476601579999254e+00,1.305284444239999952e-02,-2.316970005630000079e-02,4.702935926619999582e-03,1.000000000000000000e+00
1.600355639999999913e-01,2.423619331690000323e+00,2.307070489190000462e+00,-9.201158972039999995e+00,6.480906158689999329e-03,-5.308773834259999762e-03,-2.446841914209999750e-03,1.000000000000000000e+00
1.650312519999999894e-01,2.422944647300000032e+00,2.319013878829999875e+00,-9.196408562649999396e+00,-1.044707838449999938e-03,-1.907697692509999904e-02,-1.036586984989999911e-02,1.000000000000000000e+00
1.700252929999999940e-01,2.368665798489999919e+00,2.304795091609999957e+00,-9.193668908550000296e+00,-1.136238034810000026e-02,-1.319841761140000055e-02,5.006001330909999429e-03,1.000000000000000000e+00
1.750750179999999989e-01,2.419389585170000245e+00,2.292721061319999976e+00,-9.215013309870000668e+00,-3.011988708750000261e-03,-9.850881993770000886e-03,-6.224717944859999540e-03,1.000000000000000000e+00
1.800708990000000065e-01,2.358184151969999753e+00,2.273324140800000226e+00,-9.263355023709999969e+00,2.336971275510000071e-02,-2.316006645559999522e-02,6.201863288879999950e-03,1.000000000000000000e+00
1.850419070000000055e-01,2.397484773479999998e+00,2.303249323470000220e+00,-9.239830940260000958e+00,5.077603273090000244e-03,-8.211936801670000432e-05,7.003950886430000905e-04,1.000000000000000000e+00
1.900224339999999901e-01,2.392139759190000436e+00,2.320999353559999978e+00,-9.251791427169999693e+00,1.329456456010000114e-02,-7.475217338649999682e-03,-3.777319798249999857e-03,1.000000000000000000e+00
1.949165300000000045e-01,2.383666676009999819e+00,2.320343227740000014e+00,-9.188667739260001355e+00,4.862283356489999209e-03,1.167739043009999962e-03,-2.020613756029999986e-03,1.000000000000000000e+00
2.000016030000000000e-01,2.388527998429999855e+00,2.298686983990000154e+00,-9.213796335299999640e+00,-1.281066332010000024e-02,-2.054273337129999821e-02,1.316942740230000108e-03,1.000000000000000000e+00
2.051250259999999881e-01,2.385081657370000219e+00,2.311763469309999763e+00,-9.210597831519999446e+00,2.698465483260000311e-03,1.625829935070000065e-02,1.140419673170000106e-02,1.000000000000000000e+00
2.100364489999999862e-01,2.434483255530000001e+00,2.280831301559999691e+00,-9.216010504219999788e+00,4.810391925279999988e-03,-1.884239027279999883e-03,-9.451844729479999888e-03,1.000000000000000000e+00
2.149879229999999974e-01,2.408840280230000186e+00,2.292579899290000167e+00,-9.223886936679999593e+00,-8.236332796510001039e-03,-1.787276938560000000e-02,-6.165557075290000258e-03,1.000000000000000000e+00
2.200366149999999910e-01,2.426978432859999923e+00,2.276916027820000021e+00,-9.244255186449999329e+00,-6.210478022689999364e-03,-1.319856755439999946e-02,-8.625293150540001494e-03,1.000000000000000000e+00
2.250369720000000018e-01,2.406632833309999775e+00,2.285804121540000011e+00,-9.187663530650000965e+00,-4.923139698800000491e-03,-1.096623577180000017e-02,-1.092956960200000029e-02,1.000000000000000000e+00
2.300283369999999994e-01,2.422562077720000318e+00,2.302187247200000009e+00,-9.208767108960000058e+00,-1.201147679239999988e-02,1.831541769210000064e-03,-9.050458669660000136e-03,1.000000000000000000e+00
2.350057100000000065e-01,2.400064122449999893e+00,2.317698412319999957e+00,-9.208502320539999175e+00,-5.030193715360000480e-04,6.974087096750000714e-03,-2.282723085949999679e-03,1.000000000000000000e+00
2.400424399999999958e-01,2.441454848109999798e+00,2.306998300740000118e+00,-9.205051303310000321e+00,-1.034124661239999889e-02,-8.980212733150000348e-03,-1.304065622389999866e-02,1.000000000000000000e+00
2.450032910000000119e-01,2.339615645099999863e+00,2.303670033099999959e+00,-9.193171480420000208e+00,7.205086760220000101e-03,-1.577260717750000180e-02,8.592953905459999042e-03,1.000000000000000000e+00
2.500110389999999905e-01,2.392321837759999958e+00,2.290176053010000157e+00,-9.244118408330001202e+00,-4.350650124250000222e-03,5.093555897469999837e-03,-1.100284745920000230e-03,1.000000000000000000e+00
2.549234369999999750e-01,2.403555033299999977e+00,2.336432923409999862e+00,-9.256576323360000913e+00,-2.443171106280000050e-03,-4.721802659330000089e-03,-1.310721598570000097e-02,1.000000000000000000e+00
2.600355360000000116e-01,2.373204610970000239e+00,2.311670530329999806e+00,-9.225790724470000370e+00,-6.638046354060000813e-03,-8.801516145469999441e-03,-2.479642163959999875e-03,1.000000000000000000e+00
2.650290040000000125e-01,2.388414016670000084e+00,2.291345827450000261e+00,-9.245390327959999155e+00,-8.526575402360000782e-04,-1.178740337490000005e-02,-8.952016010879998431e-03,1.000000000000000000e+00
2.700600830000000063e-01,2.339830164629999931e+00,2.311512563290000433e+00,-9.255966082509999637e+00,-1.421208959070000173e-02,-4.217498004439999663e-03,4.006889648739999678e-03,1.000000000000000000e+00
2.749697839999999949e-01,2.382940261429999929e+00,2.284351000120000030e+00,-9.223090817870000180e+00,3.346480661999999616e-04,-6.618465296920000331e-03,7.619868963960000491e-03,1.000000000000000000e+00
2.800249699999999842e-01,2.408584259640000003e+00,2.268711386309999689e+00,-9.246618408450000715e+00,-1.835382170979999936e-02,-1.550603285429999999e-02,-5.662757437680000783e-03,1.000000000000000000e+00
2.850443539999999998e-01,2.378186198769999926e+00,2.300690432770000182e+00,-9.251211581459999778e+00,-8.672174997629998952e-03,6.025165319439999487e-03,1.022979058329999934e-02,1.000000000000000000e+00
2.900102070000000198e-01,2.427977965290000206e+00,2.314189089030000090e+00,-9.213601689510001691e+00,-1.149054896089999993e-02,1.642004121089999866e-03,-1.191188581289999958e-02,1.000000000000000000e+00
2.948980370000000018e-01,2.360288138509999634e+00,2.312801872450000129e+00,-9.219096195269999683e+00,-8.748149499299999118e-03,-6.991480477149999420e-04,1.325149275360000024e-02,1.000000000000000000e+00
3.000131209999999937e-01,2.444554713820000114e+00,2.311455426279999781e+00,-9.230310247729999418e+00,-2.658538520340000127e-02,-9.014396928250000343e-03,3.964705392719999541e-03,1.000000000000000000e+00
3.049819750000000163e-01,2.394632452790000254e+00,2.285624819449999734e+00,-9.203402951579999325e+00,-1.641359925270000075e-02,-7.124593947079999740e-03,5.315009504560000431e-03,0.000000000000000000e+00
3.099984809999999924e-01,2.436231706629999660e+00,2.327187102289999920e+00,-9.207546042729999769e+00,-2.604311704640000294e-02,-1.836087321859999888e-04,-9.938752278690000247e-03,1.000000000000000000e+00
3.149815770000000126e-01,2.351729861259999943e+00,2.302226848549999705e+00,-9.215040782400000907e+00,-2.888627909119999976e-02,9.211617521939999970e-03,6.084028631449999933e-03,1.000000000000000000e+00
3.200244959999999916e-01,2.364785742190000040e+00,2.298703642859999619e+00,-9.215787216849999908e+00,-1.362802274529999885e-02,1.477808039639999863e-02,8.101093582810000096e-03,1.000000000000000000e+00
3.250118249999999764e-01,2.407636019009999906e+00,2.300911089780000029e+00,-9.228222335539998156e+00,-1.066413242370000194e-02,1.042518299069999975e-03,-3.189232433210000169e-03,1.000000000000000000e+00
3.300750129999999727e-01,2.387022562309999874e+00,2.315234068030000092e+00,-9.217910200360000417e+00,-2.662941068409999806e-02,5.680446047339999345e-04,1.653223764150000110e-03,1.000000000000000000e+00
3.349275850000000276e-01,2.386293078990000094e+00,2.342355153059999751e+00,-9.249996360449999955e+00,-2.635543979699999859e-02,-2.432065550239999579e-03,9.452342055739999718e-04,0.000000000000000000e+00
3.399605809999999839e-01,2.414388415879999972e+00,2.330751078380000063e+00,-9.207591635439998257e+00,-1.662336476150000006e-02,-3.516175784169999841e-04,-3.142468165609999930e-03,1.000000000000000000e+00
3.449170690000000206e-01,2.360130902120000318e+00,2.302327240190000346e+00,-9.206465846280000420e+00,-2.342486195270000043e-02,3.904771059750000110e-03,4.340006504210000560e-03,1.000000000000000000e+00
3.499557739999999972e-01,2.395471680090000000e+00,2.305585511329999893e+00,-9.233363205560001674e+00,-7.464300841090000700e-03,1.009345613420000072e-02,4.774163477120000297e-03,1.000000000000000000e+00
3.548808030000000224e-01,2.433897126209999762e+00,2.309884231440000324e+00,-9.277004194360001677e+00,-8.255074732010000624e-03,1.597492769360000023e-02,-2.818478969860000165e-03,1.000000000000000000e+00
3.600227550000000276e-01,2.427093437539999954e+00,2.308981583509999602e+00,-9.241385183969999417e+00,-2.199287340040000094e-02,1.223473995920000210e-02,-3.850440727550000393e-03,1.000000000000000000e+00
3.650248930000000169e-01,2.416881255609999890e+00,2.320898523539999925e+00,-9.244635710199998968e+00,-3.176758438349999714e-02,4.647713620219999855e-03,-6.902988068759999957e-03,0.000000000000000000e+00
3.700253150000000213e-01,2.408982903570000111e+00,2.329050558070000054e+00,-9.271647051239998660e+00,-3.391796350480000277e-02,-6.729958578940000401e-03,-1.443793065849999918e-02,1.000000000000000000e+00
3.749081830000000060e-01,2.430076252740000164e+00,2.318670033829999699e+00,-9.213388339019999762e+00,-2.313120476900000153e-02,3.002173267300000184e-03,-7.110589183869999580e-03,1.000000000000000000e+00
3.799284700000000181e-01,2.404818185109999895e+00,2.312540152770000024e+00,-9.250396757939999048e+00,-3.158300416540000145e-03,-2.356653800230000106e-03,-6.529001519079999892e-03,1.000000000000000000e+00
3.849326180000000042e-01,2.388855622949999979e+00,2.280291495600000218e+00,-9.260111511749999025e+00,-8.401403203610000384e-03,3.034316934650000200e-03,9.233339689670000058e-03,1.000000000000000000e+00
3.899584440000000152e-01,2.459152271229999798e+00,2.323629117539999900e+00,-9.202975666080000394e+00,-2.927423454820000243e-02,1.856902614239999911e-03,-1.406917348500000102e-02,1.000000000000000000e+00
3.950255360000000104e-01,2.402096943450000133e+00,2.320880111100000143e+00,-9.244775410929999993e+00,-3.402350097890000091e-02,-6.984289735560000358e-03,-7.142287679019999717e-03,1.000000000000000000e+00
4.000086589999999886e-01,2.364020018509999765e+00,2.320209226100000244e+00,-9.209622849009999612e+00,-1.833606325090000183e-02,-8.399235084650000238e-03,-1.125956047329999994e-02,1.000000000000000000e+00
4.050043970000000160e-01,2.424252953419999912e+00,2.292192507400000245e+00,-9.261256005610000841e+00,-2.934587001800000039e-02,-1.405700296160000175e-02,-1.588625460859999922e-02,1.000000000000000000e+00
4.099716389999999988e-01,2.380000846979999807e+00,2.280299532769999971e+00,-9.261164235669999911e+00,-2.573921158909999937e-02,-6.072696298359998857e-03,1.949226018040000133e-03,1.000000000000000000e+00
4.149819009999999864e-01,2.384301174520000011e+00,2.312685844859999840e+00,-9.250402603160001291e+00,-3.372355923059999760e-02,7.286135107279999995e-03,-7.749714422969999732e-03,0.000000000000000000e+00
4.199990590000000079e-01,2.415068214840000227e+00,2.332822623959999842e+00,-9.241149037130000465e+00,-2.961063012479999909e-02,2.140332479030000127e-03,-9.774280712009999345e-03,1.000000000000000000e+00
4.249670409999999898e-01,2.361561081050000066e+00,2.308131396420000314e+00,-9.225421891159999888e+00,-2.535676397379999988e-02,-1.154928933829999990e-02,-6.048422306780000188e-03,1.000000000000000000e+00
4.299879600000000024e-01,2.424401568109999960e+00,2.354283929659999774e+00,-9.237560657239999529e+00,-4.361096397039999906e-02,1.167004648599999882e-02,-1.570124924179999715e-02,1.000000000000000000e+00
4.350081659999999739e-01,2.400076251279999795e+00,2.367543516460000053e+00,-9.210678495539999844e+00,-1.265439670530000074e-02,-7.375959772619999737e-03,-4.872226156290000373e-03,1.000000000000000000e+00
4.400008550000000240e-01,2.454818918199999978e+00,2.333086097199999820e+00,-9.201256002679999213e+00,-2.871191874149999976e-02,5.211951211089999904e-03,-1.551442500199999922e-02,1.000000000000000000e+00
4.449611740000000148e-01,2.333669450039999926e+00,2.343111816650000012e+00,-9.177380037049999828e+00,-3.461545705800000289e-02,1.390146324410000038e-03,-7.584902457890000359e-03,1.000000000000000000e+00
4.499752770000000068e-01,2.395101823870000146e+00,2.377074145879999989e+00,-9.212858177660001147e+00,-3.082166612149999860e-02,-1.966239185999999958e-03,9.750360622999998828e-04,1.000000000000000000e+00
4.549263610000000013e-01,2.291509347440000344e+00,2.361299945899999919e+00,-9.152579942310000050e+00,-4.959040880199999668e-02,1.278578117489999853e-02,1.167261786760000024e-02,1.000000000000000000e+00
4.600212859999999737e-01,2.422034838980000160e+00,2.308548598920000305e+00,-9.164302528810001292e+00,-3.007351793350000052e-02,8.120788261290000365e-03,5.137778352950000352e-04,1.000000000000000000e+00
4.650092470000000144e-01,2.340703440329999996e+00,2.415189064740000280e+00,-9.223857710580000813e+00,-3.817554935809999717e-02,3.335573244840000368e-03,1.575661264360000285e-02,1.000000000000000000e+00
4.699738629999999917e-01,2.362579318189999888e+00,2.336837704819999750e+00,-9.222173703019999280e+00,-4.005546867850000303e-02,1.612621173259999943e-02,2.892389893530000083e-04,1.000000000000000000e+00
4.749372720000000214e-01,2.409091478509999718e+00,2.383778904209999716e+00,-9.256308612330000685e+00,-4.385023191569999840e-02,4.740605130789999656e-03,9.640279226010000507e-03,1.000000000000000000e+00
4.800249619999999995e-01,2.445298225670000214e+00,2.357303131349999692e+00,-9.166957427230000732e+00,-4.493460431690000229e-02,3.160824999209999910e-03,-1.481168344620000139e-02,0.000000000000000000e+00
4.849506559999999800e-01,2.316909600029999794e+00,2.348933362409999948e+00,-9.183948309519999853e+00,-3.947277739640000366e-02,7.670789957049999920e-03,1.146235875790000032e-02,1.000000000000000000e+00
4.900170289999999929e-01,2.470222823559999892e+00,2.379002191329999683e+00,-9.244162831989997997e+00,-4.077629745009999501e-02,9.113359265030001113e-03,7.313583977520000078e-03,0.000000000000000000e+00
4.949914979999999742e-01,2.355364272240000112e+00,2.323880169699999776e+00,-9.193265003919998790e+00,-4.104914516210000225e-02,2.302400395270000344e-02,1.315166987479999931e-02,0.000000000000000000e+00
4.999701690000000198e-01,2.457301674930000068e+00,2.361943358370000023e+00,-9.170112091869999205e+00,-3.944049030539999862e-02,1.196950953449999952e-02,-4.577130544929999996e-03,1.000000000000000000e+00
5.050111849999999736e-01,2.439718671970000141e+00,2.323811342239999966e+00,-9.162587541589999773e+00,-4.214328154919999569e-02,1.464613061400000041e-02,5.877204239369999972e-03,1.000000000000000000e+00
5.100629629999999803e-01,2.427133477289999952e+00,2.351106760930000039e+00,-9.188871152879999116e+00,-3.815715014930000371e-02,7.943321019409999365e-03,-8.556118700650001269e-04,1.000000000000000000e+00
5.149705329999999526e-01,2.349233952790000135e+00,2.324897530039999882e+00,-9.219096779790000085e+00,-4.525908827780000115e-02,1.557419169689999890e-02,7.576555944979999641e-04,1.000000000000000000e+00
5.199981999999999660e-01,2.409419979820000002e+00,2.404262889309999984e+00,-9.223239870949999641e+00,-4.048513248559999778e-02,-2.318256068969999726e-03,1.320854946970000110e-02,1.000000000000000000e+00
5.250048790000000354e-01,2.340452680440000321e+00,2.341011921759999836e+00,-9.158528037060001736e+00,-3.850783780219999702e-02,3.925657644869999519e-02,1.218936871739999955e-03,1.000000000000000000e+00
5.299746870000000554e-01,2.523985977929999791e+00,2.363636133760000035e+00,-9.217691589170000199e+00,-3.543543815610000064e-02,2.699782699350000009e-02,-1.151859760279999763e-02,1.000000000000000000e+00
5.349323670000000197e-01,2.285430319790000109e+00,2.340271332529999970e+00,-9.242164936169999123e+00,-5.954337865109999434e-02,2.367959916590000116e-02,6.856787018479999253e-03,1.000000000000000000e+00
5.400018269999999898e-01,2.435931700770000319e+00,2.347627102120000142e+00,-9.164771315369998561e+00,-4.492367804050000080e-02,3.054960444570000225e-02,1.272548362609999921e-02,1.000000000000000000e+00
5.450151389999999818e-01,2.399505904040000193e+00,2.425478695820000308e+00,-9.263861219669999869e+00,-4.419107735159999439e-02,9.416392073040000255e-03,7.774073630570000129e-03,1.000000000000000000e+00
5.499257210000000340e-01,2.443862932160000057e+00,2.324974102410000132e+00,-9.175054224450001072e+00,-5.290062353009999940e-02,2.039311826229999944e-02,4.515266045930000673e-03,1.000000000000000000e+00
5.550429430000000108e-01,2.486427816169999971e+00,2.443601358620000052e+00,-9.196098766040000427e+00,-5.172021314500000605e-02,1.223287638279999846e-02,-1.197542063890000069e-03,1.000000000000000000e+00
5.599278629999999701e-01,2.350573823089999959e+00,2.362528172520000247e+00,-9.123319361040000075e+00,-5.066776275629999993e-02,2.062396705150000217e-02,9.938358329239999414e-03,1.000000000000000000e+00
5.649412969999999534e-01,2.476528937970000399e+00,2.406832885930000110e+00,-9.182799724009999665e+00,-3.842177614569999844e-02,2.782757952809999588e-02,1.082144770770000070e-02,1.000000000000000000e+00
5.699756470000000297e-01,2.353762243869999882e+00,2.383466769520000028e+00,-9.177195912649999343e+00,-2.296854555609999585e-02,1.641671359539999958e-02,2.104271017009999925e-02,1.000000000000000000e+00
5.749416579999999666e-01,2.440993952599999961e+00,2.359688711310000020e+00,-9.160237179070000124e+00,-5.495570972559999517e-02,9.992628358299998972e-03,6.133270449939999883e-03,1.000000000000000000e+00
5.799440390000000223e-01,2.341004907499999899e+00,2.345609917079999995e+00,-9.172035168889999923e+00,-6.357322633270000301e-02,3.978540748359999518e-02,-2.370728179810000012e-05,1.000000000000000000e+00
5.849712049999999941e-01,2.365983719799999996e+00,2.344661091919999940e+00,-9.118934862339999725e+00,-4.135362058880000247e-02,3.255743905899999985e-02,1.226749923079999832e-02,1.000000000000000000e+00
5.899707119999999527e-01,2.439149055390000154e+00,2.392885901379999680e+00,-9.172420953339999627e+00,-5.441373214129999886e-02,6.942282430829999421e-03,-1.445252913979999925e-03,1.000000000000000000e+00
5.949248190000000491e-01,2.307468548600000169e+00,2.394623246570000141e+00,-9.148203042400000484e+00,-3.441792353990000275e-02,3.683041408659999683e-02,3.838539123539999598e-03,1.000000000000000000e+00
6.000562969999999607e-01,2.489862174529999805e+00,2.455285951190000038e+00,-9.217835966080000887e+00,-1.907662302259999915e-02,8.350660093129999573e-03,-5.072650965299999384e-04,1.000000000000000000e+00
6.049943770000000276e-01,2.407707622940000292e+00,2.373910859540000473e+00,-9.159608233510001085e+00,-1.908363029359999921e-02,2.613729983570000151e-02,9.607371874149998880e-03,1.000000000000000000e+00
6.100285349999999829e-01,2.477546590579999819e+00,2.417385405740000159e+00,-9.197404587950000376e+00,-4.714911803600000534e-02,1.930392906070000150e-02,1.369705051179999876e-02,1.000000000000000000e+00
6.149230479999999721e-01,2.440684009870000004e+00,2.390147124069999851e+00,-9.213028858060001269e+00,-2.662048861380000159e-02,3.443534299730000026e-02,3.458329010749999527e-04,1.000000000000000000e+00
6.200511440000000540e-01,2.493866441740000273e+00,2.469886431219999956e+00,-9.171983730960000969e+00,-1.404922734949999932e-02,1.680512679739999855e-03,3.904496319590000219e-03,1.000000000000000000e+00
6.250086169999999886e-01,2.325183361250000136e+00,2.368340365929999969e+00,-9.152243257700000356e+00,-2.039281465109999900e-02,1.039875391869999992e-02,1.152458414439999981e-02,1.000000000000000000e+00
6.300069099999999755e-01,2.551723295159999516e+00,2.423534722149999876e+00,-9.163591165669998873e+00,-3.196334093810000027e-02,1.322112604979999891e-02,-9.295947849750000117e-03,1.000000000000000000e+00
6.350040810000000535e-01,2.380466564789999850e+00,2.291689818579999649e+00,-9.176905405270000315e+00,-1.940118707720000016e-02,2.610794082279999789e-02,1.461746543649999897e-02,1.000000000000000000e+00
6.400204910000000247e-01,2.482196462209999677e+00,2.405993366370000164e+00,-9.147814919869999173e+00,-2.826343290509999648e-02,2.993422374129999994e-02,5.944234319029999963e-03,1.000000000000000000e+00
6.449986939999999835e-01,2.469501815809999723e+00,2.406673603720000276e+00,-9.205184574299998701e+00,-3.902702406050000128e-02,1.405740808699999962e-02,5.495642311869999679e-03,1.000000000000000000e+00
6.500394360000000260e-01,2.389911561749999969e+00,2.290396271640000148e+00,-9.203318780429999180e+00,-3.242077678440000166e-02,2.590792998670000263e-02,6.851249374449999013e-03,0.000000000000000000e+00
6.549863200000000107e-01,2.406766834959999990e+00,2.351829376109999536e+00,-9.244803467980000633e+00,-2.674933336679999676e-02,1.128455158320000248e-02,7.990381680430000064e-03,1.000000000000000000e+00
6.599680159999999907e-01,2.394345452540000085e+00,2.394995294749999726e+00,-9.213490630349999932e+00,-7.923011668030000010e-03,-3.290141234170000130e-03,4.881960339840000183e-03,1.000000000000000000e+00
6.649850800000000062e-01,2.372231235890000178e+00,2.440471682290000111e+00,-9.194968300710000264e+00,-2.287323586640000253e-02,1.468744594599999918e-02,-3.633056767280000345e-03,1.000000000000000000e+00
6.700452260000000493e-01,2.311590743100000012e+00,2.431397418350000006e+00,-9.151430187760000834e+00,-1.477324310689999941e-02,1.603462919589999924e-02,9.607817046339998945e-03,1.000000000000000000e+00
6.749964739999999574e-01,2.506859194300000038e+00,2.492031919790000050e+00,-9.099671358949999345e+00,-2.466374076900000253e-02,2.364789135750000170e-03,-9.035140275959998440e-03,0.000000000000000000e+00
6.799750719999999582e-01,2.473505498499999788e+00,2.395087941469999926e+00,-9.162639564030000017e+00,-2.525763772429999790e-02,1.148515846580000022e-03,-3.018620889629999946e-03,1.000000000000000000e+00
6.849914129999999934e-01,2.566712189980000058e+00,2.414964169940000183e+00,-9.176537156480000235e+00,-3.802654519680000178e-02,2.301493193949999665e-03,-1.265797950329999866e-02,0.000000000000000000e+00
6.901133360000000216e-01,2.456783788540000124e+00,2.389638736150000220e+00,-9.107550129499999869e+00,-8.966718800369999701e-03,-1.634965068660000154e-03,-1.132726902140000205e-03,1.000000000000000000e+00
6.949310899999999735e-01,2.502985275479999938e+00,2.491189331490000214e+00,-9.189656165780000663e+00,-1.707504130899999834e-02,-6.487807724620000237e-03,-8.783051744100000419e-03,1.000000000000000000e+00
6.999338139999999875e-01,2.380704465200000008e+00,2.416965280629999935e+00,-9.143627405049999268e+00,-9.639888070520000532e-03,2.890020608900000388e-03,1.442888751630000237e-03,0.000000000000000000e+00
7.049938470000000068e-01,2.508756844620000148e+00,2.449744099159999688e+00,-9.169023127590000044e+00,7.769005605949999647e-04,-2.985632047059999777e-03,-1.007240079339999893e-02,1.000000000000000000e+00
7.099222990000000344e-01,2.466658409079999892e+00,2.362337618379999782e+00,-9.118081460379999115e+00,-1.479082275179999934e-02,3.117150161419999718e-03,-2.456066012379999608e-02,0.000000000000000000e+00
7.149036349999999818e-01,2.535947926140000419e+00,2.506167997169999939e+00,-9.214615834989999144e+00,-8.931380696590000140e-03,-2.311521209780000204e-03,-1.086384057999999903e-02,0.000000000000000000e+00
7.199505999999999961e-01,2.433877690850000164e+00,2.388842471209999818e+00,-9.208325794929999475e+00,8.084116503600000808e-03,7.281231228260000299e-04,1.454045530410000156e-03,1.000000000000000000e+00
7.249472820000000262e-01,2.583821730209999945e+00,2.444613166009999894e+00,-9.185199186369999325e+00,-1.650825887920000234e-02,-1.361217536029999883e-02,-1.521211303770000044e-02,0.000000000000000000e+00
7.299553920000000362e-01,2.514350719099999854e+00,2.444686815770000354e+00,-9.198013075229999558e+00,-5.393755622209999746e-03,-2.394245564940000043e-02,-2.270488254729999614e-02,0.000000000000000000e+00
7.348859660000000016e-01,2.465110595120000081e+00,2.435624242259999850e+00,-9.156616065960001549e+00,-8.411774411799998949e-03,-2.498099580410000076e-02,-1.852919347579999945e-02,0.000000000000000000e+00
7.399917209999999912e-01,2.446293520309999803e+00,2.435346740490000439e+00,-9.201071293760000103e+00,-7.280892692510000479e-03,-3.947217017409999917e-02,-2.007069624959999937e-02,1.000000000000000000e+00
7.449659250000000288e-01,2.458895081600000143e+00,2.434605712869999827e+00,-9.145278679389999610e+00,-8.836267516020001114e-03,-3.129469603300000236e-02,-2.308647707100000210e-02,1.000000000000000000e+00
7.499400440000000279e-01,2.355114389129999708e+00,2.451860360660000016e+00,-9.115179893720000592e+00,-8.494448848069999572e-03,-2.543359994890000142e-02,-2.180978283290000222e-02,1.000000000000000000e+00
7.550372319999999471e-01,2.401991144990000215e+00,2.459538640199999904e+00,-9.178108351320000580e+00,-7.523846812550000207e-03,-3.121089935300000104e-02,-2.981486916540000004e-02,0.000000000000000000e+00
7.600805999999999951e-01,2.394673953839999925e+00,2.461119187390000018e+00,-9.133913235770000583e+00,-8.415454998609999543e-03,-3.720219805839999894e-02,-3.522998839620000017e-02,1.000000000000000000e+00
7.649989569999999794e-01,2.321167403609999624e+00,2.426498394259999802e+00,-9.159157567139999401e+00,-1.269344333559999961e-02,-4.085090011359999995e-02,-1.630059629680000177e-02,1.000000000000000000e+00
7.699763450000000065e-01,2.489049396850000040e+00,2.391798982929999706e+00,-9.150460465940000176e+00,-8.167311549190000783e-03,-3.204440325499999936e-02,-4.297480732200000680e-02,0.000000000000000000e+00
7.750384850000000547e-01,2.343022677059999559e+00,2.437452042209999892e+00,-9.123908559100000204e+00,-2.243230119350000072e-03,-3.810911625619999715e-02,-2.711902745070000204e-02,0.000000000000000000e+00
7.799829649999999726e-01,2.428921822009999953e+00,2.470166709459999943e+00,-9.167622613139998933e+00,-5.166621878739999750e-03,-3.557562828059999960e-02,-2.496099844570000281e-02,1.000000000000000000e+00
7.849852520000000222e-01,2.460616498569999866e+00,2.480458386370000046e+00,-9.074864249950000072e+00,-8.710404857989999944e-03,-4.066095128660000141e-02,-3.508141636849999856e-02,1.000000000000000000e+00
7.900130020000000197e-01,2.444812487970000170e+00,2.438367549620000130e+00,-9.133802761130001002e+00,8.637715363879999286e-04,-5.250735580919999729e-02,-4.427742958069999513e-02,0.000000000000000000e+00
7.949776219999999949e-01,2.469175652599999715e+00,2.371413343630000004e+00,-9.135977767079999978e+00,-2.575429901479999936e-02,-5.187274515630000554e-02,-1.947671733800000055e-02,0.000000000000000000e+00
7.999325320000000294e-01,2.533959382679999983e+00,2.368797462050000302e+00,-9.167852330249999682e+00,1.592577202249999919e-03,-5.520699918269999368e-02,-3.326537087559999772e-02,0.000000000000000000e+00
8.049798700000000418e-01,2.377518382509999917e+00,2.405378887729999970e+00,-9.117803227959999646e+00,-1.762015931310000061e-02,-4.899420961740000302e-02,-3.341278806330000295e-02,1.000000000000000000e+00
8.099992660000000511e-01,2.288307774920000259e+00,2.520726099350000027e+00,-9.151116299499999940e+00,-1.485924236479999917e-02,-4.282878711819999851e-02,-2.500202320520000104e-02,1.000000000000000000e+00
8.149870890000000534e-01,2.174277491120000239e+00,2.486670100500000036e+00,-9.149784174109999668e+00,5.703476257619999844e-03,-4.736337438230000391e-02,-1.912810094650000195e-02,0.000000000000000000e+00
8.200220010000000004e-01,2.301514170240000379e+00,2.484201080030000064e+00,-9.131510266279999399e+00,-1.473272498700000169e-02,-4.767674952749999945e-02,-4.272753000260000322e-02,0.000000000000000000e+00
8.249409199999999664e-01,2.384678775659999861e+00,2.412249796409999814e+00,-9.141044402819998638e+00,-9.818363003429999430e-03,-4.129202663900000125e-02,-3.735560178760000127e-02,1.000000000000000000e+00
8.299772960000000310e-01,2.529170394829999946e+00,2.267499526299999957e+00,-9.178684105380000346e+00,4.845865070819999586e-03,-5.174486711619999402e-02,-3.430265188219999706e-02,1.000000000000000000e+00
8.350165640000000167e-01,2.566194888110000072e+00,2.273506657760000049e+00,-9.145952048610000773e+00,1.240281574430000117e-02,-6.474404037000000556e-02,-1.830824092029999933e-02,1.000000000000000000e+00
8.399673680000000475e-01,2.673526843320000346e+00,2.281124439290000083e+00,-9.197084854470000792e+00,3.567162202670000164e-03,-7.817834615710000934e-02,-1.921263337140000083e-02,1.000000000000000000e+00
8.449929379999999712e-01,2.520021458220000010e+00,2.295432366109999567e+00,-9.115430069089999421e+00,1.352095138279999810e-02,-6.700620055200000313e-02,-1.544462982569999934e-02,1.000000000000000000e+00
8.499945399999999651e-01,2.399774491850000135e+00,2.447886488590000464e+00,-9.147212862319999971e+00,-2.576698362829999908e-02,-7.967121899130000240e-02,-1.867919974029999888e-02,1.000000000000000000e+00
8.548583060000000122e-01,2.306499849699999771e+00,2.481359719129999863e+00,-9.151722448699999291e+00,-6.279247812930000179e-03,-5.572209134699999955e-02,-4.005127586420000052e-03,1.000000000000000000e+00
8.599344850000000262e-01,2.320541526790000031e+00,2.494252226189999977e+00,-9.177786279760001165e+00,-3.812244907020000129e-02,-7.701074332000000522e-02,-1.275113318119999988e-03,1.000000000000000000e+00
8.649466970000000421e-01,2.399535860790000363e+00,2.428865854040000105e+00,-9.152577019700000704e+00,-1.367539819329999934e-02,-7.206606119870000160e-02,-1.249423529950000056e-02,0.000000000000000000e+00
8.699222629999999734e-01,2.502672556269999848e+00,2.328150394359999709e+00,-9.191432527799999974e+00,-1.465113833550000036e-02,-6.509996950629999557e-02,-1.008222345260000041e-02,1.000000000000000000e+00
8.749435970000000173e-01,2.528879010669999872e+00,2.272386275429999714e+00,-9.154333507980000562e+00,2.537109702829999994e-02,-6.824141740799999356e-02,4.782805219289999570e-03,1.000000000000000000e+00
8.799497250000000159e-01,2.539371763109999680e+00,2.206579924310000163e+00,-9.079805213480000248e+00,2.637963928280000203e-02,-6.765072047709999592e-02,-8.100820705289999910e-03,1.000000000000000000e+00
8.849371390000000392e-01,2.271049181610000023e+00,2.374551203270000244e+00,-9.136908325930001240e+00,3.994015231729999837e-02,-5.781946703789999503e-02,8.527942933139999460e-03,0.000000000000000000e+00
8.899424289999999793e-01,2.256252594489999819e+00,2.490996439259999917e+00,-9.170929253469999765e+00,3.427030891179999594e-02,-5.213990807530000104e-02,7.988728582860000343e-03,0.000000000000000000e+00
8.949713689999999611e-01,2.246756305739999959e+00,2.492221889400000112e+00,-9.166201640429999742e+00,1.937415637080000183e-02,-3.319481015209999747e-02,1.291675306860000198e-02,0.000000000000000000e+00
8.999233749999999699e-01,2.222464745049999912e+00,2.504193774490000024e+00,-9.164576669580000612e+00,3.059127554300000024e-02,-5.429721623659999885e-02,2.118564397100000316e-02,0.000000000000000000e+00
9.050170859999999706e-01,2.189178415390000243e+00,2.347764464760000003e+00,-9.256218595960000073e+00,4.430562257770000179e-02,-3.164495527740000119e-02,2.059949003159999847e-02,0.000000000000000000e+00
9.099295299999999864e-01,2.213228130149999640e+00,2.371500437399999939e+00,-9.382842403879999793e+00,5.806263163690000145e-02,-3.275661170480000106e-02,2.850949577990000150e-02,0.000000000000000000e+00
9.149131360000000157e-01,2.448096039690000225e+00,2.244521386299999754e+00,-9.276132087700000639e+00,5.464340373869999018e-02,-4.838356003169999586e-02,6.670057773590000287e-03,0.000000000000000000e+00
9.199374740000000328e-01,2.345750640719999947e+00,2.242321684300000229e+00,-9.265838657219999774e+00,5.914460122589999813e-02,-3.434821218249999725e-02,2.419871091840000363e-02,1.000000000000000000e+00
9.249473689999999637e-01,2.482450729229999986e+00,2.200782490079999931e+00,-9.338550257689998801e+00,5.444219708439999861e-02,-4.245632141830000400e-02,3.869647532699999753e-02,1.000000000000000000e+00
9.299038779999999615e-01,2.593107444950000229e+00,2.267348719659999734e+00,-9.323722690920000389e+00,1.685638353230000178e-02,-6.227390840649999620e-02,2.114531211559999777e-02,0.000000000000000000e+00
9.349118969999999917e-01,2.580175774929999832e+00,2.232585595440000237e+00,-9.219534002170000520e+00,1.429478731009999927e-02,-4.450535029169999657e-02,7.599106058479999058e-03,0.000000000000000000e+00
9.399139579999999938e-01,2.270024368609999676e+00,2.428408611790000116e+00,-9.248545577119999805e+00,-1.475010067220000089e-02,-7.151594012980000414e-02,9.199809283020001296e-03,0.000000000000000000e+00
9.449447349999999801e-01,2.108270941249999808e+00,2.461086161909999959e+00,-9.242254952539999735e+00,-4.375758394600000323e-02,-4.261231794950000318e-02,2.094445005059999976e-02,1.000000000000000000e+00
9.499508890000000205e-01,2.136861660440000144e+00,2.606821205270000164e+00,-9.322215208959999444e+00,-5.502879992130000480e-02,-4.079410806299999664e-02,2.851244062190000502e-04,1.000000000000000000e+00
9.548627579999999782e-01,2.068671629049999794e+00,2.646553496200000133e+00,-9.278702230449999533e+00,-5.071838572620000068e-02,-3.619252517819999959e-02,-4.733940586449999631e-04,1.000000000000000000e+00
9.599213410000000390e-01,2.133565687629999985e+00,2.674526083489999984e+00,-9.316695568760000157e+00,-4.978071153160000539e-02,-2.199463173749999917e-02,6.228159181769999048e-04,0.000000000000000000e+00
9.649182130000000246e-01,2.335266948370000151e+00,2.551306823320000028e+00,-9.326813058149999947e+00,-3.183627128600000078e-02,-3.822278603910000266e-02,-1.307623460890000068e-02,1.000000000000000000e+00
9.699147150000000384e-01,2.226302423519999962e+00,2.458972530749999663e+00,-9.300535292070000182e+00,-4.864339716729999645e-03,-3.479450568560000373e-02,-1.840218319559999791e-03,1.000000000000000000e+00
9.748955969999999471e-01,2.379665915929999986e+00,2.425364567919999992e+00,-9.280330708439999299e+00,1.454222202299999996e-02,-2.909420430660000084e-02,-7.254534866659999607e-04,1.000000000000000000e+00
9.799803969999999476e-01,2.346762448109999788e+00,2.495753570659999809e+00,-9.274737418469999994e+00,5.731309205289999986e-02,-3.241083770989999779e-02,-6.044947542250000277e-03,1.000000000000000000e+00
9.849908080000000510e-01,2.322938651059999859e+00,2.481547350650000094e+00,-9.264101458169999859e+00,2.258498594159999776e-02,-2.055193111300000069e-02,4.344679415229999418e-03,1.000000000000000000e+00
9.899098459999999822e-01,2.273161351459999757e+00,2.415845482820000001e+00,-9.172063810459999189e+00,1.209047436710000006e-02,-2.159771323200000009e-02,2.445671893660000124e-02,1.000000000000000000e+00
9.949178039999999612e-01,2.388396773270000217e+00,2.382789747040000350e+00,-9.263692292849999177e+00,1.207146560769999967e-03,-7.514006458220000295e-03,6.761088967319999442e-03,1.000000000000000000e+00
9.999140210000000417e-01,2.304792169000000168e+00,2.349414862319999742e+00,-9.291862740800000964e+00,1.698408275840000009e-02,-2.462847530840000035e-02,6.976244971160000009e-03,1.000000000000000000e+00
1.004894060000000033e+00,2.252608977289999981e+00,2.390586538400000016e+00,-9.358037632969999464e+00,-9.685388766229999224e-03,-3.916862420739999386e-03,1.757281459870000187e-02,1.000000000000000000e+00
1.009921674000000102e+00,2.388312894379999829e+00,2.361651097420000234e+00,-9.371945162290000297e+00,-1.454741694029999984e-02,-6.769189145420000803e-03,-2.847265684979999670e-03,1.000000000000000000e+00
1.014911541000000028e+00,2.384169218699999870e+00,2.374934941890000317e+00,-9.330395008289999126e+00,-1.932878419760000049e-02,6.930007599290000618e-03,1.584267243740000069e-03,1.000000000000000000e+00
1.019960393999999937e+00,2.367997836100000253e+00,2.458948273090000303e+00,-9.257259629450000915e+00,-2.392161451280000115e-02,-7.418369874359999512e-03,-2.634651958939999896e-03,1.000000000000000000e+00
1.024953066999999995e+00,2.397256079290000397e+00,2.435344694669999921e+00,-9.225603677469999653e+00,-3.705821931359999655e-02,-1.155069563539999969e-02,-9.108169004319998513e-03,1.000000000000000000e+00
1.029965511999999972e+00,2.264485439180000004e+00,2.419890812690000281e+00,-9.258862388469999871e+00,-4.238600656389999999e-02,-2.137762308120000343e-02,9.849812835450002038e-03,1.000000000000000000e+00
1.034910886000000030e+00,2.353680849199999869e+00,2.480756784800000059e+00,-9.220941530880001125e+00,-4.216424748300000303e-02,-1.732769608500000016e-02,9.640241041779999513e-04,1.000000000000000000e+00
1.039952618000000051e+00,2.286658984799999850e+00,2.423869068670000182e+00,-9.231251912490000322e+00,-4.975215345619999480e-02,-1.567310467360000237e-02,-1.571512967350000012e-02,1.000000000000000000e+00
1.044886409000000072e+00,2.200813469739999917e+00,2.438344899400000099e+00,-9.223122966569999193e+00,-7.513902336360001044e-02,2.664299681780000258e-03,-7.412498816849999971e-03,1.000000000000000000e+00
1.049925372999999995e+00,2.199354649229999570e+00,2.337428656450000197e+00,-9.212106482510000305e+00,-7.956504076719998764e-02,1.975944265720000134e-03,-1.138150785120000189e-02,1.000000000000000000e+00
1.054918118000000016e+00,2.217216907530000114e+00,2.427037907959999519e+00,-9.285573869789999435e+00,-6.949502974750000617e-02,1.324875373389999833e-02,-2.761431504040000231e-03,1.000000000000000000e+00
1.059919105000000084e+00,2.236599361130000130e+00,2.382470305830000079e+00,-9.202463040379999626e+00,-5.042182654140000414e-02,1.140863075849999839e-02,8.540326729419999222e-03,1.000000000000000000e+00
1.064925260999999956e+00,2.336406473789999882e+00,2.362963495200000263e+00,-9.233812118370000377e+00,-6.231772527099999764e-02,1.517546642570000159e-02,-1.970075769349999891e-03,0.000000000000000000e+00
1.069921002000000065e+00,2.419893443029999869e+00,2.362392417309999715e+00,-9.258213569169999602e+00,-5.672673881049999922e-02,-4.993758630009999082e-04,-3.839111654090000131e-03,1.000000000000000000e+00
1.074938649999999996e+00,2.262031177899999967e+00,2.383816751999999983e+00,-9.173418732200000036e+00,-5.489013716580000424e-02,2.352429926400000093e-02,7.967879064380000223e-03,1.000000000000000000e+00
1.079886816999999999e+00,2.338265545659999667e+00,2.454318275209999900e+00,-9.259598301529999631e+00,-7.335306704039999681e-02,1.264917384829999936e-02,-2.165465615689999949e-03,1.000000000000000000e+00
1.084955875999999986e+00,2.097966112589999987e+00,2.425151948079999897e+00,-9.144603556610000794e+00,-7.457547634839999107e-02,2.218956500290000453e-02,1.552992500359999745e-03,1.000000000000000000e+00
1.089954949000000006e+00,2.061488439550000162e+00,2.329654953699999975e+00,-9.195590232000000697e+00,-6.006064265970000038e-02,2.510382235049999841e-02,9.593389928340001135e-03,1.000000000000000000e+00
1.094912654999999901e+00,2.040577899590000133e+00,2.242633234459999958e+00,-9.228783476549999421e+00,-6.615348160270000111e-02,5.188801884650000307e-02,1.472334563729999803e-02,1.000000000000000000e+00
1.099910924000000012e+00,2.117758462169999856e+00,2.391839607200000106e+00,-9.269388458659999941e+00,-8.405210822820000094e-02,6.202834099530000339e-02,2.498497813940000339e-02,1.000000000000000000e+00
1.104891829999999908e+00,2.145921457470000071e+00,2.492423841720000421e+00,-9.184725723639999728e+00,-7.601627707480000662e-02,6.755686551330000733e-02,2.977103926240000017e-02,0.000000000000000000e+00
1.109846048000000085e+00,2.068681273659999764e+00,2.534863053520000076e+00,-9.127593385089999956e+00,-8.301389217380000796e-02,7.944127172230000533e-02,2.922675944859999542e-02,1.000000000000000000e+00
1.114945051000000076e+00,2.384449789209999615e+00,2.616280815270000115e+00,-9.212381207800000027e+00,-9.431366622449999237e-02,6.164339929819999397e-02,2.561650052669999997e-02,1.000000000000000000e+00
1.119932911000000031e+00,2.298544652909999986e+00,2.422424861210000113e+00,-9.111579238880000986e+00,-7.259479165080000296e-02,8.206087350849999851e-02,1.739204302429999890e-02,1.000000000000000000e+00
1.124939101999999913e+00,2.274153431240000245e+00,2.472769877700000229e+00,-9.185990629009999964e+00,-8.439335227010000273e-02,1.041091158990000015e-01,4.389028251169999756e-02,1.000000000000000000e+00
1.129922443000000110e+00,2.424809418259999738e+00,2.521973761329999952e+00,-9.104995184319999879e+00,-6.832658499480000203e-02,1.051385849709999959e-01,3.131145238880000264e-02,0.000000000000000000e+00
1.134913112000000002e+00,2.296019226079999864e+00,2.573396490049999930e+00,-9.104348118589999928e+00,-7.003322243689999449e-02,1.040763705969999925e-01,4.578298330310000275e-02,0.000000000000000000e+00
1.139933837999999922e+00,2.422081454600000239e+00,2.590301739880000120e+00,-9.177338535989999713e+00,-6.336952745910000295e-02,9.157545864579999528e-02,3.932174295190000307e-02,0.000000000000000000e+00
1.144925221999999909e+00,2.347418281669999995e+00,2.561077106699999995e+00,-9.147616182430001075e+00,-6.645274907350000315e-02,1.032795384530000027e-01,3.474151343109999762e-02,0.000000000000000000e+00
1.149936091999999910e+00,2.382675765270000134e+00,2.507041565129999761e+00,-9.176769211669999038e+00,-6.609216332440000230e-02,9.687505662440000498e-02,4.891394823789999707e-02,0.000000000000000000e+00
1.154873709000000082e+00,2.348910566059999816e+00,2.522662328110000018e+00,-9.185704213280001085e+00,-6.315480172630000277e-02,1.054188162089999964e-01,4.687197506429999910e-02,0.000000000000000000e+00
1.159935117000000071e+00,2.282532260260000001e+00,2.436482904920000081e+00,-9.119998107660000741e+00,-6.828399747610000570e-02,1.047572419050000064e-01,6.708528846500000364e-02,0.000000000000000000e+00
1.164932719000000061e+00,2.515193891930000092e+00,2.585961080329999717e+00,-9.247820769969999688e+00,-8.773212134839998566e-02,1.012281402950000048e-01,3.618890047069999588e-02,0.000000000000000000e+00
1.169940216999999949e+00,2.328494677750000186e+00,2.492390231709999959e+00,-9.105861445760000450e+00,-7.318620383740000179e-02,1.183476075530000005e-01,4.991636425260000121e-02,1.000000000000000000e+00
1.174933412999999982e+00,2.498587917300000072e+00,2.548048113779999735e+00,-9.212999631960000713e+00,-6.861469894650000512e-02,1.014841422440000002e-01,4.920136928559999678e-02,0.000000000000000000e+00
1.179889493999999983e+00,2.389122311069999949e+00,2.476073010899999982e+00,-9.182461285840000542e+00,-5.463000386950000314e-02,1.103847399350000036e-01,5.923620611430000654e-02,0.000000000000000000e+00
1.184880536999999956e+00,2.544315356999999889e+00,2.552414784559999816e+00,-9.103315852930000673e+00,-5.780093744400000011e-02,1.247392073270000012e-01,5.677914619450000200e-02,0.000000000000000000e+00
1.189968050999999916e+00,2.459375558600000122e+00,2.447230362770000056e+00,-9.199005008880000389e+00,-4.169166460629999960e-02,1.097872480749999963e-01,5.269859731200000202e-02,0.000000000000000000e+00
1.194918780000000069e+00,2.449618280820000216e+00,2.529702309749999767e+00,-9.158625067699999178e+00,-6.002632156010000164e-02,1.143294870850000006e-01,4.638819396499999775e-02,1.000000000000000000e+00
1.199983250000000057e+00,2.490001583010000186e+00,2.444287295059999643e+00,-9.099505939249999287e+00,-6.400514394039999444e-02,9.357649832960000802e-02,6.034188717600000307e-02,1.000000000000000000e+00
1.204951934999999974e+00,2.340224132379999933e+00,2.480585812150000180e+00,-9.090611854180000506e+00,-5.899438634510000001e-02,1.156621947880000084e-01,7.413592189550000100e-02,1.000000000000000000e+00
1.209979447000000041e+00,2.524634504970000304e+00,2.453821139340000013e+00,-9.093859457799998935e+00,-7.893014699219999541e-02,1.274444013830000055e-01,7.481645047660000214e-02,0.000000000000000000e+00
1.214897675000000010e+00,2.477301091390000209e+00,2.553523914849999965e+00,-9.155193924199998889e+00,-1.012368127700000037e-01,1.247548535469999859e-01,5.397014319899999524e-02,0.000000000000000000e+00
1.220007316000000008e+00,2.307112720900000191e+00,2.495367201690000147e+00,-9.045610682930000479e+00,-8.552210032939999707e-02,1.238718554380000003e-01,6.773633509869998737e-02,1.000000000000000000e+00
1.224930539999999901e+00,2.181752649309999903e+00,2.486787881659999755e+00,-9.138857706430000505e+00,-9.063041955230000113e-02,1.195000261070000014e-01,6.651290506120000057e-02,1.000000000000000000e+00
1.230013709000000066e+00,2.274832499540000441e+00,2.419376579550000184e+00,-9.201343096439998703e+00,-1.027034521100000097e-01,1.238766685129999989e-01,5.500015616419999531e-02,0.000000000000000000e+00
1.234937044000000039e+00,2.165987217160000089e+00,2.394244914779999789e+00,-9.111938135319999077e+00,-8.834458887580000364e-02,1.408073455099999871e-01,6.171844899650000271e-02,0.000000000000000000e+00
1.239963370999999981e+00,2.403205635339999979e+00,2.518871703659999906e+00,-9.185140734179999100e+00,-1.109306290750000090e-01,1.410234868530000074e-01,6.430519372219999086e-02,0.000000000000000000e+00
1.245030129999999957e+00,2.369031709190000168e+00,2.417370208169999923e+00,-9.094858405710001037e+00,-8.734638243909999267e-02,1.354361474510000218e-01,8.302377909420000091e-02,0.000000000000000000e+00
1.249941380999999962e+00,2.543172616699999722e+00,2.534742057489999922e+00,-9.231314456330000695e+00,-1.135029569270000066e-01,1.416050046679999952e-01,6.860790401699999597e-02,1.000000000000000000e+00
1.254914260999999920e+00,2.594929984209999763e+00,2.584736214709999924e+00,-9.202394651320000563e+00,-1.211005151270000135e-01,1.230300441379999915e-01,5.812139809130000001e-02,1.000000000000000000e+00
1.259925791999999989e+00,2.444366936159999781e+00,2.465024085880000104e+00,-9.199490746569999544e+00,-1.202166154979999874e-01,1.474430859090000157e-01,6.793154776100000791e-02,0.000000000000000000e+00
1.264878764000000100e+00,2.608809456479999955e+00,2.554955408950000173e+00,-9.195846252589999992e+00,-1.179309710859999943e-01,1.348605155940000022e-01,6.478849798440000640e-02,0.000000000000000000e+00
1.269895087999999950e+00,2.554796126740000339e+00,2.668738147740000066e+00,-9.131575148210000492e+00,-1.297851502900000120e-01,1.156715601679999955e-01,5.663394182919999353e-02,0.000000000000000000e+00
1.274920438999999961e+00,2.425177959310000020e+00,2.670150937149999848e+00,-9.144369747849999897e+00,-1.331888437269999892e-01,1.550663560630000104e-01,6.700931489469999502e-02,0.000000000000000000e+00
1.279923542999999997e+00,2.531899235280000049e+00,2.756440981109999910e+00,-9.159085670950000591e+00,-1.188039407130000030e-01,1.521313637499999982e-01,8.163528144360000793e-02,0.000000000000000000e+00
1.284932184999999949e+00,2.560280695629999936e+00,2.652204946090000348e+00,-9.123872318740000154e+00,-1.087177172299999967e-01,1.416127830739999927e-01,6.327526271340000452e-02,0.000000000000000000e+00
1.289923732000000101e+00,2.594298116040000046e+00,2.614222713700000256e+00,-9.080659784479999885e+00,-9.721275419000000029e-02,1.555513441559999988e-01,6.943948566910000675e-02,0.000000000000000000e+00
1.294904524999999973e+00,2.573812961899999863e+00,2.723599618740000228e+00,-9.232369518340000525e+00,-1.124155372380000045e-01,1.459494680169999836e-01,7.573661953210000797e-02,1.000000000000000000e+00
1.300019583999999950e+00,2.555578509290000078e+00,2.615478558980000034e+00,-9.091306266180000151e+00,-9.994824975730000338e-02,1.494823843239999894e-01,7.906515151260000429e-02,0.000000000000000000e+00
1.304903880999999988e+00,2.653853297820000012e+00,2.641706640690000274e+00,-9.195913472599999139e+00,-9.203773736950000839e-02,1.233095303180000019e-01,6.404828280209999558e-02,0.000000000000000000e+00
1.309974254999999976e+00,2.742224824229999580e+00,2.623309983249999977e+00,-9.206701993119999372e+00,-9.112567454579999227e-02,1.397916674609999965e-01,6.971152126789999237e-02,0.000000000000000000e+00
1.314906716999999947e+00,2.769025445130000040e+00,2.561008425379999842e+00,-9.113736124660000826e+00,-8.606954663990000476e-02,9.926208853720000502e-02,7.106210291389998546e-02,0.000000000000000000e+00
1.319969547999999993e+00,2.689323547390000346e+00,2.511808341140000067e+00,-9.200276343989999717e+00,-7.141945511099999366e-02,8.702182024719999631e-02,6.798699498179999745e-02,0.000000000000000000e+00
1.325019702000000077e+00,2.712937647209999525e+00,2.497028120640000015e+00,-9.103602268650000440e+00,-7.791997492310000217e-02,1.019464582200000080e-01,7.485938072200000459e-02,1.000000000000000000e+00
1.329964554000000021e+00,2.529523738319999993e+00,2.546135558160000034e+00,-9.134771898420000369e+00,-6.832514703269999823e-02,1.034232228989999947e-01,8.838833868499999802e-02,1.000000000000000000e+00
1.334905416000000011e+00,2.603498198330000069e+00,2.601105750229999902e+00,-9.096421417240000196e+00,-9.209825843569999226e-02,7.745094597339999276e-02,7.504198700189999849e-02,1.000000000000000000e+00
1.340012943000000067e+00,2.523857675379999943e+00,2.535563018479999986e+00,-9.131466427139999453e+00,-1.037656813859999944e-01,1.271420419219999876e-01,7.672322541480000591e-02,1.000000000000000000e+00
1.344958032999999942e+00,2.789005864629999998e+00,2.678190158960000122e+00,-9.031829994860000710e+00,-1.207996383310000060e-01,1.108447834850000008e-01,8.116349577900000556e-02,1.000000000000000000e+00
1.349930473999999991e+00,2.577277423139999968e+00,2.526663088189999851e+00,-9.050945029700001143e+00,-1.253429800269999783e-01,1.069208085539999908e-01,6.720699369909999277e-02,1.000000000000000000e+00
1.354884546999999939e+00,2.780044851800000050e+00,2.723561624819999860e+00,-9.031939884979999889e+00,-1.508002430200000021e-01,9.484875947239998495e-02,5.153510719539999840e-02,1.000000000000000000e+00
1.359951463000000027e+00,2.517706167009999607e+00,2.676211844620000058e+00,-9.081140846000000266e+00,-1.355401575569999961e-01,9.976870566610000768e-02,7.645879685880001275e-02,1.000000000000000000e+00
1.364975438000000096e+00,2.514134445999999912e+00,2.464524027399999984e+00,-9.099521136819999967e+00,-1.146782040599999969e-01,1.163227707149999957e-01,7.583276182410000898e-02,1.000000000000000000e+00
1.369940460000000026e+00,2.606991593400000085e+00,2.707539879820000106e+00,-9.148633250510000536e+00,-1.231238991020000006e-01,1.019890829920000047e-01,8.408165723089998378e-02,0.000000000000000000e+00
1.374886100999999972e+00,2.532735686100000105e+00,2.691610489279999907e+00,-8.957902004339999280e+00,-9.633491188289999840e-02,1.147126704450000118e-01,9.314650297160001480e-02,0.000000000000000000e+00
1.379929004999999931e+00,2.492925946020000172e+00,2.636734697500000113e+00,-9.020051294260001740e+00,-1.033755615349999935e-01,1.199380382900000208e-01,6.887435913089999528e-02,0.000000000000000000e+00
1.384944866999999968e+00,2.528615391299999793e+00,2.740063846810000037e+00,-9.127910780480000597e+00,-1.323470622300000066e-01,1.047894954680000101e-01,8.443509787319998516e-02,1.000000000000000000e+00
1.389995407000000016e+00,2.740267844949999976e+00,2.712735110379999703e+00,-9.071792002899998764e+00,-1.107019633049999979e-01,1.100236326459999997e-01,5.720640718940000341e-02,1.000000000000000000e+00
1.395019148999999903e+00,2.766718921759999894e+00,2.595664143700000093e+00,-9.087107645449998827e+00,-1.078127026560000007e-01,1.384918987749999830e-01,6.954965740440000044e-02,1.000000000000000000e+00
1.399980529999999890e+00,2.763055430809999713e+00,2.613589676490000180e+00,-9.087704442299999741e+00,-1.173219531770000046e-01,1.275768578049999991e-01,7.108266651630000543e-02,1.000000000000000000e+00
1.405016158000000015e+00,2.901825311340000102e+00,2.779857512530000019e+00,-9.068476010219999495e+00,-1.206979528070000057e-01,1.231714114550000044e-01,6.181098520759999854e-02,0.000000000000000000e+00
1.410013485999999983e+00,2.677347570649999842e+00,2.610553085270000295e+00,-8.917457181230000529e+00,-9.255267679689999083e-02,1.290893852710000012e-01,7.189412415030001224e-02,1.000000000000000000e+00
1.414908937999999949e+00,2.637453951679999964e+00,2.740455768729999519e+00,-9.049155223670000581e+00,-1.209934949870000026e-01,1.203133463859999974e-01,7.328457385299999571e-02,1.000000000000000000e+00
1.419970072999999999e+00,2.800793625319999869e+00,2.710167013450000439e+00,-9.040899436500000164e+00,-1.129211708900000194e-01,1.158218532799999978e-01,8.023143559689999149e-02,1.000000000000000000e+00
1.425017144999999985e+00,2.672988206399999900e+00,2.714937004329999848e+00,-9.104355717369999823e+00,-1.369464695450000047e-01,1.350038498640000195e-01,7.236584275960000756e-02,1.000000000000000000e+00
1.430029183999999898e+00,2.782219857749999914e+00,2.653691092990000389e+00,-9.112848820429999108e+00,-1.473089754580000077e-01,1.189259365200000113e-01,8.148817718030000601e-02,1.000000000000000000e+00
1.434969327999999988e+00,2.812457467369999797e+00,2.595542563149999982e+00,-9.094718120449998722e+00,-1.499381363389999944e-01,1.065331920979999958e-01,7.839168608189998888e-02,1.000000000000000000e+00
1.440031260000000035e+00,2.865550759649999613e+00,2.534036539570000190e+00,-9.162021139880000220e+00,-1.585433632140000049e-01,1.116731688380000059e-01,8.544956892729999032e-02,1.000000000000000000e+00
1.444950235000000083e+00,3.041808074790000482e+00,2.588522747509999888e+00,-9.138495302860000891e+00,-1.699962466959999974e-01,9.825369715689999395e-02,6.410115957259999997e-02,1.000000000000000000e+00
1.449989033000000038e+00,2.880744529390000253e+00,2.483548753600000047e+00,-9.079777740950000009e+00,-1.578915715220000071e-01,9.749242663380000562e-02,7.102844119069999518e-02,1.000000000000000000e+00
1.454929681999999946e+00,2.785895331389999896e+00,2.523462246319999824e+00,-9.182125185750001251e+00,-1.692499667410000130e-01,1.049223616719999891e-01,7.525444030760000680e-02,0.000000000000000000e+00
1.459976802999999990e+00,2.896447125429999936e+00,2.666792274370000104e+00,-9.203209474830000403e+00,-1.936781257389999789e-01,9.841042757030001031e-02,8.160016685719999330e-02,0.000000000000000000e+00
1.464960779999999962e+00,2.872299064869999974e+00,2.477751173240000160e+00,-9.071911829880001221e+00,-1.984435468910000222e-01,1.033619418739999962e-01,8.119396865370000216e-02,0.000000000000000000e+00
1.469979915999999998e+00,2.637139478900000000e+00,2.550884798509999829e+00,-9.095869044049999630e+00,-1.901907920839999988e-01,1.036126837130000033e-01,8.901727199549999692e-02,0.000000000000000000e+00
1.474993400000000010e+00,2.778367858500000231e+00,2.633208276930000036e+00,-8.864811632709999500e+00,-1.896017342810000228e-01,1.183201223609999936e-01,1.045519709589999846e-01,0.000000000000000000e+00
1.479997476999999950e+00,2.520966630109999773e+00,2.748108037049999730e+00,-8.898045793799999714e+00,-2.047824412579999920e-01,1.596139818429999913e-01,1.088750362400000143e-01,0.000000000000000000e+00
1.484981874000000035e+00,2.365888588859999864e+00,2.654941385319999902e+00,-9.132313399350000083e+00,-2.091930955649999868e-01,1.678920984270000083e-01,1.283589452510000006e-01,0.000000000000000000e+00
1.489990471000000039e+00,2.344661384179999697e+00,2.683256794700000114e+00,-9.330528863799999684e+00,-2.331901192670000067e-01,1.815925240520000206e-01,1.164986416700000138e-01,0.000000000000000000e+00
1.495002055000000052e+00,2.459261869090000108e+00,2.631360018720000138e+00,-9.353722107859999468e+00,-2.415837645529999855e-01,2.157683968540000108e-01,1.244739666579999932e-01,0.000000000000000000e+00
1.499985681000000071e+00,2.788339801939999862e+00,2.724716055550000071e+00,-9.303280206869999347e+00,-2.304309159519999928e-01,1.840869337319999965e-01,1.137175709010000008e-01,0.000000000000000000e+00
1.504973227000000024e+00,2.657399299859999786e+00,2.733329570109999995e+00,-9.459528168680000348e+00,-2.091873288149999899e-01,1.926985681060000011e-01,1.055357381700000041e-01,0.000000000000000000e+00
1.509995213999999919e+00,2.818535033709999915e+00,2.635627028509999636e+00,-9.258308261719999877e+00,-1.847297102210000153e-01,1.825706660750000265e-01,1.178030297159999989e-01,0.000000000000000000e+00
1.514967297000000102e+00,2.956554972649999780e+00,2.558689334779999935e+00,-9.165777862060000558e+00,-2.007506936790000029e-01,1.860637515780000084e-01,1.201930642129999949e-01,0.000000000000000000e+00
1.520057978000000087e+00,2.756150765990000195e+00,2.701092311120000033e+00,-9.151286395369998772e+00,-2.248286753890000045e-01,2.259844541550000141e-01,1.204313561319999976e-01,0.000000000000000000e+00
1.525009029000000016e+00,2.960909660730000059e+00,2.453284255979999884e+00,-9.128169139160000611e+00,-2.974571585660000239e-01,2.053161561490000064e-01,1.019933745269999970e-01,0.000000000000000000e+00
1.529952674000000012e+00,2.936892533069999978e+00,2.666912685879999856e+00,-9.313865313770000043e+00,-3.023199141030000203e-01,2.271759361030000202e-01,1.034076586370000078e-01,0.000000000000000000e+00
1.534980521000000042e+00,2.759210738090000170e+00,2.543188983309999873e+00,-9.366682711719999332e+00,-3.258155584340000077e-01,2.353906184430000215e-01,1.333329677580000205e-01,0.000000000000000000e+00
1.539999176000000025e+00,2.730546661400000019e+00,2.634252233030000223e+00,-9.595411972369999987e+00,-3.773920536039999662e-01,2.116794139150000031e-01,1.398051977160000015e-01,0.000000000000000000e+00
1.545025080000000051e+00,2.595751237460000027e+00,2.844879727539999958e+00,-9.625074704710000262e+00,-4.054604172710000176e-01,2.363649457690000233e-01,1.648565381769999949e-01,0.000000000000000000e+00
1.549982682000000000e+00,2.151187122909999694e+00,2.809318877079999943e+00,-9.943860668390000157e+00,-4.424339234830000356e-01,2.486856132749999948e-01,1.754496991629999891e-01,0.000000000000000000e+00
1.554985260000000036e+00,2.082098389120000004e+00,2.685487622490000170e+00,-9.999726932510000665e+00,-4.985612630839999504e-01,2.691631019119999912e-01,1.706805825230000295e-01,0.000000000000000000e+00
1.559999455000000035e+00,2.154897229469999953e+00,2.862833317379999798e+00,-9.939850848220000756e+00,-5.152482390399999446e-01,3.053183257579999976e-01,1.858688890930000059e-01,0.000000000000000000e+00
1.565008960999999976e+00,2.325806461580000040e+00,2.661503228049999947e+00,-1.032352049520000037e+01,-5.783556699749999863e-01,3.438168764109999498e-01,1.933968216180000088e-01,0.000000000000000000e+00
1.569926106999999904e+00,2.057510914220000320e+00,2.144084597430000017e+00,-1.055426284929999881e+01,-6.471750736240000634e-01,3.290542960169999809e-01,2.238792032000000154e-01,0.000000000000000000e+00
1.574980032000000030e+00,2.805437943989999905e+00,1.873783409330000094e+00,-1.058841295610000088e+01,-7.318444252010000151e-01,3.263674080369999841e-01,2.116003036499999879e-01,0.000000000000000000e+00
1.579957918000000072e+00,2.692728679659999624e+00,1.515723273749999933e+00,-1.105807161829999963e+01,-8.090940117839999779e-01,3.770655393599999794e-01,1.907574981450000096e-01,0.000000000000000000e+00
1.584935632999999955e+00,2.826108099319999845e+00,1.303131201170000031e+00,-1.130856613609999961e+01,-8.469371199609999623e-01,4.420343339439999908e-01,8.615858107809999666e-02,0.000000000000000000e+00
1.589901994000000096e+00,2.099100961840000057e+00,2.212852136450000007e+00,-1.098584926270000039e+01,-9.345952272419999485e-01,5.218158364299999574e-01,1.019580662250000047e-01,0.000000000000000000e+00
1.594915673999999894e+00,4.006947822679999938e+00,1.712322096780000136e+00,-1.035573934179999966e+01,-1.052532792089999836e+00,5.212991237640000053e-01,5.834764242169999254e-02,0.000000000000000000e+00
1.599990813000000012e+00,3.706375853349999971e+00,1.277338003739999950e+00,-1.092680203039999931e+01,-1.231627702709999994e+00,4.694800972940000316e-01,9.062254428860001820e-02,0.000000000000000000e+00
1.604923523000000074e+00,3.581946925130000015e+00,7.636699578300000235e-01,-1.107148756469999995e+01,-1.416595220570000091e+00,4.436032772060000129e-01,1.523305326700000184e-01,0.000000000000000000e+00
1.609905276000000107e+00,3.398448552820000135e+00,1.136979246589999937e+00,-1.075176811960000123e+01,-1.543649554250000167e+00,4.896695017809999939e-01,2.187065780160000195e-01,0.000000000000000000e+00
1.614913609000000028e+00,3.176374950670000530e+00,1.979906573270000303e+00,-1.097214105529999983e+01,-1.611032009120000108e+00,6.420674324039999936e-01,1.816653460260000130e-01,0.000000000000000000e+00
1.619892273999999910e+00,2.463609542900000005e+00,1.551927390559999953e+00,-1.160637419359999889e+01,-1.686967134479999908e+00,7.371398806569999795e-01,3.271857649090000042e-02,0.000000000000000000e+00
1.624953791000000036e+00,2.588613348410000015e+00,2.011461549099999857e+00,-1.129532320809999923e+01,-1.785886526109999650e+00,7.301169633869999398e-01,-2.419951744380000047e-02,0.000000000000000000e+00
1.629929552999999975e+00,3.565227845519999939e+00,1.694401824689999891e+00,-1.142363160809999911e+01,-1.949659705159999756e+00,6.823659539219999459e-01,3.444393724199999729e-02,0.000000000000000000e+00
1.634877236999999983e+00,3.826643277980000590e+00,1.299955786010000169e+00,-1.111876135710000035e+01,-2.062960624690000078e+00,7.560404539110000544e-01,1.016094237570000086e-01,0.000000000000000000e+00
1.639900490000000044e+00,2.649109025900000081e+00,1.465064807400000113e+00,-1.179144668339999846e+01,-2.154531955720000003e+00,8.392249345779999592e-01,1.406849473709999854e-01,0.000000000000000000e+00
1.644952490000000100e+00,1.910638099000000034e+00,2.220608303529999716e+00,-1.189133562910000030e+01,-2.193645477290000034e+00,1.049410462379999798e+00,5.911207944150000115e-02,0.000000000000000000e+00
1.649898636999999946e+00,1.485204362979999804e+00,1.594031525189999909e+00,-1.198193652199999981e+01,-2.205239295959999790e+00,1.216971874239999973e+00,-1.237391754979999953e-01,0.000000000000000000e+00
1.654849151999999934e+00,-4.160649314880000560e+00,4.127426551980000191e+00,-6.927806628060000804e+00,-2.185724973680000183e+00,1.707210540770000229e+00,-1.511674821379999922e-01,0.000000000000000000e+00
1.659987292000000059e+00,2.856149894100000086e+00,4.087051579230000620e+00,-9.785369311560000227e+00,-2.313412427899999901e+00,1.231867909429999797e+00,-5.170947313310000348e-01,0.000000000000000000e+00
1.664950710000000056e+00,2.957667025550000162e+00,1.369497085870000186e+00,-1.046562478090000070e+01,-2.659235239030000031e+00,1.243464112279999867e+00,-2.998422086240000173e-01,0.000000000000000000e+00
1.669970055999999925e+00,5.082988324190000462e+00,6.202226600779999766e-01,-1.115577328310000027e+01,-3.030004978180000030e+00,1.061006784439999961e+00,-1.675071418290000058e-01,0.000000000000000000e+00
1.674985908000000023e+00,5.581304925580000464e+00,1.419129862439999945e+00,-1.167973402890000045e+01,-3.207643985749999871e+00,1.070180892940000072e+00,-3.258443623780000326e-02,0.000000000000000000e+00
1.679982928000000042e+00,4.484034589049999298e+00,1.953008483340000323e+00,-1.261228375880000030e+01,-3.338216066359999790e+00,1.214647054670000115e+00,4.483203589919999149e-02,0.000000000000000000e+00
1.684968475000000021e+00,3.291066328729999491e+00,4.359841515410000312e+00,-1.347806706039999902e+01,-3.441354513169999851e+00,1.506662964819999839e+00,8.675626665349998878e-02,0.000000000000000000e+00
1.689884366000000027e+00,1.695784511220000068e+00,4.328828537499999740e+00,-1.305492231210000043e+01,-3.585643529890000014e+00,1.633440852170000124e+00,-4.910821467640000271e-02,0.000000000000000000e+00
1.694925352000000052e+00,1.641957607429999910e-01,2.316721530109999705e+00,-1.310101186310000010e+01,-3.662464141850000132e+00,1.643753051760000083e+00,-2.008015811439999854e-01,0.000000000000000000e+00
1.699926349999999919e+00,2.526382152350000188e-01,2.768658365390000320e+00,-1.216756080049999866e+01,-3.792525768279999987e+00,1.679696679120000091e+00,-2.563192546370000047e-01,0.000000000000000000e+00
1.705014306000000035e+00,2.209094975870000255e+00,3.847640181040000495e+00,-1.201165946010000063e+01,-3.981447935099999835e+00,1.734640121460000017e+00,-2.941014766689999949e-01,0.000000000000000000e+00
1.709963598999999945e+00,3.313033538129999567e+00,4.699276883880000533e+00,-1.216524492469999963e+01,-4.282936096190000264e+00,1.811175227170000124e+00,-2.394600212569999997e-01,0.000000000000000000e+00
1.714971601000000012e+00,3.185505474840000240e+00,6.153415661990000451e+00,-1.201851005670000028e+01,-4.689768791199999676e+00,1.974057078359999995e+00,-2.030208855869999884e-01,0.000000000000000000e+00
1.719975354000000012e+00,4.608528106939999702e+00,8.935065318639999532e+00,-1.328831021230000076e+01,-5.147027015689999985e+00,1.976127743719999996e+00,-3.632800579070000202e-01,0.000000000000000000e+00
1.724980820999999942e+00,2.665899124920000141e+00,8.268426871280000867e+00,-1.157926056130000170e+01,-5.499810218810000428e+00,2.227808952329999759e+00,-5.694484114650000262e-01,0.000000000000000000e+00
1.729927006000000045e+00,2.103150675620000243e+00,8.102370632160001307e+00,-1.223582711190000083e+01,-5.713080406189999572e+00,2.234515905379999889e+00,-8.567850589749999024e-01,0.000000000000000000e+00
1.734837694000000097e+00,9.338733066909999936e-01,7.617945777989999279e+00,-1.249004620319999859e+01,-5.807498931880000548e+00,2.204950094219999990e+00,-9.848308563230000479e-01,0.000000000000000000e+00
1.739953904999999912e+00,3.298897753009999878e+00,9.263222337250001104e+00,-1.197935410430000047e+01,-5.966774463650000193e+00,2.026751041409999843e+00,-8.823803067209998741e-01,0.000000000000000000e+00
1.744908488999999951e+00,4.003780298559999729e+00,7.696426609510001349e+00,-1.310350894069999939e+01,-5.983345031739999875e+00,1.767183899880000020e+00,-7.883310914040000394e-01,0.000000000000000000e+00
1.749932239999999917e+00,3.058240738669999903e+00,8.572333830249998954e+00,-1.219076748849999881e+01,-6.034882545469999471e+00,1.658775687220000128e+00,-6.781557202339999479e-01,0.000000000000000000e+00
1.754839293000000078e+00,1.462600755379999784e+00,8.229028342350000358e+00,-1.232937867130000065e+01,-5.944275379179999597e+00,1.655724167820000092e+00,-6.651005744929999741e-01,0.000000000000000000e+00
1.759964021000000045e+00,7.346823482770000746e-01,5.420759558840000381e+00,-1.348224054669999994e+01,-5.760673046109999085e+00,1.430239319799999853e+00,-8.517959713940000954e-01,0.000000000000000000e+00
1.764963534999999917e+00,-9.715577982459999706e-01,2.512396662430000038e+00,-1.348328333380000110e+01,-5.438299655909999863e+00,1.181605100629999905e+00,-9.858191013339999698e-01,0.000000000000000000e+00
1.769932257000000009e+00,-1.400327546810000046e+00,2.565698629019999899e+00,-1.292077921459999956e+01,-5.084613800049999632e+00,8.653857707979999425e-01,-1.015432238579999868e+00,0.000000000000000000e+00
1.774900541000000054e+00,1.762886016720000226e+00,7.228117023839999433e+00,-1.313598848400000030e+01,-4.658717632290000132e+00,4.770599305630000009e-01,-8.542416095730001047e-01,0.000000000000000000e+00
1.779959518999999935e+00,4.236265404619999231e+00,1.166001109130000124e+01,-1.487472483270000012e+01,-4.199993133540000478e+00,4.007610380650000192e-01,-5.436475276950000213e-01,0.000000000000000000e+00
1.784969736999999945e+00,4.683317974980000464e+00,1.079820955279999950e+01,-1.808218231940000109e+01,-3.680663585659999626e+00,2.156457304949999931e-01,-8.826845139269999529e-02,0.000000000000000000e+00
1.789996947999999977e+00,2.911054619720000236e+00,6.401819344930000710e+00,-1.702816426460000088e+01,-2.722014188770000231e+00,3.853976354000000076e-02,4.006086289879999818e-01,0.000000000000000000e+00
1.794948162000000069e+00,-9.764707047280000163e-01,3.166839060560000085e+00,-1.582331851950000079e+01,-1.459188342089999813e+00,-4.034627974030000064e-02,9.299966096879999089e-01,0.000000000000000000e+00
1.799929260999999947e+00,-3.056966188690000141e+00,1.673300292210000206e+00,-1.369776078170000133e+01,-1.806022822860000043e-01,-1.635057181120000147e-01,1.534309268000000115e+00,0.000000000000000000e+00
1.804950834000000004e+00,-3.541415592780000399e+00,1.471474966709999999e+00,-1.219274083440000034e+01,7.426505088810000377e-01,-2.722250521180000216e-01,1.820196866989999940e+00,0.000000000000000000e+00
1.809939291000000061e+00,-3.558143732480000043e+00,-2.873767621310000138e-03,-9.886001184610000436e+00,1.049956679339999921e+00,-3.064064681529999890e-01,1.829676628109999870e+00,0.000000000000000000e+00
1.814924009000000060e+00,-4.038947765799999701e+00,-1.264218117670000030e+00,-8.042719588789999818e+00,7.615220546719999595e-01,-2.072834670540000257e-01,1.549536824229999832e+00,0.000000000000000000e+00
1.819993954000000080e+00,-2.841518434420000183e+00,-1.807887187959999808e+00,-6.913562998649999791e+00,1.890713423490000267e-01,-8.366318047050000373e-02,1.213108062739999937e+00,0.000000000000000000e+00
1.824954355000000028e+00,-1.819839345429999922e+00,-2.253918890850000079e+00,-6.656686086399999702e+00,-3.682098388669999833e-01,5.567989870909999944e-02,1.007138609889999925e+00,0.000000000000000000e+00
1.829949336000000093e+00,-1.221307635100000066e+00,-2.275355354370000249e+00,-7.437910113360000963e+00,-6.131507158279999592e-01,6.739115715030000175e-02,8.900372982029999269e-01,0.000000000000000000e+00
1.834988408000000071e+00,-1.412112823289999985e+00,-1.889336075509999935e+00,-8.187560021399999499e+00,-4.810268282890000080e-01,-1.355433762069999937e-01,8.715518713000000028e-01,0.000000000000000000e+00
1.839965174999999897e+00,-1.244226153870000129e+00,-1.233010493979999955e+00,-8.715950858550000291e+00,-1.237383857369999951e-01,-4.299634099009999599e-01,8.292647004129999333e-01,0.000000000000000000e+00
1.844968273000000103e+00,-1.053935710269999992e+00,-5.124377004019999848e-01,-8.620046598540000105e+00,2.437469214199999845e-01,-6.611574888229999614e-01,8.415022492409999222e-01,0.000000000000000000e+00
1.849913343000000099e+00,-1.140070271409999947e+00,-5.205565633200000264e-02,-8.139569020689998879e+00,4.189003407959999703e-01,-7.794821858409999304e-01,8.030030727390000678e-01,0.000000000000000000e+00
1.854932763000000095e+00,-1.760761133519999966e+00,3.392492347829999533e-01,-7.871032065789999699e+00,4.519291520120000127e-01,-7.771130800250000137e-01,7.374142408370000235e-01,0.000000000000000000e+00
1.859969680000000070e+00,-2.282438152240000129e+00,7.258163202540000025e-01,-7.894551473060000824e+00,4.134911596779999865e-01,-7.107325196269999035e-01,5.693485140799999789e-01,0.000000000000000000e+00
1.865030544999999984e+00,-2.574163675029999876e+00,9.226482944519999174e-01,-8.228325162510000013e+00,4.649094343190000034e-01,-7.178416252140000786e-01,3.946124315259999515e-01,0.000000000000000000e+00
1.869992381000000092e+00,-2.605852652499999866e+00,1.051160254210000033e+00,-8.492064946270000192e+00,6.765028238300000440e-01,-6.960278153419999780e-01,2.408776879310000063e-01,0.000000000000000000e+00
1.874979501999999965e+00,-2.561238142480000146e+00,1.136232812140000048e+00,-8.611876151560000636e+00,9.789626002310000130e-01,-6.818535923960000744e-01,1.655709147449999918e-01,0.000000000000000000e+00
1.879972438000000023e+00,-2.450119654469999908e+00,1.116006528130000008e+00,-8.570552207529999578e+00,1.287395358089999942e+00,-6.611708998680000393e-01,8.419698476789999608e-02,0.000000000000000000e+00
1.884961561999999979e+00,-2.149882177790000348e+00,1.110110017429999818e+00,-8.449776541120000317e+00,1.519183993339999983e+00,-6.692548394199999695e-01,-9.413288906219998906e-03,0.000000000000000000e+00
1.890001727000000020e+00,-1.619452966689999940e+00,1.166223461259999983e+00,-8.359550911270000384e+00,1.654761791229999890e+00,-6.884087920190000709e-01,-1.231698170300000034e-01,0.000000000000000000e+00
1.895001230999999953e+00,-1.244106034620000134e+00,1.162994270079999781e+00,-8.427432607360000105e+00,1.764694690699999846e+00,-6.714736223219999189e-01,-2.217935025690000173e-01,0.000000000000000000e+00
1.899880164000000038e+00,-9.209023275679999454e-01,1.157614915129999922e+00,-8.625189806649999014e+00,1.873221397400000043e+00,-7.252584099770000847e-01,-3.021906614300000071e-01,0.000000000000000000e+00
1.904919553999999904e+00,-6.544688477460000042e-01,1.295779523230000008e+00,-8.757571155180000844e+00,2.029567241670000133e+00,-8.140951991079999894e-01,-3.704087138180000571e-01,0.000000000000000000e+00
1.909931153000000048e+00,-3.862751533199999532e-01,1.384525874309999960e+00,-8.975922229680000086e+00,2.160032510759999802e+00,-9.370571970939999273e-01,-4.406276941300000249e-01,0.000000000000000000e+00
1.914909715999999928e+00,4.155363373840000041e-02,1.493323225899999995e+00,-8.999432869130000512e+00,2.291253328320000282e+00,-1.065472006800000093e+00,-4.992685616020000050e-01,0.000000000000000000e+00
1.919955512000000031e+00,3.079249624429999943e-01,1.686629144859999929e+00,-9.082135117729999152e+00,2.399293184279999824e+00,-1.172266125679999993e+00,-5.450424551959999198e-01,0.000000000000000000e+00
1.924897733000000111e+00,4.077834765009999973e-01,2.050510241670000067e+00,-9.165639914889998963e+00,2.472607851029999804e+00,-1.273127555849999926e+00,-5.629446506499999892e-01,0.000000000000000000e+00
1.929913677000000050e+00,6.011573461339999591e-01,2.417119009890000392e+00,-9.350282196539998480e+00,2.556905031199999900e+00,-1.363140821460000041e+00,-6.055635809899999611e-01,0.000000000000000000e+00
1.934839270000000111e+00,8.046626971490000724e-01,2.782131302679999862e+00,-9.428668920030000677e+00,2.642700910569999895e+00,-1.477999210360000149e+00,-6.582931280139999730e-01,0.000000000000000000e+00
1.939969030000000094e+00,1.168334023670000166e+00,3.243556097269999938e+00,-9.420268171440000060e+00,2.734190464020000100e+00,-1.567482829090000029e+00,-7.055683732030000321e-01,0.000000000000000000e+00
1.944987237999999952e+00,1.537685953110000003e+00,3.625416356760000181e+00,-9.375813528160001908e+00,2.820471525189999884e+00,-1.657783627510000191e+00,-7.241925597189999841e-01,0.000000000000000000e+00
1.949950550999999921e+00,1.826706308590000383e+00,4.029118153440000683e+00,-9.315959071179999995e+00,2.920180320740000113e+00,-1.700612664220000125e+00,-7.161376476289998960e-01,0.000000000000000000e+00
1.954841414999999971e+00,2.069038270400000101e+00,4.355287797619999957e+00,-9.287333865199999039e+00,3.012030601499999793e+00,-1.775390386579999813e+00,-6.651601791379999629e-01,0.000000000000000000e+00
1.959880421000000039e+00,2.403335983729999903e+00,4.728564937679999858e+00,-9.330579717200000900e+00,3.096073627469999590e+00,-1.837559938429999873e+00,-6.396180987359999515e-01,0.000000000000000000e+00
1.964908392999999975e+00,2.839799355540000292e+00,5.060477217169999875e+00,-9.440754494630001048e+00,3.161771535870000260e+00,-1.913001775739999966e+00,-6.422370076179999554e-01,0.000000000000000000e+00
1.969903138000000054e+00,3.239322697490000014e+00,5.426047728380000379e+00,-9.472688679019999114e+00,3.216217517850000096e+00,-1.987479805950000067e+00,-6.081552505489999927e-01,0.000000000000000000e+00
1.974888243000000099e+00,3.595354688230000040e+00,5.804132853239999612e+00,-9.629396659560001126e+00,3.237508535390000386e+00,-2.073459148410000008e+00,-5.873705148699999157e-01,0.000000000000000000e+00
1.979920737999999902e+00,4.046443966770000067e+00,6.382766853929999762e+00,-9.801035082729999459e+00,3.245037555690000186e+00,-2.156128644940000338e+00,-5.800883173940000193e-01,0.000000000000000000e+00
1.984916204999999989e+00,4.421024006119999683e+00,6.974664240820000138e+00,-9.969166959080000723e+00,3.261464357379999957e+00,-2.244483232499999925e+00,-5.685635805129999332e-01,0.000000000000000000e+00
1.989941632999999932e+00,4.876472941169999409e+00,7.385166949689999427e+00,-1.007921021910000015e+01,3.253365993500000108e+00,-2.333673477170000066e+00,-6.057808995250000272e-01,0.000000000000000000e+00
1.994934970000000085e+00,5.072985985609999915e+00,7.813766456260000659e+00,-1.007650738989999972e+01,3.295371294020000175e+00,-2.443948268890000275e+00,-6.354454755780000186e-01,0.000000000000000000e+00
1.999925248000000044e+00,4.969896782540000224e+00,8.170487890569999578e+00,-9.983790527710000973e+00,3.330209016800000033e+00,-2.501226425170000045e+00,-6.514377593990000603e-01,0.000000000000000000e+00
2.004868426999999897e+00,4.717717088189999686e+00,8.475591365850000614e+00,-9.878927300700000913e+00,3.385545730590000080e+00,-2.541319608690000287e+00,-6.651846170430000260e-01,0.000000000000000000e+00
2.010002408000000074e+00,4.566863386640000577e+00,8.603916132469999312e+00,-9.852822553110000214e+00,3.405740499499999796e+00,-2.529480218890000298e+00,-7.198610305789999719e-01,0.000000000000000000e+00
2.014907589999999971e+00,4.481354556180000337e+00,8.663071501270000141e+00,-9.803120656830000001e+00,3.417987585070000112e+00,-2.519225120540000251e+00,-7.935110926629999062e-01,0.000000000000000000e+00
2.019880373999999978e+00,4.580885189990000050e+00,8.625529998390000230e+00,-9.833587106760001362e+00,3.413033246989999991e+00,-2.458434581760000182e+00,-8.601681590080000328e-01,0.000000000000000000e+00
2.024913828999999943e+00,4.794328910969999136e+00,8.676481602469999999e+00,-1.002056279980000042e+01,3.394109487530000191e+00,-2.409651994709999911e+00,-9.016584753990000145e-01,0.000000000000000000e+00
2.029963747000000041e+00,4.928204005189999570e+00,8.778127036469999922e+00,-1.016783893510000070e+01,3.405734300609999821e+00,-2.368126153950000035e+00,-9.316222667689999515e-01,0.000000000000000000e+00
2.034946306000000149e+00,5.233325016130000229e+00,8.762212843500000403e+00,-1.036982515030000052e+01,3.390623807909999954e+00,-2.341897010800000345e+00,-9.629280567169999916e-01,0.000000000000000000e+00
2.039952246999999996e+00,5.463915394480000742e+00,8.757414503310000597e+00,-1.053752915659999978e+01,3.396271467209999617e+00,-2.346754550930000072e+00,-9.741354584689999596e-01,0.000000000000000000e+00
2.044982489000000125e+00,5.630040607180000656e+00,8.822425027879999604e+00,-1.063371457160000055e+01,3.383490324020000273e+00,-2.346551895140000177e+00,-9.610338807109999326e-01,0.000000000000000000e+00
2.049954367999999860e+00,5.826458666819998911e+00,8.728314665560001018e+00,-1.068446393109999981e+01,3.377964258190000013e+00,-2.354397296909999771e+00,-9.210728406910000388e-01,0.000000000000000000e+00
2.054848994999999956e+00,6.038038055230000367e+00,8.754728040710000769e+00,-1.071856961439999978e+01,3.349681615830000236e+00,-2.364397764209999586e+00,-8.965232372279999806e-01,0.000000000000000000e+00
2.059937757000000147e+00,5.968093581379999790e+00,8.773929584780001179e+00,-1.070068324450000041e+01,3.313038825990000547e+00,-2.375484704970000305e+00,-8.385582566259999204e-01,0.000000000000000000e+00
2.065027886000000201e+00,6.069171444640000246e+00,8.833272585110000463e+00,-1.068758878519999911e+01,3.292641639709999346e+00,-2.388562917709999844e+00,-7.974562644959999336e-01,0.000000000000000000e+00
2.069970976000000018e+00,6.079726740919999983e+00,8.989485475610001330e+00,-1.061207907840000075e+01,3.254609823230000032e+00,-2.386471509929999790e+00,-7.250717878339999478e-01,0.000000000000000000e+00
2.074986600999999986e+00,6.096155313150000588e+00,8.967745937489999264e+00,-1.050509169889999939e+01,3.219603538509999918e+00,-2.365718126300000002e+00,-6.518970727920000430e-01,0.000000000000000000e+00
2.079997552000000027e+00,6.172935770490000529e+00,9.073079704619999575e+00,-1.053655534309999986e+01,3.180018186569999905e+00,-2.363399744030000083e+00,-5.816456079480000207e-01,0.000000000000000000e+00
2.084981014999999882e+00,5.933893205619999556e+00,9.224932646339999209e+00,-1.054491166809999925e+01,3.143709897990000446e+00,-2.334984064099999923e+00,-5.128932595249999782e-01,0.000000000000000000e+00
2.089988635000000095e+00,5.968566459589999873e+00,9.518962938939999674e+00,-1.049716441300000014e+01,3.104458093640000360e+00,-2.313292503360000030e+00,-4.368285238740000076e-01,0.000000000000000000e+00
2.094983711999999887e+00,5.815864207569999778e+00,9.868969385790000715e+00,-1.040342931370000024e+01,3.063088417049999901e+00,-2.260761737820000228e+00,-3.806966245170000374e-01,0.000000000000000000e+00
2.099976054999999953e+00,5.742931657819999813e+00,1.027871572330000127e+01,-1.023782607909999953e+01,3.022804737089999971e+00,-2.192645072940000439e+00,-3.352097868919999835e-01,0.000000000000000000e+00
2.104992589000000081e+00,7.526429523810000077e+00,1.018827615850000079e+01,-9.633701663280000105e+00,2.973490953450000251e+00,-2.194785594940000362e+00,-2.786155045029999888e-01,0.000000000000000000e+00
2.110003067000000065e+00,7.135096794839999923e+00,1.091266127689999976e+01,-9.728595869460001211e+00,2.981309890749999969e+00,-2.046709537509999954e+00,-3.116301000120000331e-01,0.000000000000000000e+00
2.114994300000000216e+00,5.161271002790000395e+00,1.157764026660000134e+01,-9.299957199930000584e+00,2.848948001859999746e+00,-1.907216310500000178e+00,-3.441763818259999663e-01,0.000000000000000000e+00
2.120012154999999954e+00,6.056383859260000335e+00,1.184691196550000036e+01,-8.684138839219999184e+00,2.815510034559999486e+00,-1.898173570630000029e+00,-3.082722723479999760e-01,0.000000000000000000e+00
2.125033161000000170e+00,6.192969673740000403e+00,1.209562135339999855e+01,-9.069808720119999279e+00,2.737954139709999346e+00,-1.808598995209999893e+00,-3.255072236059999846e-01,0.000000000000000000e+00
2.129996697999999800e+00,6.383774569669999899e+00,1.237691900569999959e+01,-8.504048229530001279e+00,2.658425569529999866e+00,-1.741314649580000040e+00,-3.339767158029999794e-01,0.000000000000000000e+00
2.134975611999999856e+00,6.649265581009999870e+00,1.268073711729999964e+01,-8.178921372399999612e+00,2.561608314509999929e+00,-1.697499036789999804e+00,-3.180785179139999919e-01,0.000000000000000000e+00
2.139996383999999807e+00,6.898305223760000437e+00,1.282808105720000036e+01,-7.815235359760000833e+00,2.511976480479999996e+00,-1.655620336529999959e+00,-2.985238432880000237e-01,0.000000000000000000e+00
2.144951579000000219e+00,6.707613140560000353e+00,1.291154143069999982e+01,-7.047881452719999551e+00,2.436711072920000110e+00,-1.626572608950000109e+00,-2.795738875869999696e-01,0.000000000000000000e+00
2.149930941000000040e+00,6.574019493630000710e+00,1.262755497769999913e+01,-6.647741732439999218e+00,2.370983839039999985e+00,-1.596036434169999962e+00,-2.482522577050000068e-01,0.000000000000000000e+00
2.154882215999999850e+00,6.625381432070000187e+00,1.222046938380000114e+01,-6.092849841869998784e+00,2.300826311109999800e+00,-1.537479996679999905e+00,-1.942413151260000137e-01,0.000000000000000000e+00
2.159916835000000201e+00,6.674720924780000786e+00,1.203472118680000058e+01,-5.256484357919999795e+00,2.249327421190000287e+00,-1.488896846770000115e+00,-1.223243102430000007e-01,0.000000000000000000e+00
2.164856152000000034e+00,6.518346706240000898e+00,1.177366202039999976e+01,-4.726824231490000194e+00,2.135614633559999920e+00,-1.405439376829999976e+00,-8.261526376010000505e-02,0.000000000000000000e+00
2.169877641999999884e+00,6.505427603440000262e+00,1.141883151440000077e+01,-4.268741440809999510e+00,1.993436217309999758e+00,-1.306573033329999856e+00,-9.467098116869998581e-02,0.000000000000000000e+00
2.174982684000000166e+00,6.324594066430000439e+00,1.137407701140000071e+01,-3.724029875730000327e+00,1.827475190159999707e+00,-1.188766598700000010e+00,-8.298881351950000707e-02,0.000000000000000000e+00
2.179933431999999893e+00,6.262230841490000088e+00,1.138434355380000085e+01,-3.394947851219999979e+00,1.654625654220000186e+00,-1.053821802140000097e+00,-7.859497517350000351e-02,0.000000000000000000e+00
2.184976580999999918e+00,6.171643977120000457e+00,1.133009758440000070e+01,-3.112143593770000383e+00,1.474387407299999841e+00,-8.964471220970000598e-01,-8.421444892880000643e-02,0.000000000000000000e+00
2.189987313000000047e+00,6.121093939580000587e+00,1.102902321849999900e+01,-2.869115466389999813e+00,1.332791209220000050e+00,-7.364833951000000489e-01,-8.227031677960000566e-02,0.000000000000000000e+00
2.194868726999999797e+00,6.090206049359999874e+00,1.073526005239999925e+01,-2.594738553290000471e+00,1.228457212449999947e+00,-5.760686993600000472e-01,-6.873803585769999724e-02,0.000000000000000000e+00
2.199944095999999849e+00,6.097890758639999298e+00,1.044201827980000097e+01,-2.397869681140000431e+00,1.168893098829999921e+00,-4.131141006949999861e-01,-6.399098783730000628e-02,0.000000000000000000e+00
2.204867769999999894e+00,5.942510227319999672e+00,1.020850763009999973e+01,-2.222842930709999720e+00,1.080970406529999872e+00,-2.775097787379999792e-01,-4.836075007919999474e-02,0.000000000000000000e+00
2.209887141999999915e+00,5.869666524900000404e+00,9.935299760790000434e+00,-2.092173062279999662e+00,1.024666905400000161e+00,-1.246840283269999988e-01,-5.504777282480000783e-02,0.000000000000000000e+00
2.214877298999999855e+00,5.633092395970000332e+00,9.644525255110000472e+00,-1.973767339859999748e+00,9.850392341609999214e-01,-4.026389215139999575e-03,-5.504518002270000071e-02,0.000000000000000000e+00
2.219864520999999868e+00,5.506816378569999948e+00,9.192408094830000209e+00,-1.899123456159999890e+00,8.830076456069999580e-01,1.395052522419999996e-01,-4.905684292319999890e-02,0.000000000000000000e+00
2.224868945999999958e+00,5.438246700219999674e+00,8.858104244030000629e+00,-1.960920571639999999e+00,7.435259222979999638e-01,2.933188974859999854e-01,-7.356656342739999188e-02,0.000000000000000000e+00
2.229875410000000002e+00,5.422200989820000316e+00,8.727774567330000011e+00,-2.032088303670000151e+00,5.739038586619999993e-01,3.980926871300000114e-01,-8.027750253679999393e-02,0.000000000000000000e+00
2.234863013000000009e+00,5.330320578500000295e+00,8.615601309569999700e+00,-2.266036760280000006e+00,4.023137688639999987e-01,5.391234755520000199e-01,-1.066524311899999938e-01,0.000000000000000000e+00
2.239963597000000028e+00,5.359318709450000107e+00,8.596347158520000420e+00,-2.705966054630000173e+00,2.212484627959999950e-01,6.238199472429999393e-01,-1.502693742510000097e-01,0.000000000000000000e+00
2.244985208000000121e+00,5.379051583919999935e+00,8.743458458670000155e+00,-3.147097125990000244e+00,8.031725883480000938e-02,6.927930116650000691e-01,-1.855687201020000121e-01,0.000000000000000000e+00
2.249996031999999868e+00,3.876850493440000545e+00,6.895384367880000198e+00,-6.880757292110001089e+00,-4.496337845919999576e-02,7.040874958040000964e-01,-2.096346467729999774e-01,0.000000000000000000e+00
2.254908599999999819e+00,5.633516174340000404e+00,5.152722954669999744e+00,-1.819565496929999915e+00,-2.115366458890000079e-01,9.207048416140000135e-01,-4.582339823250000110e-01,0.000000000000000000e+00
2.259915771000000184e+00,3.538694058859999991e+00,1.300141517839999850e+01,1.051846044509999967e+00,-2.604907751080000056e-01,1.298833489419999987e+00,-4.330133795739999902e-01,0.000000000000000000e+00
2.264963421000000032e+00,1.630206854289999896e+00,1.026363272049999864e+01,-2.482239424570000241e-01,-7.171728014949999563e-01,1.296492338179999981e+00,-5.771393775940000248e-01,0.000000000000000000e+00
2.270009159000000221e+00,2.799569051959999832e+00,7.954148155889999572e+00,2.010780727220000230e+00,-9.377162456509999799e-01,1.487955570220000245e+00,-4.551108479500000081e-01,0.000000000000000000e+00
2.274921669999999896e+00,3.386696155709999712e+00,1.005884547640000015e+01,4.648028927199999716e-01,-1.197437763210000172e+00,1.867114543909999647e+00,-5.845729708669999969e-01,0.000000000000000000e+00
2.279917683999999944e+00,4.193286094590000346e+00,6.858285348059999897e+00,-4.650308270309999159e+00,-1.341054081920000085e+00,2.052763223649999969e+00,-5.218588113780000537e-01,0.000000000000000000e+00
2.284928913999999978e+00,1.275117697350000023e+00,1.198589753460000074e+00,-6.416952032130000205e+00,-1.451936125760000085e+00,2.318478584290000200e+00,-5.929647684100000093e-01,0.000000000000000000e+00
2.289939400000000180e+00,-6.765421478669999544e-01,1.361513247510000246e+00,-1.381330439269999921e+01,-1.451600909229999736e+00,2.632635355000000121e+00,-4.808959960939999667e-01,0.000000000000000000e+00
2.294840465000000052e+00,-3.220348459360000137e-01,4.300972343130000097e-01,-1.690431459750000087e+01,-1.553704619410000154e+00,2.430787086490000082e+00,-4.592323303220000041e-01,0.000000000000000000e+00
2.299919650000000093e+00,2.617163151059999748e+00,1.685593664330000019e+00,-1.841512949490000040e+01,-1.625863432879999904e+00,2.353111267090000069e+00,-5.041655302049999898e-01,0.000000000000000000e+00
2.304917405999999946e+00,-1.849779113750000051e-02,4.850337433110000207e-01,-1.581217519419999995e+01,-1.665884971619999932e+00,2.189026355739999818e+00,-5.124529600139999808e-01,0.000000000000000000e+00
2.309836006999999913e+00,1.532335531990000055e+00,-7.359926271580000678e-01,-1.280784257130000192e+01,-1.634658098220000078e+00,2.047068595890000342e+00,-3.950701355929999714e-01,0.000000000000000000e+00
2.314983434999999812e+00,2.774365052599999881e+00,1.261519233970000098e+00,-9.801280581919998625e+00,-1.544241666789999856e+00,2.179180622100000075e+00,-1.427573114629999973e-01,0.000000000000000000e+00
2.319877828000000086e+00,5.601758515549999373e+00,4.219754414800000575e+00,-9.449184469319998669e+00,-1.496056914329999987e+00,2.308773040770000229e+00,1.081193089490000009e-01,0.000000000000000000e+00
2.324966413999999926e+00,7.688128152240000013e+00,5.854779921419999589e+00,-1.033569959330000110e+01,-1.567292809490000050e+00,2.361774444579999965e+00,3.003861308099999849e-01,0.000000000000000000e+00
2.329930167000000107e+00,8.599562028910000322e+00,7.936925802929999385e+00,-1.218593232339999943e+01,-1.696837306019999936e+00,2.318667173390000169e+00,3.662809729579999951e-01,0.000000000000000000e+00
2.334912226999999785e+00,1.003019104440000042e+01,8.553145730180000683e+00,-1.328027537440000039e+01,-1.836572170259999970e+00,1.960234642029999863e+00,3.756283223629999779e-01,0.000000000000000000e+00
2.339977677999999894e+00,1.165198911289999906e+01,7.337636552230000220e+00,-1.402378254190000106e+01,-1.883813023569999912e+00,1.588347196580000009e+00,3.161858916279999820e-01,0.000000000000000000e+00
2.344873574000000183e+00,1.003047862909999921e+01,5.756275123520000037e+00,-1.314752110089999881e+01,-1.754203319550000195e+00,1.275497794150000086e+00,2.148328572509999868e-01,0.000000000000000000e+00
2.349861660999999824e+00,7.096624733110001415e+00,5.111363939319999439e+00,-1.265963353900000143e+01,-1.484491586689999920e+00,1.069239377980000016e+00,2.128090262410000100e-01,0.000000000000000000e+00
2.354909686000000058e+00,4.780324643280000174e+00,5.566633426150000119e+00,-1.264942661779999966e+01,-1.161596655849999937e+00,8.885264992710000254e-01,2.613624036309999954e-01,0.000000000000000000e+00
2.359862763999999835e+00,3.460807686100000335e+00,5.913620232919999609e+00,-1.213387948009999917e+01,-7.985079288480000370e-01,7.281045317649998960e-01,3.120517432690000370e-01,0.000000000000000000e+00
2.364941696999999898e+00,2.228259402810000012e+00,5.781750341039999519e+00,-1.099353104940000136e+01,-4.515265226360000161e-01,6.578304767610000381e-01,3.448713421819999958e-01,0.000000000000000000e+00
2.369955265000000200e+00,5.577344205259999743e-01,4.982099846030000556e+00,-1.019913540609999991e+01,-9.055180102590000557e-02,6.767572164539999990e-01,3.964165747169999809e-01,0.000000000000000000e+00
2.374891096999999895e+00,2.295195342480000067e-01,4.516488705669999604e+00,-9.547336800510000998e+00,1.663445681329999981e-01,7.785836458210000366e-01,4.814807474610000027e-01,0.000000000000000000e+00
2.379897649000000115e+00,9.938801777560000161e-01,4.831207566030000677e+00,-9.660542908450000965e+00,3.334974050519999844e-01,9.034501910209999931e-01,6.168819665910000305e-01,0.000000000000000000e+00
2.384927546000000120e+00,2.601969381319999997e+00,5.543071348779999852e+00,-1.019376832610000072e+01,3.583421409130000401e-01,1.022193074229999832e+00,7.192847132680000311e-01,0.000000000000000000e+00
2.389930667999999869e+00,5.115608152769999251e+00,5.824966382430000422e+00,-1.058043072519999939e+01,3.158633112909999818e-01,1.075138688090000016e+00,7.577760219570000011e-01,0.000000000000000000e+00
2.394913244000000052e+00,5.559401721330000434e+00,5.159602192790000430e+00,-1.021814288889999922e+01,2.723198533060000037e-01,9.990016221999999946e-01,7.425303459170000675e-01,0.000000000000000000e+00
2.399926553999999879e+00,5.825469655780000977e+00,3.410424237299999994e+00,-1.007665936549999941e+01,2.542367577549999869e-01,9.130333065989999497e-01,6.937966942790000369e-01,0.000000000000000000e+00
2.404899217000000089e+00,5.445485419299999741e+00,2.879561457079999887e+00,-1.027202294770000002e+01,2.479931563140000128e-01,8.009532690049999681e-01,6.491011381150000314e-01,0.000000000000000000e+00
2.409954631000000180e+00,4.361515586100000341e+00,3.125530314090000594e+00,-1.033085741400000046e+01,2.391618788239999738e-01,6.272903084750000025e-01,6.100742220879999955e-01,0.000000000000000000e+00
2.414948399000000023e+00,2.936476938000000203e+00,3.266338714709999369e+00,-1.039353569620000073e+01,2.211779952050000053e-01,4.722838103769999574e-01,4.766878187659999710e-01,0.000000000000000000e+00
2.419934013999999856e+00,2.934087704780000028e+00,3.429093574190000382e+00,-1.029237599990000085e+01,1.886257380249999893e-01,3.334130942819999999e-01,3.269328773019999912e-01,0.000000000000000000e+00
2.424971914999999978e+00,3.110122317080000087e+00,3.450981873139999934e+00,-1.039948262190000072e+01,8.652089536189999652e-02,2.968716025350000010e-01,2.253473401069999993e-01,0.000000000000000000e+00
2.429941125000000035e+00,4.436173352199999975e+00,3.626244916540000585e+00,-1.015499815819999974e+01,-2.748827077450000100e-02,3.737769722940000316e-01,1.979945302010000241e-01,0.000000000000000000e+00
2.434946774999999786e+00,4.632134315710000116e+00,2.320996138689999988e+00,-9.513711594289999240e+00,-1.465371400119999945e-01,3.385266363620000329e-01,2.442971765999999989e-01,0.000000000000000000e+00
2.439950296000000129e+00,3.739301094619999599e+00,1.303470808389999958e+00,-9.434701770460000247e+00,-1.405055522920000133e-01,2.809818983080000221e-01,2.439014017579999860e-01,0.000000000000000000e+00
2.444938786999999891e+00,2.418832535800000016e+00,2.049009773979999949e+00,-1.000989761339999973e+01,-1.496206820009999827e-01,1.884838342669999944e-01,2.423245161769999878e-01,0.000000000000000000e+00
2.449918554999999998e+00,2.591832018189999864e+00,2.502677232439999955e+00,-9.672418639689999154e+00,-1.371079534290000068e-01,1.000130251050000141e-01,1.601875871419999875e-01,0.000000000000000000e+00
2.454889109999999874e+00,2.122308234429999718e+00,2.255960187419999929e+00,-9.320768517290000332e+00,-1.207437068220000020e-01,1.382955610749999897e-01,1.451037675140000038e-01,0.000000000000000000e+00
2.460003965999999931e+00,2.245470942109999868e+00,2.406719488679999852e+00,-9.452360176750000065e+00,-1.369308382270000013e-01,1.801241785289999786e-01,1.170725896949999928e-01,0.000000000000000000e+00
2.464937971999999977e+00,2.247775273529999840e+00,2.333489855689999892e+00,-9.473708669720000586e+00,-1.761040240529999912e-01,1.824713349340000013e-01,1.574119627480000116e-01,0.000000000000000000e+00
2.469985917999999891e+00,2.322317596550000030e+00,2.331115527779999752e+00,-9.329768400820000807e+00,-1.840547621249999932e-01,1.643479466440000147e-01,1.672434061769999813e-01,0.000000000000000000e+00
2.474981093999999882e+00,2.067928847859999753e+00,2.166303881890000227e+00,-9.282203516570000090e+00,-1.643978655340000150e-01,1.509776413440000187e-01,1.218037232760000033e-01,0.000000000000000000e+00
2.479962931999999842e+00,1.633428885070000058e+00,1.982982765850000106e+00,-9.180396754520000258e+00,-1.433360278609999983e-01,1.685305386779999970e-01,1.056020110850000027e-01,0.000000000000000000e+00
2.484938931999999934e+00,1.502125687170000168e+00,2.163810749900000108e+00,-9.330833399699999475e+00,-1.392541974779999969e-01,1.858680546279999901e-01,1.357202082870000159e-01,0.000000000000000000e+00
2.489975953000000075e+00,1.769410742309999840e+00,2.598775261460000152e+00,-9.276426102210001190e+00,-1.570201963189999939e-01,2.164515405889999855e-01,1.497775465249999993e-01,0.000000000000000000e+00
2.494900873000000185e+00,2.057152310040000209e+00,2.755982131430000148e+00,-9.278333397139999050e+00,-1.878403127189999799e-01,2.315858751540000038e-01,1.556738168000000033e-01,0.000000000000000000e+00
2.499904423999999903e+00,2.340679182670000191e+00,2.936948647169999926e+00,-9.427854096519999061e+00,-2.190502583979999918e-01,2.482362538579999944e-01,1.469808518890000082e-01,0.000000000000000000e+00
2.504918839000000119e+00,2.446426352909999657e+00,2.750864642279999828e+00,-9.577873393069999963e+00,-2.297245264050000180e-01,2.402001172300000098e-01,1.442149579519999836e-01,0.000000000000000000e+00
2.509856344000000128e+00,2.975708585940000539e+00,2.565108846440000256e+00,-9.530382743099998777e+00,-1.983074545859999926e-01,2.044980674980000079e-01,1.281479299069999966e-01,0.000000000000000000e+00
2.514895344999999782e+00,3.024893472600000077e+00,2.424641660470000293e+00,-9.509120174839999606e+00,-1.424378156660000005e-01,1.776734143499999752e-01,1.292171925310000025e-01,0.000000000000000000e+00
2.519907598000000082e+00,3.195042826259999913e+00,2.356605066079999755e+00,-9.469244676049999754e+00,-1.245213076469999930e-01,1.423512846230000073e-01,1.265838295219999798e-01,0.000000000000000000e+00
2.524910585999999846e+00,3.153519268000000153e+00,2.457704118249999681e+00,-9.352807331099999288e+00,-8.492510765789998417e-02,1.255826056000000079e-01,1.198905035850000023e-01,0.000000000000000000e+00
2.529892107999999862e+00,3.324419147749999581e+00,2.724428470779999945e+00,-9.375950306280000035e+00,-8.287698030469999033e-02,9.080434590579999909e-02,1.258164644239999908e-01,0.000000000000000000e+00
2.534889982000000153e+00,3.202486420259999633e+00,2.674228854109999887e+00,-9.332746539849999579e+00,-8.976942300799999053e-02,9.997428953649999117e-02,1.124081313610000021e-01,0.000000000000000000e+00
2.539906976999999788e+00,2.842629610529999518e+00,2.559043555050000140e+00,-9.331492740399999875e+00,-1.315702795979999951e-01,7.989845424889999159e-02,8.748376369480000136e-02,0.000000000000000000e+00
2.544940572999999873e+00,2.584854872649999802e+00,2.707877733470000159e+00,-9.278813289610001291e+00,-1.511524170639999831e-01,8.004075288769998964e-02,6.776400655509999538e-02,0.000000000000000000e+00
2.549917037999999803e+00,2.396660159220000086e+00,2.622309866299999737e+00,-9.207342044589999830e+00,-1.750762611630000132e-01,9.114053845410000076e-02,5.247768014669999814e-02,0.000000000000000000e+00
2.554942308999999856e+00,2.386287672159999929e+00,2.735892406340000083e+00,-9.282913126140000415e+00,-2.056051641699999932e-01,1.089628189800000008e-01,3.535479307170000252e-02,0.000000000000000000e+00
2.559973579999999860e+00,2.466574822450000148e+00,2.707151757279999682e+00,-9.284193813599999956e+00,-2.050984501839999974e-01,1.149683967229999937e-01,3.284190781409999840e-03,0.000000000000000000e+00
2.564986316999999794e+00,2.523730834129999767e+00,2.686502352490000245e+00,-9.282861103700000172e+00,-1.949175298209999962e-01,1.243279650809999970e-01,4.746835678819999807e-03,0.000000000000000000e+00
2.569972012000000028e+00,2.652499837380000169e+00,2.698361424850000301e+00,-9.380299733660001138e+00,-1.677768826480000031e-01,1.176843419669999918e-01,-5.176544655109999171e-03,0.000000000000000000e+00
2.574996549000000190e+00,2.662869840229999951e+00,2.771007266600000296e+00,-9.355591408860000513e+00,-1.330215632919999891e-01,9.357156604530000865e-02,-2.662469167260000328e-03,0.000000000000000000e+00
2.579988709000000213e+00,2.567357502150000137e+00,2.687643339220000094e+00,-9.272093041439999794e+00,-1.124645471570000083e-01,9.718019515280000575e-02,-3.250904381279999967e-03,0.000000000000000000e+00
2.585040390000000077e+00,2.487527301850000150e+00,2.810754755100000057e+00,-9.233823224280000019e+00,-7.322293519969999553e-02,9.161888808010000551e-02,-1.096637453880000123e-03,1.000000000000000000e+00
2.590014237000000108e+00,2.621918236640000011e+00,2.729965646640000188e+00,-9.169049431080001256e+00,-5.416145175699999675e-02,7.763819396500000469e-02,-9.306264109909999577e-04,0.000000000000000000e+00
2.594974142999999955e+00,2.599929984450000120e+00,2.633280465389999936e+00,-9.083930768980000181e+00,-3.352892026309999690e-02,1.054150760170000090e-01,-5.450588651000000569e-03,1.000000000000000000e+00
2.599942253000000036e+00,2.563316994590000064e+00,2.530438807329999928e+00,-9.165422472750000438e+00,-2.928573451939999947e-02,9.990899264810002012e-02,-1.361838541919999958e-02,1.000000000000000000e+00
2.605044556999999816e+00,2.664099382020000295e+00,2.473933660779999766e+00,-9.036872080680000252e+00,-3.528781980280000508e-02,9.999656677250000347e-02,1.577707473190000228e-03,0.000000000000000000e+00
2.610031997000000104e+00,2.728128202080000175e+00,2.535654496159999827e+00,-9.041623074600000365e+00,-4.793477803469999715e-02,9.522394835950000191e-02,-3.180089872329999994e-03,1.000000000000000000e+00
2.614930854999999887e+00,2.796054906359999759e+00,2.572869543569999973e+00,-9.105156512360000676e+00,-5.472000688310000444e-02,9.286587685350000676e-02,-2.662185579540000372e-04,1.000000000000000000e+00
2.619971728999999971e+00,2.707920988090000147e+00,2.625784264410000013e+00,-9.084386111529999752e+00,-6.599139422180000381e-02,8.406744152310000051e-02,-9.305957704780000103e-03,0.000000000000000000e+00
2.624961330000000093e+00,2.573226101920000009e+00,2.614102594449999817e+00,-9.109434043549999416e+00,-6.481190025809999145e-02,1.057060956949999880e-01,-1.079167425629999968e-02,0.000000000000000000e+00
2.629993294999999787e+00,2.568973705170000343e+00,2.762947294269999965e+00,-9.101387515209999890e+00,-8.857974410060001635e-02,7.194320857520000723e-02,-2.354110963640000317e-02,0.000000000000000000e+00
2.634978848999999901e+00,2.476918814070000252e+00,2.764913918159999984e+00,-9.030852674260001933e+00,-8.663261681800001057e-02,9.373106062410001271e-02,-1.302312221380000010e-02,0.000000000000000000e+00
2.640015626999999920e+00,2.457985565540000028e+00,2.752117857209999574e+00,-8.999598873340000083e+00,-6.053731963039999525e-02,9.463529288769999270e-02,4.659864120189999986e-03,0.000000000000000000e+00
2.645005310999999804e+00,2.613846866120000278e+00,2.751220323849999705e+00,-9.063259152349999681e+00,-5.447531864050000200e-02,8.421953767539998303e-02,-7.812237832699999752e-03,1.000000000000000000e+00
2.650043353000000046e+00,2.535449328969999971e+00,2.697416837469999606e+00,-8.965696603739999659e+00,-6.663081794980001138e-02,1.084457486869999931e-01,1.024300232529999979e-02,1.000000000000000000e+00
2.654910517999999886e+00,2.498748660820000023e+00,2.737378260979999922e+00,-8.908191340229999255e+00,-6.167885288599999488e-02,1.116334274410000077e-01,1.692484132949999970e-02,1.000000000000000000e+00
2.660024777999999923e+00,2.605888600590000159e+00,2.772444898189999840e+00,-8.951009906739999522e+00,-5.664847791190000259e-02,1.185161843900000150e-01,3.988410346210000297e-03,1.000000000000000000e+00
2.664944179999999996e+00,2.554175072230000065e+00,2.642797358540000197e+00,-8.950119095379999834e+00,-4.702798649669999442e-02,1.271546632049999903e-01,1.819951087240000154e-02,0.000000000000000000e+00
2.669839454999999973e+00,2.514823597309999936e+00,2.526285194789999800e+00,-8.964528729010000418e+00,-5.616514012220000240e-02,1.415992230179999867e-01,2.710558660329999772e-02,0.000000000000000000e+00
2.674938265999999842e+00,2.640571206919999803e+00,2.585829562909999879e+00,-9.050788962360000411e+00,-6.181255355480000380e-02,1.480389833449999859e-01,3.327623009680000243e-02,1.000000000000000000e+00
2.679888554999999783e+00,2.634524327970000357e+00,2.494209848350000147e+00,-9.048189008989998783e+00,-5.419685319069999369e-02,1.613423973320000093e-01,5.035074800250000093e-02,1.000000000000000000e+00
2.684881918999999950e+00,2.524574591479999963e+00,2.641672446159999854e+00,-9.102539607860000714e+00,-7.479827851060000254e-02,1.553994119169999910e-01,6.054819375280000304e-02,0.000000000000000000e+00
2.689881755000000041e+00,2.555802965689999873e+00,2.615155610630000016e+00,-9.004587767669999465e+00,-5.450530350209999847e-02,1.502198576930000029e-01,5.597028136250000591e-02,0.000000000000000000e+00
2.694875661000000200e+00,2.162812971040000143e+00,2.452361588180000052e+00,-8.998789895050000709e+00,-6.624145060779999816e-02,1.892482191319999896e-01,6.685933470730000272e-02,0.000000000000000000e+00
2.699966772999999876e+00,2.524966221140000133e+00,2.573878136090000268e+00,-9.115426561960001450e+00,-8.223971724510001358e-02,1.685614436859999843e-01,6.043014675379999867e-02,0.000000000000000000e+00
2.704903594000000133e+00,2.433060967640000349e+00,2.468905603480000099e+00,-9.032210518610000349e+00,-8.117780089380000064e-02,1.778912097219999822e-01,7.756761461500000232e-02,1.000000000000000000e+00
2.709935427000000008e+00,2.593628253959999963e+00,2.615959035970000013e+00,-9.020935091360000158e+00,-1.003766059879999950e-01,1.915930360560000045e-01,8.911144733430000076e-02,0.000000000000000000e+00
2.714890014999999934e+00,2.539538644109999854e+00,2.590863757680000212e+00,-9.058412881360000668e+00,-8.923450857400000436e-02,2.034052163360000054e-01,9.873028844589998299e-02,0.000000000000000000e+00
2.719878063999999984e+00,2.645901754290000074e+00,2.557940269980000014e+00,-8.982856412860000361e+00,-1.177029535170000113e-01,1.951945275070000041e-01,9.295086562629999161e-02,0.000000000000000000e+00
2.724931787000000050e+00,2.445182198069999924e+00,2.391575841699999927e+00,-9.029561465409999599e+00,-1.074169874190000068e-01,2.134000658989999855e-01,1.094345524909999950e-01,0.000000000000000000e+00
2.729928891000000135e+00,2.687904620500000341e+00,2.539475515749999968e+00,-9.173713915760000503e+00,-1.100873723630000078e-01,2.037705630059999939e-01,1.050322800869999962e-01,0.000000000000000000e+00
2.734852721999999847e+00,2.685550166330000099e+00,2.520476216250000068e+00,-9.157740101549999068e+00,-8.904749155039999586e-02,2.149866074320000153e-01,1.170017421250000023e-01,0.000000000000000000e+00
2.740007992999999864e+00,2.637314835470000229e+00,2.564257490309999721e+00,-9.067141546739998503e+00,-8.190384507180001328e-02,2.014399170879999923e-01,1.284299939870000018e-01,0.000000000000000000e+00
2.744971018000000207e+00,2.577835933799999868e+00,2.642795604969999879e+00,-9.226900147020000276e+00,-5.812687054280001042e-02,2.017903476949999830e-01,1.376998722549999943e-01,0.000000000000000000e+00
2.749938482000000128e+00,2.566483349659999913e+00,2.599040634400000105e+00,-9.056258333680000661e+00,-8.041308075189999849e-02,1.868879497050000005e-01,1.575030386449999820e-01,0.000000000000000000e+00
2.754860936000000038e+00,2.612209620309999814e+00,2.670285377179999919e+00,-9.076614893010001239e+00,-4.831966757770000259e-02,2.274646162989999998e-01,1.464264541860000046e-01,0.000000000000000000e+00
2.759980185999999946e+00,2.750186596889999890e+00,2.717991131209999800e+00,-8.994614655189998587e+00,-4.605516791340000249e-02,2.177462577820000189e-01,1.478506922719999839e-01,0.000000000000000000e+00
2.764997870000000191e+00,2.738617155130000036e+00,2.613940681889999951e+00,-9.055072338760000505e+00,-6.937225908039999778e-02,2.332808971410000043e-01,1.615787595510000119e-01,0.000000000000000000e+00
2.769930271999999860e+00,2.892138906850000080e+00,2.693988616590000440e+00,-9.083136988250000599e+00,-5.829310417179999620e-02,2.225639522080000154e-01,1.812535822390000106e-01,0.000000000000000000e+00
2.774937812000000115e+00,2.811227633309999696e+00,2.642215759249999962e+00,-9.072933574149999458e+00,-5.830744281410000368e-02,2.289623320099999637e-01,1.746660918000000062e-01,0.000000000000000000e+00
2.780037241000000048e+00,2.966827652599999698e+00,2.774177421070000094e+00,-9.011928778089998815e+00,-5.714065581559999579e-02,2.304251939059999976e-01,1.734948456289999996e-01,0.000000000000000000e+00
2.784985541000000175e+00,2.789950159740000490e+00,2.659691210190000099e+00,-8.982093027270000363e+00,-5.787587165830000019e-02,2.552267014979999749e-01,1.725907623769999955e-01,0.000000000000000000e+00
2.789990406999999895e+00,3.128118577020000401e+00,2.772811393409999603e+00,-8.979833850169999465e+00,-7.898081839079999777e-02,2.167390584949999977e-01,1.537989228960000010e-01,0.000000000000000000e+00
2.794997315999999898e+00,2.989553863679999868e+00,2.695294730749999701e+00,-9.039912179030000772e+00,-7.833102345469999950e-02,2.422676831480000126e-01,1.604601740839999846e-01,0.000000000000000000e+00
2.799974402000000140e+00,3.041286973520000103e+00,2.650126093989999987e+00,-8.893258559519999551e+00,-5.408952757720000143e-02,2.239520400759999752e-01,1.478725671770000083e-01,0.000000000000000000e+00
2.804956159000000060e+00,2.846828815779999911e+00,2.618656312229999727e+00,-9.001935207339998968e+00,-6.390839070079999684e-02,2.072970122100000201e-01,1.779020875690000003e-01,0.000000000000000000e+00
2.809910492999999843e+00,2.944828002240000409e+00,2.611258895459999785e+00,-8.877811984060000938e+00,-3.761393204329999823e-02,2.359841018920000033e-01,1.789101958269999904e-01,0.000000000000000000e+00
2.814909303999999945e+00,2.573823191029999791e+00,2.584821554909999985e+00,-9.055749215109999639e+00,-6.494956463579999728e-02,2.356117516759999864e-01,1.880201399329999856e-01,0.000000000000000000e+00
2.819901355999999915e+00,2.732601548099999889e+00,2.638404384270000236e+00,-9.002184798180000058e+00,-2.644288539890000261e-02,2.203894704580000030e-01,1.740232408049999790e-01,0.000000000000000000e+00
2.824936672000000204e+00,2.533743109580000041e+00,2.513017132409999910e+00,-8.987138620219999652e+00,-4.099091142419999251e-02,2.330766320229999966e-01,1.811227351430000077e-01,1.000000000000000000e+00
2.829895135000000117e+00,2.602510648590000475e+00,2.555501644660000071e+00,-9.007808483279999834e+00,-4.902916774149999879e-02,2.405318170789999821e-01,1.754388213159999987e-01,0.000000000000000000e+00
2.834924556999999901e+00,2.766780588820000109e+00,2.407020809720000099e+00,-9.066717183850000694e+00,-7.046686112880000408e-02,2.303510904309999940e-01,1.541581898930000083e-01,0.000000000000000000e+00
2.839930062000000088e+00,2.941161004170000037e+00,2.396350216490000129e+00,-9.111094670239999971e+00,-7.793314009900000061e-02,2.327165454630000241e-01,1.536205261949999956e-01,0.000000000000000000e+00
2.844935491999999844e+00,2.970820813890000078e+00,2.439603813420000211e+00,-9.205176975510001469e+00,-7.827509939669999306e-02,2.290940284730000054e-01,1.296006292099999846e-01,0.000000000000000000e+00
2.849870204000000129e+00,3.061746408709999923e+00,2.358908812979999770e+00,-9.133002550660000551e+00,-9.325507283209999443e-02,2.150992304090000029e-01,1.214412450789999903e-01,0.000000000000000000e+00
2.854892326999999952e+00,3.174977358830000096e+00,2.362554329870000025e+00,-9.087862847729999416e+00,-1.335876584050000038e-01,2.216285318140000238e-01,1.001191437240000065e-01,0.000000000000000000e+00
2.859914480000000037e+00,3.509370933740000087e+00,2.566607560560000056e+00,-9.159172764710000081e+00,-1.687952578069999710e-01,2.058287709949999933e-01,6.535327434540000313e-02,0.000000000000000000e+00
2.864837828000000197e+00,3.339906931999999884e+00,2.561167415339999920e+00,-9.013613370169998973e+00,-1.760422438379999899e-01,2.209432572129999828e-01,5.493150651449999616e-02,0.000000000000000000e+00
2.869837287999999820e+00,3.309999284999999958e+00,2.476196637279999724e+00,-9.073834906900000163e+00,-2.093275934459999932e-01,2.011825442309999878e-01,5.952821671959999950e-02,0.000000000000000000e+00
2.874880706999999980e+00,3.557314880440000326e+00,2.508104225929999931e+00,-9.009880028859999612e+00,-2.354736179109999938e-01,1.815462261439999836e-01,4.631093889469999753e-02,0.000000000000000000e+00
2.879831192999999789e+00,3.300585267699999825e+00,2.549001761249999998e+00,-9.053485361830000855e+00,-2.296991050239999832e-01,1.736331880090000168e-01,4.530542343849999765e-02,0.000000000000000000e+00
2.884886122000000164e+00,3.346524012059999720e+00,2.725833953660000031e+00,-9.091118634660000808e+00,-2.629085481170000405e-01,1.359734982249999891e-01,3.077527321879999778e-02,0.000000000000000000e+00
2.889894538000000068e+00,3.262088363790000223e+00,2.669154327319999798e+00,-9.070869627349999575e+00,-2.590239047999999822e-01,1.388729065660000150e-01,2.530640549960000082e-02,0.000000000000000000e+00
2.894889839000000187e+00,3.470129641200000226e+00,2.712350494969999914e+00,-8.960205020589999236e+00,-2.657488584519999697e-01,1.238010600209999978e-01,-3.375300206239999819e-03,0.000000000000000000e+00
2.899936519999999796e+00,3.287004193859999646e+00,2.802617333610000205e+00,-9.007501024770000697e+00,-2.318884283300000071e-01,1.043805703520000044e-01,2.174855023620000244e-02,0.000000000000000000e+00
2.904956941000000015e+00,3.275258811000000048e+00,2.818959981129999903e+00,-8.932938827999999276e+00,-2.264206707479999858e-01,1.097459942099999891e-01,1.955070905390000197e-02,0.000000000000000000e+00
2.909954310999999905e+00,3.215838361529999911e+00,2.678904736969999867e+00,-8.940858515080000402e+00,-2.218630313870000037e-01,9.444427490229999334e-02,-4.757851827890000052e-03,1.000000000000000000e+00
2.915010810000000063e+00,2.978767096719999952e+00,2.808659536389999989e+00,-9.123826141520000377e+00,-2.280623018739999786e-01,9.317880123849998919e-02,2.063062414529999791e-02,1.000000000000000000e+00
2.919981506000000060e+00,3.020576486189999965e+00,2.689566123970000167e+00,-9.000321926919999882e+00,-2.354100197549999773e-01,1.179992854599999780e-01,2.877340279519999960e-02,1.000000000000000000e+00
2.925052791999999791e+00,3.035150370460000246e+00,2.580710320200000130e+00,-9.085625882460000469e+00,-2.845714688300000073e-01,1.253076493739999908e-01,1.196340937170000014e-02,0.000000000000000000e+00
2.929970667000000084e+00,3.037477936629999764e+00,2.603454651450000323e+00,-9.047901424219999100e+00,-3.028373122219999991e-01,1.270474940540000097e-01,1.981830783190000056e-02,0.000000000000000000e+00
2.934937174999999954e+00,3.012767858259999709e+00,2.662623171989999982e+00,-9.111904817580001037e+00,-3.404825627800000531e-01,1.317642629150000133e-01,4.647167399530000020e-03,0.000000000000000000e+00
2.939957758999999893e+00,2.975093668909999600e+00,2.666531285340000057e+00,-9.068111268560000937e+00,-3.383947908880000077e-01,1.675384342669999915e-01,1.426556706430000092e-02,0.000000000000000000e+00
2.944851129999999984e+00,3.026810704399999885e+00,2.725122006000000319e+00,-9.154340522240000055e+00,-3.490629494190000126e-01,1.670984625819999791e-01,1.677878201009999973e-02,0.000000000000000000e+00
