t,ax,ay,az,wx,wy,wz,zv
5.036055000000000219e-03,3.730379829269999892e+00,-5.475926734789999806e-01,9.133075031380000652e+00,-3.431160002950000426e-02,1.527183689180000060e-02,3.494126023720000099e-03,1.000000000000000000e+00
9.997404999999999139e-03,3.595513678190000117e+00,-5.655108632140000147e-01,9.100293874760000179e+00,-3.418202325699999655e-02,1.248423941429999823e-02,2.568076923489999788e-02,1.000000000000000000e+00
1.504082099999999936e-02,3.669733637390000247e+00,-5.787855379919999432e-01,9.076641781010000187e+00,-5.280727893109999488e-02,2.605433575809999736e-02,8.047492243349999713e-03,1.000000000000000000e+00
2.012972799999999951e-02,3.666342533649999957e+00,-5.774976901380000083e-01,9.092983259480000413e+00,-3.804918006059999913e-02,-2.646728884429999824e-03,-1.719900756139999907e-03,1.000000000000000000e+00
2.508880299999999980e-02,3.636480479349999850e+00,-5.944617574859999420e-01,9.066205727199999842e+00,-4.324715584520000267e-02,1.637416332960000068e-02,1.515085902069999990e-02,1.000000000000000000e+00
3.007407600000000167e-02,3.702570031330000067e+00,-5.930225549959999842e-01,9.101528384989999054e+00,-4.423672333359999348e-02,4.314783960580000077e-03,6.317491643130000376e-03,1.000000000000000000e+00
3.520062999999999664e-02,3.725407009300000016e+00,-5.923446922670000392e-01,9.050826371760001265e+00,-2.884225174779999831e-02,1.994248852130000096e-02,-3.854760201650000127e-03,1.000000000000000000e+00
4.020779000000000020e-02,3.645276949269999900e+00,-6.149190737770000581e-01,9.050051880249998959e+00,-1.623481698329999959e-02,1.964687556029999851e-02,2.237519435579999813e-02,1.000000000000000000e+00
4.521677000000000335e-02,3.706809568590000215e+00,-5.921967716960000461e-01,9.061981387499999485e+00,-9.326404891910000661e-03,-8.477242663500000885e-03,1.438414026050000016e-02,1.000000000000000000e+00
5.009557800000000172e-02,3.708530985559999937e+00,-6.173928434790000308e-01,9.046002897119999275e+00,-1.849704422059999728e-02,-5.615510977800000463e-03,1.687693595890000023e-02,1.000000000000000000e+00
5.503961500000000007e-02,3.720778764980000375e+00,-6.530082006090000002e-01,9.054556205929999990e+00,-8.874703198670000001e-03,3.040660638359999994e-03,1.406292710449999830e-02,1.000000000000000000e+00
5.998834799999999690e-02,3.716821551780000288e+00,-6.305804610279999167e-01,9.036386342989999321e+00,-1.391534134750000047e-02,-8.471790933979999336e-04,1.525587122890000036e-02,1.000000000000000000e+00
6.508740899999999885e-02,3.741512340919999513e+00,-6.411922367399999212e-01,9.054995766399999368e+00,-1.396994944660000064e-02,-9.710261598229999805e-03,1.356051210309999928e-02,1.000000000000000000e+00
7.003100399999999393e-02,3.682060619519999634e+00,-6.019012233039999771e-01,9.036090574919999341e+00,-2.654494717719999616e-03,-8.632695302370001558e-03,1.319074351340000090e-02,1.000000000000000000e+00
7.508210699999999516e-02,3.677479721469999685e+00,-5.936931842660000402e-01,9.019535161439998561e+00,-1.327046472579999740e-02,-2.734779845920000396e-03,1.154011022300000140e-02,1.000000000000000000e+00
8.018416200000000327e-02,3.698734690950000292e+00,-5.904142721930000226e-01,8.999481384439999232e+00,-9.594995528459999978e-03,-5.495972465719999901e-03,1.552314963190000105e-02,1.000000000000000000e+00
8.510816000000000214e-02,3.679999595340000429e+00,-6.260089883939999877e-01,8.992591040409999792e+00,-2.021680772299999998e-02,-9.740839595910000216e-04,8.012799546120000921e-03,1.000000000000000000e+00
9.006070800000000320e-02,3.652482935119999663e+00,-5.995742416610000403e-01,9.016735886110000209e+00,-1.132780965420000091e-02,-6.305302958939999931e-03,6.243210285899999760e-03,1.000000000000000000e+00
9.503817999999999988e-02,3.700414314599999699e+00,-5.829725413530000289e-01,9.027385290410000707e+00,-1.041589397939999932e-02,1.274360530079999936e-02,3.179796040059999730e-04,1.000000000000000000e+00
9.998356599999999594e-02,3.691840255259999815e+00,-5.689110635790000092e-01,9.008963498540000003e+00,-6.697112694380000404e-03,5.025165155530000177e-03,6.174756214020000501e-03,1.000000000000000000e+00
1.050222519999999965e-01,3.671773911050000283e+00,-5.580446920520000242e-01,9.025721156589998628e+00,-1.392144616690000128e-02,1.510796137150000051e-02,1.993776857849999945e-02,1.000000000000000000e+00
1.099765129999999980e-01,3.752582893250000051e+00,-5.854817476950000543e-01,9.019722792959999680e+00,-4.844083450729999227e-03,2.045696787540000200e-02,-3.465179121119999969e-03,1.000000000000000000e+00
1.150618560000000040e-01,3.687486443969999694e+00,-5.911059807849999848e-01,9.045621204330000609e+00,-8.385086432099999806e-03,1.703858189279999769e-02,-7.719885557889999937e-03,1.000000000000000000e+00
1.200630899999999973e-01,3.671619597269999868e+00,-5.840999379469999919e-01,9.039008508189999347e+00,-3.238836070520000141e-03,2.095966972409999893e-02,6.536102853720000307e-03,1.000000000000000000e+00
1.250137910000000130e-01,3.760293029240000084e+00,-5.933871870569999984e-01,9.078696375459999857e+00,-1.212095655500000126e-02,1.232584193350000010e-02,-7.970348000530000018e-03,1.000000000000000000e+00
1.299773019999999890e-01,3.720798346459999628e+00,-5.984366524659999742e-01,9.041963850860000207e+00,-1.787170208990000037e-02,2.309796027840000168e-02,-6.093399599189999044e-03,1.000000000000000000e+00
1.350607299999999900e-01,3.630992695590000263e+00,-6.314898309579999314e-01,9.042980334430000156e+00,-6.502616684880000927e-03,1.952810771759999967e-02,7.139971479770000802e-03,1.000000000000000000e+00
1.401763259999999900e-01,3.592559212300000304e+00,-6.519642445139999243e-01,8.983236352089999599e+00,-1.126569136979999920e-02,4.332677926870000078e-03,2.501250477510000292e-03,1.000000000000000000e+00
1.451702300000000112e-01,3.585065933930000170e+00,-6.654716686020000216e-01,8.932183041200000062e+00,1.480290782640000108e-03,2.464062906799999869e-02,-9.369703475389999344e-04,1.000000000000000000e+00
1.501698330000000026e-01,3.522158811380000198e+00,-6.251495220210000481e-01,8.892006513630001052e+00,2.426619175820000137e-03,3.312312811609999935e-02,-4.965972620989999795e-03,1.000000000000000000e+00
1.549834210000000101e-01,3.534745321230000403e+00,-6.611925299780000431e-01,8.856077122120000311e+00,2.794959349559999941e-03,4.518304765219999242e-02,-8.433917537330000783e-03,1.000000000000000000e+00
1.601908830000000061e-01,3.490190724709999692e+00,-6.286130334130000108e-01,8.891713668160001305e+00,1.555166672920000118e-02,5.958088114860000256e-02,-1.142651401460000049e-02,1.000000000000000000e+00
1.651625250000000045e-01,3.422087787080000165e+00,-6.618531858439999915e-01,8.865679063199999987e+00,-2.125829458239999852e-03,6.350898742680000097e-02,-2.088125608859999968e-02,1.000000000000000000e+00
1.701793639999999996e-01,3.466906879760000226e+00,-7.447380975409999548e-01,8.929266861489999485e+00,2.957625500860000187e-02,6.609996408219999398e-02,-2.814394980669999990e-02,1.000000000000000000e+00
1.752089530000000006e-01,3.624905484630000618e+00,-7.109158343719998996e-01,9.048880498389999971e+00,4.203646630050000138e-02,7.440468668939999308e-02,-4.229424893860000284e-02,1.000000000000000000e+00
1.801541030000000099e-01,3.732214935750000073e+00,-6.778310916990000212e-01,9.218743144050000282e+00,4.909406974909999444e-02,5.958352237940000434e-02,-3.989185765390000638e-02,1.000000000000000000e+00
1.850197020000000081e-01,3.837119079290000290e+00,-7.059978863879999844e-01,9.310971345889999640e+00,5.481139942999999765e-02,3.923142328859999944e-02,-3.130979463459999945e-02,1.000000000000000000e+00
1.901589360000000006e-01,3.843706348719999610e+00,-7.171295212559999355e-01,9.392630222930000272e+00,5.948543548580000062e-02,1.626745797690000092e-02,-3.400465101000000462e-02,1.000000000000000000e+00
1.950539330000000127e-01,3.748492701330000010e+00,-6.861095290919999590e-01,9.368626831529999421e+00,6.607805192469999589e-02,-1.179341226820000005e-02,-3.125655278560000166e-02,1.000000000000000000e+00
2.000536470000000011e-01,3.666903966919999647e+00,-6.782234520170000724e-01,9.277188903280000787e+00,8.946207165719999299e-02,-1.407769322399999960e-02,-3.699781373140000051e-02,1.000000000000000000e+00
2.050479659999999982e-01,3.561778581850000069e+00,-6.513193707399999033e-01,9.179954271450000647e+00,7.523492723699999607e-02,-2.794326655569999776e-02,-4.456895217299999823e-02,1.000000000000000000e+00
2.101449240000000107e-01,3.469121048680000374e+00,-6.145891111700000353e-01,9.147422121159999975e+00,8.678504824640000115e-02,-2.282400615509999967e-02,-2.477974258359999862e-02,1.000000000000000000e+00
2.150374610000000131e-01,3.479383791760000122e+00,-6.289453341070000425e-01,9.113456723189999664e+00,7.594191282989999625e-02,-2.665552496909999805e-02,-4.027649760249999572e-02,1.000000000000000000e+00
2.200351769999999985e-01,3.487867542460000081e+00,-5.399591829259999809e-01,9.103374305119999121e+00,8.412642031910000373e-02,-1.820447109640000241e-02,-4.107827693219999465e-02,1.000000000000000000e+00
2.252040720000000051e-01,3.618012510239999813e+00,-4.897179556050000326e-01,9.043778206810001663e+00,8.932172507049999932e-02,-1.884570159020000288e-02,-5.299758166069999665e-02,1.000000000000000000e+00
2.300200960000000072e-01,3.647238020209999654e+00,-5.629924871850000567e-01,9.112483494250000149e+00,9.443662315610000524e-02,-3.166681900619999768e-02,-6.202074140309999511e-02,1.000000000000000000e+00
2.352096240000000060e-01,3.664961892950000077e+00,-6.238050486089999902e-01,9.112850573989998537e+00,9.245822578669998792e-02,-2.891604788599999934e-02,-5.801051482559999722e-02,1.000000000000000000e+00
2.401950860000000021e-01,3.705186643569999827e+00,-6.080727880790000039e-01,9.160486769910001215e+00,1.074606329200000071e-01,-2.974507026370000126e-02,-5.418521538380000752e-02,1.000000000000000000e+00
2.451728450000000004e-01,3.771120420459999956e+00,-6.010667817739999697e-01,9.158332806749999833e+00,1.116959974169999953e-01,-4.541378840800000538e-02,-6.805659830569998903e-02,1.000000000000000000e+00
2.501694919999999933e-01,3.782182204959999794e+00,-5.170052275140000209e-01,9.135870799570000145e+00,1.166657581929999993e-01,-5.062849819659999417e-02,-6.007241830230000690e-02,1.000000000000000000e+00
2.551772290000000054e-01,3.872912861730000156e+00,-4.901058589439999946e-01,9.105462801830000785e+00,1.239811480049999998e-01,-5.262195691470000075e-02,-7.071311771869999430e-02,1.000000000000000000e+00
2.601914679999999813e-01,3.787577342009999626e+00,-4.557451780499999772e-01,9.095306149469999824e+00,1.252935230729999849e-01,-6.349995732310000085e-02,-3.149559348819999660e-02,1.000000000000000000e+00
2.651985880000000129e-01,3.908907427430000414e+00,-4.622808268959999745e-01,9.035150663719999642e+00,1.253936290740000070e-01,-6.463259458539999391e-02,-4.451257735489999590e-02,1.000000000000000000e+00
2.700390959999999785e-01,3.781557351060000016e+00,-4.355375987360000090e-01,9.062755878999999126e+00,1.350201368329999874e-01,-7.807978242639999900e-02,-4.053811356430000318e-02,1.000000000000000000e+00
2.750105330000000015e-01,3.744819858040000060e+00,-4.726092921549999715e-01,9.023598173089999008e+00,1.398634612560000212e-01,-7.504973560569999647e-02,-3.771752864119999604e-02,1.000000000000000000e+00
2.800665760000000115e-01,3.737867846939999961e+00,-4.753451103269999978e-01,8.982356062120000928e+00,1.161089316009999983e-01,-7.636617869139998571e-02,-3.996391966940000123e-02,1.000000000000000000e+00
2.850595510000000221e-01,3.740741064290000306e+00,-4.661106143179999939e-01,8.944496579330001751e+00,1.077948287130000016e-01,-7.090120762589999237e-02,-5.035694688559999577e-02,1.000000000000000000e+00
2.901762190000000130e-01,3.747408705490000269e+00,-4.892214773250000426e-01,8.902517970770000844e+00,9.654427319769999516e-02,-4.344164207580000076e-02,-4.304873943330000258e-02,1.000000000000000000e+00
2.950747570000000208e-01,3.753016900759999608e+00,-4.950028006730000096e-01,8.921649372219999208e+00,8.323302119969999691e-02,-5.816831812260000317e-02,-3.861815854909999429e-02,1.000000000000000000e+00
3.000458999999999765e-01,3.772770233500000181e+00,-5.392778130659999780e-01,8.892060874169999352e+00,6.957646459340000034e-02,-4.856053367259999948e-02,-4.283111169929999795e-02,1.000000000000000000e+00
3.050279719999999806e-01,3.765665662190000429e+00,-5.092776289360000375e-01,8.927304621510000260e+00,5.915154144169999101e-02,-3.613895922899999780e-02,-3.763544932009999650e-02,1.000000000000000000e+00
3.101693489999999831e-01,3.846457108740000130e+00,-5.117412791030000463e-01,8.932239739819999969e+00,2.964888140559999649e-02,-2.262579277160000138e-02,-5.533287674189999589e-02,1.000000000000000000e+00
3.150809740000000136e-01,3.865359962130000770e+00,-4.556229033770000103e-01,8.971391600510001396e+00,3.147531673310000055e-02,-2.834524400529999863e-02,-6.506383419040000227e-02,1.000000000000000000e+00
3.202364870000000141e-01,3.772691615299999857e+00,-4.806318916229999627e-01,8.951282293939998524e+00,3.579639643429999990e-02,-2.940778434279999604e-02,-4.792243987319999565e-02,1.000000000000000000e+00
3.251919560000000042e-01,3.761403036309999948e+00,-4.743426187529999893e-01,8.966102846460000109e+00,5.034469068050000107e-02,-3.501211479309999930e-02,-5.545329675080000464e-02,1.000000000000000000e+00
3.300418379999999763e-01,3.649082186769999847e+00,-4.475410480020000081e-01,9.006410891449998957e+00,7.115647941830000045e-02,-2.987715974450000020e-02,-4.631969705220000122e-02,1.000000000000000000e+00
3.352177619999999747e-01,3.658960606700000007e+00,-4.914789008630000011e-01,9.008360271949999998e+00,7.210450619460000155e-02,-3.062226064499999970e-02,-4.990055412050000555e-02,1.000000000000000000e+00
3.402253419999999862e-01,3.637764966200000227e+00,-4.898642687399999973e-01,9.041674512530001095e+00,6.536839157340000594e-02,-3.934830427169999645e-02,-6.212829425929999871e-02,1.000000000000000000e+00
3.452218969999999998e-01,3.621436639469999719e+00,-5.208095882329999426e-01,9.049529902199999754e+00,9.004353731869998989e-02,-2.991823852060000039e-02,-5.347186326980000320e-02,1.000000000000000000e+00
3.502000849999999943e-01,3.695731709740000426e+00,-4.481903787560000407e-01,9.080732265199999986e+00,7.322457432749999995e-02,-1.899764686820000145e-02,-5.337764322759999680e-02,1.000000000000000000e+00
3.552048700000000059e-01,3.732012398909999806e+00,-3.432038541599999881e-01,9.118100749610000832e+00,8.139386028049999666e-02,-3.327283263209999953e-02,-7.085742056369999375e-02,1.000000000000000000e+00
3.601940940000000202e-01,3.654552727130000456e+00,-3.564818168739999904e-01,9.097766402110000428e+00,9.918575733899999414e-02,-2.261704765259999611e-02,-4.626948386429999976e-02,1.000000000000000000e+00
3.652085119999999852e-01,3.677646894740000505e+00,-3.254321967570000251e-01,9.094048842889998596e+00,9.192319214340000100e-02,-3.114691562950000145e-02,-5.577418208119999665e-02,1.000000000000000000e+00
3.700012460000000059e-01,3.665099840109999896e+00,-3.269577623559999924e-01,9.194162245019999347e+00,9.234566986559999968e-02,-3.182657435539999746e-02,-5.692264437680000233e-02,1.000000000000000000e+00
3.750540090000000215e-01,3.645406713130000309e+00,-3.289385243769999967e-01,9.245124370499999245e+00,8.827713876959999983e-02,-2.872084453699999887e-02,-4.187998920680000708e-02,1.000000000000000000e+00
3.800463190000000213e-01,3.677225162190000507e+00,-2.958857294780000147e-01,9.343424585730000231e+00,8.123888075349999793e-02,-1.606912910939999745e-02,-5.545078963039999642e-02,1.000000000000000000e+00
3.850377600000000067e-01,3.699575233430000498e+00,-2.519398394410000130e-01,9.353793419530001430e+00,8.172284811739999322e-02,-3.826720267530000358e-02,-5.869100242849999843e-02,1.000000000000000000e+00
3.901788789999999785e-01,3.695229897699999988e+00,-2.380938675820000183e-01,9.306988998260001367e+00,6.540863960979999281e-02,-1.864147931340000286e-02,-5.661460757259999255e-02,1.000000000000000000e+00
3.950246869999999855e-01,3.635326048620000083e+00,-2.128908363349999722e-01,9.311876185780000981e+00,5.362931266429999538e-02,-4.525360092519999794e-02,-5.001452937719999547e-02,1.000000000000000000e+00
4.000275629999999749e-01,3.674772800600000000e+00,-1.394365642740000022e-01,9.285772022710000684e+00,5.008160322900000183e-02,-4.852731898430000246e-02,-5.441487953069999717e-02,1.000000000000000000e+00
4.050710920000000215e-01,3.652550739659999657e+00,-1.030012142639999961e-01,9.245426568310000093e+00,5.745926499369999330e-02,-3.386650979519999910e-02,-3.505278006200000102e-02,1.000000000000000000e+00
4.101632139999999982e-01,3.688652272869999305e+00,-6.256579829989999952e-02,9.245116187189999835e+00,4.628681764010000171e-02,-5.915043875580000554e-02,-3.375807777050000152e-02,1.000000000000000000e+00
4.149518179999999723e-01,3.703319388389999745e+00,-1.174479376290000071e-01,9.229715204439999710e+00,4.329758509990000448e-02,-4.066728428009999674e-02,-3.492831438780000242e-02,1.000000000000000000e+00
4.199827110000000085e-01,3.722569447780000651e+00,-9.418172879660001440e-02,9.175435917239999739e+00,3.947607055309999835e-02,-4.065971821549999726e-02,-3.847591206430000382e-02,1.000000000000000000e+00
4.252001349999999791e-01,3.632624680699999775e+00,-1.190762420840000002e-01,9.165093971450000154e+00,2.490254864099999965e-02,-3.079758584499999938e-02,-2.078991942109999908e-02,1.000000000000000000e+00
4.300393499999999869e-01,3.667856153080000237e+00,-1.327177226139999999e-01,9.098534463869999200e+00,3.049439564350000034e-02,-2.210746705529999939e-02,-2.371428161859999786e-02,1.000000000000000000e+00
4.350387540000000275e-01,3.693235509009999529e+00,-1.650472082070000013e-01,9.089314215580001743e+00,-1.598837669010000047e-03,-1.909565180540000184e-02,-2.033413201570000162e-02,1.000000000000000000e+00
4.401751740000000024e-01,3.746236154580000033e+00,-1.975315555689999836e-01,9.084488987380000324e+00,-1.080937311049999863e-02,-2.708670217539999731e-03,2.719709416849999672e-03,1.000000000000000000e+00
4.451464560000000237e-01,3.828831435680000173e+00,-2.266118483740000022e-01,9.026014002060000152e+00,-1.895439065990000421e-02,3.934768028560000231e-05,-1.238997373729999914e-02,1.000000000000000000e+00
4.500535339999999773e-01,3.817579973819999584e+00,-2.340674433430000034e-01,9.006919425489998687e+00,-2.815750800070000032e-02,5.572767928239999793e-03,1.092196907850000013e-04,1.000000000000000000e+00
4.550780799999999959e-01,3.871871535980000445e+00,-2.797150409980000418e-01,8.949200226969999505e+00,-4.171482473609999797e-02,2.285853028300000381e-03,-2.223850041629999927e-02,1.000000000000000000e+00
4.600368280000000087e-01,3.806473473399999641e+00,-3.093598906170000329e-01,8.967920709530000423e+00,-6.140775233509999931e-02,1.508646458390000035e-02,-1.093717291950000109e-03,1.000000000000000000e+00
4.650601440000000086e-01,3.943871188790000204e+00,-3.301210486930000187e-01,8.930511893110001154e+00,-6.337161362169999035e-02,1.658921502529999911e-02,-1.911293715239999885e-02,1.000000000000000000e+00
4.701510039999999835e-01,3.861626328559999877e+00,-3.704578813870000320e-01,8.938257392669999746e+00,-7.763341069220000557e-02,1.533044688400000098e-02,-4.024852532890000234e-04,1.000000000000000000e+00
4.752042220000000095e-01,3.927172275180000227e+00,-3.229968959010000029e-01,8.932598051739999434e+00,-7.271052896980000069e-02,9.426746517420000679e-03,-5.576132796699999512e-03,1.000000000000000000e+00
4.800751540000000039e-01,3.879725464349999875e+00,-3.433246309960000242e-01,8.918543222900000345e+00,-7.581704109910000766e-02,2.929242700339999839e-02,1.142136845740000101e-02,1.000000000000000000e+00
4.851133539999999966e-01,3.898079159430000384e+00,-3.336338791189999986e-01,8.930957883319999624e+00,-6.947540491820000663e-02,1.852142624559999923e-02,9.399479255079999304e-03,1.000000000000000000e+00
4.901731919999999798e-01,3.875364638790000260e+00,-3.380447178320000190e-01,8.962601560339999551e+00,-6.277088820930000479e-02,3.317705169319999647e-02,8.596283383669999986e-03,1.000000000000000000e+00
4.950487239999999955e-01,3.872275732869999487e+00,-3.942536944510000030e-01,8.932789774919999815e+00,-2.488345652819999934e-02,2.800436690450000196e-02,1.619050279259999850e-02,1.000000000000000000e+00
5.001346129999999501e-01,3.836642693950000016e+00,-4.128453264679999846e-01,8.977490501910001086e+00,-3.948517516260000026e-02,-1.443311222829999968e-03,3.454683721069999602e-02,1.000000000000000000e+00
5.051431579999999810e-01,3.894518252069999686e+00,-4.457346927000000458e-01,9.014299014349999695e+00,-5.338838696480000673e-02,3.276966046540000232e-03,9.747894480820000138e-03,1.000000000000000000e+00
5.102512289999999728e-01,3.833752525470000005e+00,-4.965835305250000387e-01,9.049215429430001123e+00,-6.182435899969999926e-02,1.921675354240000300e-02,1.677981019020000075e-02,1.000000000000000000e+00
5.150896619999999482e-01,3.850900351880000017e+00,-5.429492681199999948e-01,9.043006637919999591e+00,-9.137289971110000575e-02,5.928554572169999690e-03,4.307107999920000221e-03,1.000000000000000000e+00
5.200929970000000013e-01,3.812377728999999604e+00,-5.405879092830000454e-01,9.039514119630000621e+00,-8.035577088589999917e-02,5.798324942590000509e-03,9.660759940739999455e-03,1.000000000000000000e+00
5.252407700000000235e-01,3.818959445480000436e+00,-5.589864298810000021e-01,8.968533872989999267e+00,-1.107809916139999989e-01,-3.243836108600000028e-03,3.479664446789999897e-03,1.000000000000000000e+00
5.300858800000000093e-01,3.817585234519999648e+00,-5.111711875980000652e-01,8.997885639690000659e+00,-1.065215840939999908e-01,1.324108615519999956e-02,2.563747111709999875e-04,1.000000000000000000e+00
5.351238980000000423e-01,3.876135038640000197e+00,-4.560203782620000368e-01,8.927154399380000882e+00,-1.037347540259999923e-01,2.000702172520000058e-02,-1.294568553570000016e-02,1.000000000000000000e+00
5.400722580000000272e-01,3.902587576759999788e+00,-4.554239467389999962e-01,8.885861435009999809e+00,-9.744789451360000299e-02,2.201633527869999857e-02,-6.135648116469999934e-03,1.000000000000000000e+00
5.451225979999999582e-01,3.913136735559999746e+00,-4.507103622209999716e-01,8.887722552699999667e+00,-7.930357754229999667e-02,2.324869669970000205e-02,3.879894269630000236e-03,1.000000000000000000e+00
5.502188190000000256e-01,3.923610491040000259e+00,-3.977998060919999967e-01,8.949698824139998621e+00,-8.353138715030000716e-02,-6.328217219560000953e-03,2.986644627530000290e-03,1.000000000000000000e+00
5.552090659999999733e-01,3.863637083859999599e+00,-3.951804904389999984e-01,8.962655920870000514e+00,-5.850928276779999992e-02,-1.670845039189999826e-02,1.441461872310000059e-02,1.000000000000000000e+00
5.602158259999999723e-01,3.857769360869999442e+00,-4.250109440250000592e-01,8.937617341210000177e+00,-2.685618214309999641e-02,-2.102881297470000216e-02,1.147072575989999989e-02,1.000000000000000000e+00
5.650907419999999792e-01,3.800355575040000211e+00,-4.794849135450000577e-01,8.960980681139998794e+00,-2.215582504870000288e-02,-4.079510271549999928e-02,3.251703828569999649e-02,1.000000000000000000e+00
5.700768819999999515e-01,3.759789755889999974e+00,-5.201602940110000572e-01,9.035383887949999249e+00,-2.785320393740000136e-02,-2.223715931179999841e-02,3.008516877890000246e-02,1.000000000000000000e+00
5.750774849999999994e-01,3.782829270699999746e+00,-4.778133270709999381e-01,9.114106711530000737e+00,-2.298431284730000079e-02,-1.973081938920000222e-02,1.087015494699999918e-02,1.000000000000000000e+00
5.801153409999999511e-01,3.678117434859999868e+00,-4.979622349999999753e-01,9.101413234180000700e+00,-4.573500528930000281e-02,-3.869185224180000243e-02,1.925063692030000093e-02,1.000000000000000000e+00
5.851017499999999760e-01,3.653015726830000087e+00,-5.407566534469999686e-01,9.085174631560001046e+00,-3.580359742050000238e-02,-2.918733470140000286e-02,1.686558313670000198e-02,1.000000000000000000e+00
5.901012759999999524e-01,3.731972943680000210e+00,-4.923322662890000090e-01,9.067758217330000647e+00,-5.796650424599999324e-02,-3.164292499420000293e-02,1.442145323380000224e-03,1.000000000000000000e+00
5.950034579999999851e-01,3.741607325729999989e+00,-4.223346374880000420e-01,9.061471099889999437e+00,-4.773639142509999989e-02,-1.580242626370000070e-02,-1.254022587089999915e-03,1.000000000000000000e+00
6.000889409999999868e-01,3.779717860680000374e+00,-3.383729268729999684e-01,9.025992374750000380e+00,-3.990381956100000349e-02,-2.059671655300000098e-02,2.272638725120000071e-03,1.000000000000000000e+00
6.050759500000000290e-01,3.722719085390000515e+00,-2.667009899170000309e-01,9.049016691989999472e+00,-4.362460970879999955e-02,-2.563105151060000170e-02,1.962676644330000122e-02,1.000000000000000000e+00
6.100403429999999849e-01,3.751854286719999987e+00,-2.896113984490000237e-01,9.008912060610001049e+00,-3.787924721840000425e-02,-2.083674259479999930e-02,1.699723862110000261e-02,1.000000000000000000e+00
6.150573070000000531e-01,3.735225515739999835e+00,-3.242127379640000195e-01,8.988263824860000639e+00,-4.559391736980000776e-02,-2.350578270850000109e-02,1.277260947970000095e-02,1.000000000000000000e+00
6.201085119999999451e-01,3.661177698229999944e+00,-3.215971486389999634e-01,9.000731676770000078e+00,-4.017930850390000197e-02,-6.533768493680000219e-03,3.658075630660000133e-02,1.000000000000000000e+00
6.252146050000000344e-01,3.733841367900000208e+00,-3.476936398600000144e-01,9.009248160700000341e+00,-4.572918638590000445e-02,-5.321999546140000412e-03,2.374352701010000108e-02,1.000000000000000000e+00
6.300881900000000480e-01,3.729066116330000291e+00,-3.540278113180000408e-01,8.978832564170000197e+00,-5.194870755080000652e-02,-4.375866148619999944e-03,3.093944117429999960e-02,1.000000000000000000e+00
6.352379430000000271e-01,3.798005504780000319e+00,-3.838881851179999916e-01,8.982541355560000440e+00,-5.266839265819999588e-02,1.510689035060000171e-02,2.531136758629999942e-02,1.000000000000000000e+00
6.401387370000000132e-01,3.847190099190000101e+00,-3.713748135689999841e-01,8.942455428889999780e+00,-6.381259113550000195e-02,2.277993224560000141e-02,2.637348137800000006e-02,1.000000000000000000e+00
6.452495120000000250e-01,3.873721840019999529e+00,-3.607023571779999771e-01,8.952166675560000897e+00,-7.741299271580000252e-02,2.245491929349999888e-02,3.048052638770000142e-02,1.000000000000000000e+00
6.502118040000000043e-01,3.858654911530000398e+00,-3.262081130330000134e-01,8.944145281670000003e+00,-8.076948672530000206e-02,4.343397915359999834e-02,3.217026218769999946e-02,1.000000000000000000e+00
6.551240289999999966e-01,3.796534263180000313e+00,-3.585055047209999568e-01,8.908425733510000555e+00,-8.544157445429999276e-02,3.818690031770000104e-02,4.753071814780000792e-02,1.000000000000000000e+00
6.602363380000000337e-01,3.800242177790000397e+00,-3.415496206800000545e-01,8.931779721089998958e+00,-8.991942554710000146e-02,5.135544389490000194e-02,4.653087258340000282e-02,1.000000000000000000e+00
6.651046179999999808e-01,3.843499135709999681e+00,-3.969437372519999951e-01,9.009576077480000222e+00,-1.053960919380000083e-01,5.549348145719999736e-02,4.691822826859999573e-02,1.000000000000000000e+00
6.702249599999999807e-01,3.875608092159999796e+00,-4.251505716910000121e-01,9.062496935810001375e+00,-1.169884055849999965e-01,5.742301419379999827e-02,4.785570129750000429e-02,1.000000000000000000e+00
6.751259339999999831e-01,3.862478561469999683e+00,-3.769694917699999981e-01,9.129175101330000430e+00,-1.350571364160000065e-01,6.031304225330001018e-02,5.170413106680000342e-02,1.000000000000000000e+00
6.801069309999999701e-01,3.806265091340000239e+00,-3.943133156829999875e-01,9.159823922090000181e+00,-1.416165977720000024e-01,6.686464697119999523e-02,5.116901546719999916e-02,1.000000000000000000e+00
6.850725109999999951e-01,3.688457919350000225e+00,-3.978741499700000350e-01,9.117558897809999507e+00,-1.538039296869999906e-01,7.854464650150000393e-02,5.753513053059999827e-02,1.000000000000000000e+00
6.900701489999999660e-01,3.702722299280000406e+00,-4.025842273569999463e-01,9.110153005469999954e+00,-1.758608818050000078e-01,7.038674503560000961e-02,4.070132225750000554e-02,1.000000000000000000e+00
6.951295339999999934e-01,3.588624795459999905e+00,-4.094160096060000531e-01,9.118090228210000703e+00,-1.836793422700000178e-01,8.917861431839999020e-02,4.844245687130000616e-02,1.000000000000000000e+00
7.001319990000000049e-01,3.611478140040000007e+00,-4.225587285670000526e-01,9.103242203169999769e+00,-1.904564946889999999e-01,8.352712541819999614e-02,3.463295474650000122e-02,1.000000000000000000e+00
7.050588070000000096e-01,3.565343580849999583e+00,-4.962630298669999940e-01,9.102929483960000567e+00,-2.195408642289999879e-01,1.042111143469999918e-01,3.823429718609999695e-02,1.000000000000000000e+00
7.101348990000000416e-01,3.576578091569999618e+00,-4.902272933659999610e-01,9.128079707310000401e+00,-2.174636125560000244e-01,1.124035865069999973e-01,5.450341477990000572e-02,1.000000000000000000e+00
7.150564430000000415e-01,3.703490361040000511e+00,-4.450795897919999633e-01,9.159708771280000050e+00,-2.358587682250000150e-01,1.044218540190000044e-01,5.222373828290000769e-02,1.000000000000000000e+00
7.201487239999999623e-01,3.806405376600000334e+00,-3.796705308900000242e-01,9.193743727350000228e+00,-2.336257547139999891e-01,1.033613160249999968e-01,4.075708985330000339e-02,1.000000000000000000e+00
7.252658490000000180e-01,3.770045776969999540e+00,-3.798391289230000356e-01,9.189117821119999974e+00,-2.183788865800000423e-01,8.709764480589998747e-02,6.614645570520000240e-02,1.000000000000000000e+00
7.300803009999999871e-01,3.847119079780000561e+00,-3.946893824539999818e-01,9.130219057419999729e+00,-2.132712751630000125e-01,9.584021568299999627e-02,6.179294735190000304e-02,1.000000000000000000e+00
7.352265510000000059e-01,3.758731186749999953e+00,-4.769765839859999579e-01,9.086777390580000002e+00,-2.058267742400000377e-01,7.327906042339998871e-02,7.982534915210000304e-02,1.000000000000000000e+00
7.401166460000000447e-01,3.776288470749999959e+00,-5.532129975789999987e-01,9.060797146149999648e+00,-2.070591598750000095e-01,6.690866500139999729e-02,7.298692315820000387e-02,1.000000000000000000e+00
7.451013140000000146e-01,3.678708386489999871e+00,-5.971875291879999992e-01,9.035723495170000064e+00,-1.872021853920000090e-01,6.923942267890000057e-02,8.013261109589998876e-02,1.000000000000000000e+00
7.502106920000000123e-01,3.669269527009999532e+00,-6.354198638829999801e-01,8.997907851519999056e+00,-1.794197112319999843e-01,7.803178578620000028e-02,6.975434720520000409e-02,1.000000000000000000e+00
7.550740740000000395e-01,3.565344457640000186e+00,-7.044815635409999999e-01,8.961027442889999861e+00,-1.844639331100000057e-01,5.218582227830000086e-02,7.759099453689999315e-02,1.000000000000000000e+00
7.601159979999999594e-01,3.595401449990000220e+00,-7.525421954200000041e-01,8.909750260110000042e+00,-1.998018324379999822e-01,1.018738448619999903e-01,7.571900635960000792e-02,1.000000000000000000e+00
7.652046329999999674e-01,3.610505203349999803e+00,-7.911861065909999713e-01,8.843173216880000354e+00,-1.942253261800000186e-01,1.019892692569999981e-01,6.695072352889999689e-02,1.000000000000000000e+00
7.700607400000000213e-01,3.669238547349999990e+00,-7.747919480859999375e-01,8.833300057639998926e+00,-1.913160532710000139e-01,1.056243777279999990e-01,5.275228992100000625e-02,1.000000000000000000e+00
7.750729589999999503e-01,3.678034725009999839e+00,-7.323287708879999691e-01,8.819158135040000346e+00,-1.959876865150000091e-01,1.157964766029999926e-01,6.734930723910000083e-02,1.000000000000000000e+00
7.800754060000000267e-01,3.761677177069999711e+00,-6.546222847420000157e-01,8.888495875160000281e+00,-1.874570101500000197e-01,1.135215088729999988e-01,6.871529668569999194e-02,1.000000000000000000e+00
7.850741770000000397e-01,3.707673784209999823e+00,-6.831533826999999226e-01,8.868744880510000428e+00,-1.516245454549999816e-01,1.212137043480000093e-01,7.114639133210000355e-02,1.000000000000000000e+00
7.900277300000000391e-01,3.743150755779999894e+00,-6.655882807190000028e-01,8.854264519739999173e+00,-1.277865618469999909e-01,1.172201782459999925e-01,7.698178291320000033e-02,1.000000000000000000e+00
7.950543289999999486e-01,3.731421155019999603e+00,-7.034685871060000206e-01,8.867043921810001450e+00,-1.225031614299999932e-01,1.340986788269999952e-01,7.875906676049999888e-02,1.000000000000000000e+00
8.000909680000000135e-01,3.760762692580000177e+00,-7.811809915360000689e-01,8.836665150159999982e+00,-1.150562539699999942e-01,1.217289268970000032e-01,8.502700179819999704e-02,1.000000000000000000e+00
8.052227770000000007e-01,3.802000711899999885e+00,-8.199996016869999238e-01,8.894822155569999111e+00,-1.147103905680000036e-01,1.351272314789999929e-01,8.040872961280000342e-02,1.000000000000000000e+00
8.101718060000000499e-01,3.703099315899999855e+00,-8.664632466980000114e-01,8.990532938839999488e+00,-1.087740808730000008e-01,1.190738528969999960e-01,8.570270240310000343e-02,1.000000000000000000e+00
8.150343500000000185e-01,3.679306936899999769e+00,-8.847383966440000025e-01,9.055470398169999768e+00,-1.237614378329999903e-01,1.381143927569999930e-01,7.561222463849999464e-02,1.000000000000000000e+00
8.200791729999999946e-01,3.660740475859999510e+00,-9.545351325779999341e-01,8.953937192370000631e+00,-1.254117786879999918e-01,1.169061660769999955e-01,6.509639322759999680e-02,1.000000000000000000e+00
8.252104529999999549e-01,3.707551326869999553e+00,-9.652559946879999409e-01,8.981747574830000858e+00,-1.342781335119999919e-01,1.294166892770000077e-01,6.727097928519999714e-02,1.000000000000000000e+00
8.300473769999999751e-01,3.790882521030000341e+00,-1.010648576399999943e+00,9.122239164579999837e+00,-1.623713523149999949e-01,1.233273223039999950e-01,5.847864225510000097e-02,1.000000000000000000e+00
8.352038059999999930e-01,3.756761347980000387e+00,-9.447617073870000493e-01,9.300457550660000905e+00,-1.625766009090000019e-01,1.105103492739999971e-01,5.078658834099999964e-02,1.000000000000000000e+00
8.400867109999999860e-01,3.672907298989999791e+00,-9.274491188629999661e-01,9.347716729969999250e+00,-1.742306798699999881e-01,9.710729867219999867e-02,5.005574598910000200e-02,1.000000000000000000e+00
8.450834200000000296e-01,3.662520052749999699e+00,-1.026771370620000123e+00,9.261354205289999086e+00,-1.796032786369999856e-01,8.405467867849999997e-02,3.353961929680000092e-02,1.000000000000000000e+00
8.500400930000000521e-01,3.536948091969999819e+00,-1.064863785389999817e+00,9.226831173439999034e+00,-1.716561466459999852e-01,4.898787662390000075e-02,4.287589713930000518e-02,1.000000000000000000e+00
8.551980000000000137e-01,3.493476322250000266e+00,-1.108885297939999903e+00,9.191370568480000003e+00,-1.571839898819999970e-01,4.549824446439999781e-02,3.248162567619999885e-02,1.000000000000000000e+00
8.602014940000000109e-01,3.481246955280000499e+00,-1.116481817489999973e+00,9.132201755669999699e+00,-1.457472592590000060e-01,2.480174414810000158e-02,2.086261659859999645e-02,1.000000000000000000e+00
8.651814740000000059e-01,3.438923478810000045e+00,-1.078348047800000042e+00,9.131379333370000850e+00,-1.383455246689999918e-01,1.327790506180000045e-02,1.955056004229999839e-02,1.000000000000000000e+00
8.702055629999999598e-01,3.336896936530000080e+00,-1.143164291900000018e+00,9.156457660530000098e+00,-1.286089718339999965e-01,1.939488574859999856e-02,1.546281483020000083e-02,1.000000000000000000e+00
8.751845379999999563e-01,3.333333983349999752e+00,-1.209712255170000139e+00,9.162933578540000568e+00,-9.383444488050000920e-02,4.970170091840000332e-03,1.266112644230000042e-02,1.000000000000000000e+00
8.800783960000000405e-01,3.307663535519999698e+00,-1.229497809679999998e+00,9.194235894780000251e+00,-8.883240073919999868e-02,-1.360721327360000024e-02,-3.448140341789999986e-04,1.000000000000000000e+00
8.850485489999999622e-01,3.295344444439999965e+00,-1.270723554039999925e+00,9.237707372239999160e+00,-6.287211179729999821e-02,-2.933796960860000306e-03,-1.101346686479999851e-02,1.000000000000000000e+00
8.900339149999999533e-01,3.292808788479999915e+00,-1.317031131710000080e+00,9.239744431020000093e+00,-6.187718361619999607e-02,-1.525392010810000185e-02,-2.930028550330000120e-02,1.000000000000000000e+00
8.950266239999999929e-01,3.258815041200000096e+00,-1.321687140819999939e+00,9.236091753740000243e+00,-3.411514312029999968e-02,-3.650721535090000608e-02,-4.919584840540000559e-02,1.000000000000000000e+00
9.000728289999999632e-01,3.270837779690000335e+00,-1.330261054029999945e+00,9.219775994229999938e+00,-1.652118004859999892e-02,-3.641389682890000534e-02,-6.006140261890000054e-02,1.000000000000000000e+00
9.052003840000000245e-01,3.331851635840000103e+00,-1.290374741579999984e+00,9.180742206960001539e+00,-8.491277694699999115e-03,-5.091446265580000519e-02,-7.124768942589998488e-02,1.000000000000000000e+00
9.100696539999999501e-01,3.412228071849999989e+00,-1.207572393600000016e+00,9.156643538490000012e+00,3.232918307190000423e-02,-6.102005019780000483e-02,-8.798834681510001032e-02,1.000000000000000000e+00
9.150721210000000161e-01,3.409740931209999992e+00,-1.148264318460000100e+00,9.141628924709999993e+00,5.438513681289999790e-02,-7.103868573900000427e-02,-9.871681779619999320e-02,1.000000000000000000e+00
9.200759429999999517e-01,3.386848131399999851e+00,-1.069406251119999984e+00,9.182810245399998905e+00,8.062842488289999332e-02,-8.034728467460000578e-02,-9.768309444189998691e-02,1.000000000000000000e+00
9.252260789999999790e-01,3.392235377400000029e+00,-1.018378439999999996e+00,9.162628458119998598e+00,1.275655031200000067e-01,-1.103072389959999927e-01,-1.075450628999999880e-01,1.000000000000000000e+00
9.300464999999999982e-01,3.336920025149999969e+00,-9.337733534479999431e-01,9.182188898630000651e+00,1.333185583350000036e-01,-1.065982356669999964e-01,-8.728374540810000803e-02,1.000000000000000000e+00
9.352087470000000069e-01,3.418997712109999476e+00,-8.873032786960000085e-01,9.196990746450000032e+00,1.695418804879999797e-01,-1.364357471469999916e-01,-1.023613139990000032e-01,1.000000000000000000e+00
9.401577239999999724e-01,3.407228948389999790e+00,-8.467852442159999882e-01,9.219595961489998714e+00,2.086285203700000146e-01,-1.423412114379999927e-01,-9.463364630939999356e-02,1.000000000000000000e+00
9.452157890000000284e-01,3.500797166659999959e+00,-7.864531597849999667e-01,9.203315273290000320e+00,2.416615635159999886e-01,-1.378259807829999850e-01,-1.079184636470000014e-01,1.000000000000000000e+00
9.501706290000000443e-01,3.517841240440000128e+00,-8.148246832669999717e-01,9.115546973469999870e+00,2.525929510589999816e-01,-1.497863531109999979e-01,-9.366743266580000726e-02,1.000000000000000000e+00
9.550784639999999603e-01,3.598486556519999713e+00,-8.844826683169999537e-01,9.051844024369998465e+00,2.529010176660000386e-01,-1.700290590519999978e-01,-1.034903377290000009e-01,0.000000000000000000e+00
9.600795899999999827e-01,3.592228665169999502e+00,-8.761240783600000581e-01,9.059180943130000330e+00,2.590473294260000059e-01,-1.521427035329999955e-01,-1.143127307299999923e-01,0.000000000000000000e+00
9.650607799999999514e-01,3.585810322559999985e+00,-8.374889350180000358e-01,8.999628099439998863e+00,2.598208785059999970e-01,-1.477815657850000131e-01,-1.076065674420000062e-01,0.000000000000000000e+00
9.701789210000000274e-01,3.626517596000000232e+00,-7.580467111210000830e-01,8.972330342670000292e+00,2.651635110380000104e-01,-1.465353369709999909e-01,-1.198104918000000019e-01,0.000000000000000000e+00
9.750392700000000135e-01,3.635105099340000034e+00,-7.177030102949999435e-01,8.966865647520000593e+00,2.333384007220000167e-01,-1.358782500029999951e-01,-1.293261796240000039e-01,0.000000000000000000e+00
9.800886880000000412e-01,3.700818219230000317e+00,-6.495743537029999848e-01,8.905269315310000877e+00,2.234423607590000083e-01,-1.328973472119999999e-01,-1.261170208450000108e-01,1.000000000000000000e+00
9.850668529999999645e-01,3.764387897340000233e+00,-5.548758527570000210e-01,8.875533517739999212e+00,2.197059988980000211e-01,-1.194532886150000001e-01,-1.271284371610000019e-01,1.000000000000000000e+00
9.900305780000000500e-01,3.852553964309999746e+00,-4.746038269730000203e-01,8.862550117519999660e+00,2.208348512649999928e-01,-9.328281879430000423e-02,-1.023215651510000074e-01,1.000000000000000000e+00
9.950557840000000542e-01,3.974524685719999617e+00,-4.341410298110000010e-01,8.902565901570000051e+00,1.985583007339999928e-01,-1.004677116869999998e-01,-9.355795383449999614e-02,1.000000000000000000e+00
1.000086645999999968e+00,4.077401415089999759e+00,-3.534023728960000166e-01,9.045966656770000114e+00,1.881696581839999993e-01,-9.766796976330001379e-02,-1.095171272749999869e-01,1.000000000000000000e+00
1.005214459999999921e+00,3.942022053790000147e+00,-2.976512230469999798e-01,9.145984197309999786e+00,1.682098507879999927e-01,-1.031075790520000063e-01,-8.087980002160000126e-02,1.000000000000000000e+00
1.010017992000000087e+00,3.943349503000000311e+00,-2.881415268259999718e-01,9.128046974080000098e+00,1.581021398310000214e-01,-1.034017428759999996e-01,-7.421766966580001235e-02,1.000000000000000000e+00
1.015048433000000028e+00,3.905059519830000436e+00,-2.380095868320000196e-01,9.136850458260001417e+00,1.222245842219999989e-01,-9.158866852520000656e-02,-6.224269792440000060e-02,1.000000000000000000e+00
1.020101946000000037e+00,3.878606397190000443e+00,-2.356608317480000103e-01,9.129919782220000002e+00,1.154956072570000047e-01,-7.817187905309999629e-02,-4.105178266759999806e-02,1.000000000000000000e+00
1.025204269000000057e+00,3.845028244980000398e+00,-1.973080855440000059e-01,9.129649148580000428e+00,8.425170928240000023e-02,-8.859119564289999471e-02,-4.450116306540000122e-02,1.000000000000000000e+00
1.030050139999999947e+00,3.781293731690000381e+00,-1.786487585850000115e-01,9.084348702130000675e+00,7.615291327239999408e-02,-7.965268939730001108e-02,-1.842337287959999736e-02,1.000000000000000000e+00
1.035204236000000000e+00,3.809548350799999650e+00,-1.657856785490000040e-01,9.056952745680000305e+00,5.138459801669999910e-02,-6.222489848730000661e-02,-9.123475290829999654e-03,1.000000000000000000e+00
1.040160546000000075e+00,3.811255154709999537e+00,-1.719920954420000037e-01,9.018245706149999208e+00,2.182815037669999861e-02,-5.384895950560000116e-02,-1.149375922980000117e-02,1.000000000000000000e+00
1.045088287000000005e+00,3.736624861140000142e+00,-1.585294055450000017e-01,9.052243252820000308e+00,1.471375394609999998e-02,-4.482929408550000161e-02,1.214385032650000008e-02,1.000000000000000000e+00
1.050032255999999942e+00,3.820548760499999918e+00,-1.513742913589999906e-01,9.066823566830001013e+00,-3.572313487530000276e-02,-2.472604624929999884e-02,8.322656154630000969e-03,1.000000000000000000e+00
1.055041501000000048e+00,3.774691849209999894e+00,-1.832829759910000189e-01,9.077519148369999513e+00,-4.424727335570000086e-02,-3.190516959880000149e-03,1.176730543379999987e-02,1.000000000000000000e+00
1.060045316000000071e+00,3.750216748640000208e+00,-2.037105181980000124e-01,9.063820877889998684e+00,-3.605276718739999775e-02,-5.664240103210000515e-03,4.032305628059999758e-02,1.000000000000000000e+00
1.065038216999999898e+00,3.815910287039999904e+00,-2.469291899390000100e-01,9.028754240680001431e+00,-7.172708958389999168e-02,2.371072769169999938e-03,4.901219531890000508e-02,1.000000000000000000e+00
1.070207110999999989e+00,3.825453191409999842e+00,-2.383898183210000077e-01,9.042579352409999771e+00,-9.100749343630000487e-02,3.451832011340000284e-02,3.949154168369999746e-02,1.000000000000000000e+00
1.075108984000000101e+00,3.744252287280000591e+00,-2.969452302019999768e-01,9.004115473989999785e+00,-1.057381704450000015e-01,3.856604546309999604e-02,6.291446834800000498e-02,1.000000000000000000e+00
1.080194936000000050e+00,3.806984930050000049e+00,-2.913003927149999672e-01,8.980603665489999443e+00,-1.160117611289999962e-01,5.011015012860000478e-02,6.839734315869999692e-02,1.000000000000000000e+00
1.085113379999999905e+00,3.816469089970000006e+00,-3.393575539959999832e-01,8.928239272010001670e+00,-1.147200539709999911e-01,3.958065435290000073e-02,7.285029441120000060e-02,1.000000000000000000e+00
1.090065046000000093e+00,3.855460791670000109e+00,-3.896798106639999815e-01,8.897928304900000640e+00,-1.317006498580000073e-01,5.959387868640000224e-02,7.221020013090000134e-02,1.000000000000000000e+00
1.095069048999999906e+00,3.779550102900000041e+00,-3.958405252509999972e-01,8.861798422370000594e+00,-1.394168734550000066e-01,6.112216785550000225e-02,9.615962207319998789e-02,1.000000000000000000e+00
1.099993457999999924e+00,3.841411515789999953e+00,-4.659333580550000242e-01,8.877389959260000296e+00,-1.386466771360000128e-01,8.558717370030001492e-02,9.594579041000000919e-02,1.000000000000000000e+00
1.105076989999999926e+00,3.776742644260000059e+00,-4.762297842069999620e-01,8.892827182360001359e+00,-1.318041831250000018e-01,8.906984329219998220e-02,8.959566056730000616e-02,1.000000000000000000e+00
1.110107265999999981e+00,3.713791974830000342e+00,-5.179002766570000027e-01,8.874967700550000060e+00,-1.281143724920000004e-01,1.003656908870000086e-01,9.912663698199999929e-02,1.000000000000000000e+00
1.115102669999999963e+00,3.729002403440000446e+00,-5.490564989539999941e-01,8.850015630119999699e+00,-1.419998109339999925e-01,1.160234510900000071e-01,1.030542999510000030e-01,1.000000000000000000e+00
1.120127388000000002e+00,3.722902332999999953e+00,-5.955460821239999536e-01,8.842866342889999842e+00,-1.647552400830000208e-01,1.210823804140000043e-01,1.158026605839999890e-01,1.000000000000000000e+00
1.125232146000000100e+00,3.822186006309999939e+00,-7.318551620270000724e-01,8.795995870639998770e+00,-1.837934404610000183e-01,1.437506079670000103e-01,1.218910738829999951e-01,1.000000000000000000e+00
1.130083493999999966e+00,3.960629723619999876e+00,-7.802190146359999634e-01,8.895222553069999094e+00,-1.915391236540000264e-01,1.311253607269999844e-01,1.223994567989999949e-01,0.000000000000000000e+00
1.135220890000000038e+00,3.939406610590000302e+00,-7.699819174559999757e-01,9.101375824779999846e+00,-2.002137005329999997e-01,1.135897263880000091e-01,1.157847940920000013e-01,0.000000000000000000e+00
1.140121791000000107e+00,3.733617496019999926e+00,-7.491028686210000620e-01,9.237887404980000383e+00,-2.293016165489999980e-01,1.245081946249999988e-01,1.192791908980000010e-01,0.000000000000000000e+00
1.145234459999999954e+00,3.536696163040000229e+00,-8.482062899950000290e-01,9.246935803830000467e+00,-2.430136501790000070e-01,1.203131228690000054e-01,1.192665100099999792e-01,0.000000000000000000e+00
1.150216750000000010e+00,3.519111406509999540e+00,-8.598238817489999297e-01,9.253578310589999134e+00,-2.470289170740000151e-01,1.162336394190000011e-01,9.699394553899999549e-02,0.000000000000000000e+00
1.155086913999999965e+00,3.487778110609999871e+00,-8.385555413359999655e-01,9.255701294089998754e+00,-2.633018195630000280e-01,1.029775366190000124e-01,1.134575754400000136e-01,0.000000000000000000e+00
1.160098681000000020e+00,3.627618835239999839e+00,-7.190101473700000190e-01,9.356438381080000255e+00,-2.539056837559999780e-01,9.340471774340000644e-02,9.695076197389999872e-02,0.000000000000000000e+00
1.165241377000000078e+00,3.552833351109999871e+00,-6.080542660409999911e-01,9.385020332439999891e+00,-2.428340464829999990e-01,6.682957708840001065e-02,1.055211052299999952e-01,0.000000000000000000e+00
1.170086890999999962e+00,3.511365322430000102e+00,-5.378868336309999831e-01,9.366652316579999749e+00,-2.430685609580000017e-01,6.251416355370000011e-02,1.138356775049999964e-01,0.000000000000000000e+00
1.175126126999999965e+00,3.483754261919999706e+00,-5.059275878560000050e-01,9.329594797819998675e+00,-2.176268547770000006e-01,5.875771865249999892e-02,1.126555278900000095e-01,0.000000000000000000e+00
1.180123309000000065e+00,3.275098944269999812e+00,-5.262705205200000069e-01,9.386885541789999010e+00,-2.154924869540000010e-01,6.654925644399999063e-02,1.366653144359999961e-01,1.000000000000000000e+00
1.185101849000000040e+00,3.238450883090000065e+00,-4.771672842520000013e-01,9.396920029069999458e+00,-2.087624520059999933e-01,5.459517985580000093e-02,1.438038349149999839e-01,1.000000000000000000e+00
1.190203424999999982e+00,3.268382203230000282e+00,-4.468250086869999804e-01,9.342132207829999757e+00,-1.907031834129999937e-01,4.728517308830000598e-02,1.511241048570000078e-01,1.000000000000000000e+00
1.195093264999999905e+00,3.352508639420000325e+00,-4.523412878909999768e-01,9.311877939339998633e+00,-2.265795171259999963e-01,5.381597206000000161e-02,1.862768381830000042e-01,1.000000000000000000e+00
1.200111887999999905e+00,3.667459262719999558e+00,-4.661756789109999799e-01,9.315171135669999103e+00,-2.010303586719999758e-01,5.871165543790000246e-02,1.717468500140000021e-01,1.000000000000000000e+00
1.205073142000000042e+00,3.865459623110000020e+00,-5.070982390710000454e-01,9.229173352649999273e+00,-2.089358866209999888e-01,7.084394991400000396e-02,1.882093846799999803e-01,0.000000000000000000e+00
1.210087788999999914e+00,4.119295852490000520e+00,-5.202214496140000755e-01,9.183131732439999695e+00,-2.205763608219999949e-01,6.987399607900000864e-02,1.934332847599999905e-01,0.000000000000000000e+00
1.215087202999999949e+00,4.197406389390000214e+00,-6.070532357729999662e-01,9.092167851450000171e+00,-2.198302000759999875e-01,6.775346398350000354e-02,2.166025638580000023e-01,0.000000000000000000e+00
1.220115612999999932e+00,4.438587135340000600e+00,-6.470150976740000059e-01,9.113770611450000558e+00,-2.009544372560000125e-01,3.753801062700000413e-02,2.447011768819999933e-01,0.000000000000000000e+00
1.225074972999999900e+00,4.713001165590000596e+00,-7.748940202210000683e-01,9.161244894810000261e+00,-2.063730955119999766e-01,1.992391888049999896e-03,2.784307599070000028e-01,0.000000000000000000e+00
1.230091473999999963e+00,4.929504566399999455e+00,-9.378580654790000803e-01,9.101928197959999522e+00,-1.946963965890000092e-01,-4.131748899819999432e-02,2.998998165129999616e-01,0.000000000000000000e+00
1.235214419000000063e+00,5.099377733449999894e+00,-9.168762869220000722e-01,8.995867870119999665e+00,-1.822460442780000078e-01,-9.588287770749999439e-02,3.344121873379999887e-01,0.000000000000000000e+00
1.240110217000000015e+00,5.224741896700000332e+00,-7.988811911390000242e-01,9.059321228379999980e+00,-1.524377316240000113e-01,-1.590851545329999839e-01,3.489343822000000039e-01,0.000000000000000000e+00
1.245260322000000031e+00,4.946784787019999463e+00,-6.540456538979999568e-01,9.220351748289999705e+00,-1.100208237769999958e-01,-1.787492334840000141e-01,4.043276309969999760e-01,0.000000000000000000e+00
1.250206297000000077e+00,4.739192422419999495e+00,-5.283088579469999990e-01,9.479197914789999402e+00,-8.848725259299998480e-02,-2.220888435839999953e-01,4.256091415880000062e-01,0.000000000000000000e+00
1.255102466000000083e+00,4.427877817539999761e+00,-5.324393453479999705e-01,9.690439449550000361e+00,-5.924868583679999967e-02,-2.330923527479999979e-01,4.381696283820000204e-01,0.000000000000000000e+00
1.260139479000000007e+00,4.197921645440000127e+00,-5.871478542759999142e-01,9.879455708489999211e+00,-4.345770180229999863e-02,-2.659712731839999900e-01,4.618217945100000499e-01,0.000000000000000000e+00
1.265097444000000015e+00,4.034015277830000912e+00,-6.527651125680000721e-01,1.007256303610000003e+01,-5.774162337180000631e-02,-2.839089334010000409e-01,4.970336854460000175e-01,0.000000000000000000e+00
1.270062452999999980e+00,4.119060582430000395e+00,-7.210325200430000026e-01,1.018993620060000005e+01,-6.358132511380000518e-02,-3.196051716800000220e-01,5.314967632289999688e-01,0.000000000000000000e+00
1.275074342999999999e+00,8.669561447810000487e+00,-3.538778230009999692e+00,1.150103048959999974e+01,-5.081968009469999686e-02,-2.930245399480000401e-01,5.389564633369999802e-01,0.000000000000000000e+00
1.280109979999999981e+00,8.917501020369998699e+00,-2.890806489200000051e+00,9.642832479720000904e+00,-1.049164086580000044e-01,-4.258961677549999991e-01,5.380175113680000232e-01,0.000000000000000000e+00
1.285098077000000005e+00,7.577247856900000578e+00,-2.668970202929999758e+00,9.977740726160000406e+00,-1.673127710820000169e-01,-5.459859967230000777e-01,5.323193669319999932e-01,0.000000000000000000e+00
1.290083738999999952e+00,7.977464734069999786e+00,-2.800684027460000003e+00,1.003101054399999903e+01,-1.687460541730000096e-01,-5.754069089890000432e-01,5.132054090500000054e-01,0.000000000000000000e+00
1.295113951000000041e+00,7.737523174530000603e+00,-2.402696370650000190e+00,9.734879479769999122e+00,-1.634955555200000021e-01,-5.929630994800000332e-01,4.874866902830000126e-01,0.000000000000000000e+00
1.300132395000000107e+00,6.351146557790000813e+00,-2.010661046370000093e+00,1.037222753520000040e+01,-1.786158084870000107e-01,-6.247619986529999725e-01,4.897776544089999518e-01,0.000000000000000000e+00
1.305114416000000110e+00,7.865686613110001169e+00,-1.695380898860000096e+00,9.631618427260001170e+00,-1.337095648049999863e-01,-6.140962839129999740e-01,4.880208671090000005e-01,0.000000000000000000e+00
1.310057342999999985e+00,7.591966118080001102e+00,-2.448973699309999752e+00,9.598937808410001438e+00,-1.419558525090000023e-01,-6.005408763890000001e-01,5.141021013259999828e-01,0.000000000000000000e+00
1.315043594999999899e+00,7.512552974149999230e+00,-2.160209510540000100e+00,9.103108932180001389e+00,-1.981533467770000279e-01,-6.293687820430000635e-01,5.156256556510000477e-01,0.000000000000000000e+00
1.320215380999999910e+00,7.233968087960000126e+00,-2.968407030749999898e+00,8.663687587340000107e+00,-2.215853631500000198e-01,-6.448159813880000035e-01,5.387598276139999864e-01,0.000000000000000000e+00
1.325249415999999902e+00,6.867588013940000735e+00,-4.481114902209999862e+00,9.780189863099998604e+00,-2.654376327990000117e-01,-6.092802882190000435e-01,5.670410990720000655e-01,0.000000000000000000e+00
1.330084876999999999e+00,8.914206654999999202e+00,-3.265007758359999457e+00,7.330929748060000861e+00,-3.690050244330000395e-01,-6.557947993279999999e-01,5.239332914350000037e-01,0.000000000000000000e+00
1.335235380000000083e+00,7.657018143710000224e+00,-3.774134507589999910e+00,6.587035627070000565e+00,-5.438646674160000360e-01,-6.831186413760000908e-01,5.520421266560000539e-01,0.000000000000000000e+00
1.340075523000000102e+00,7.107602638719999533e+00,-3.084605306249999845e+00,7.418982125529999472e+00,-6.676331162449999912e-01,-6.826061606409999927e-01,5.797582864760000287e-01,0.000000000000000000e+00
1.345220088999999897e+00,5.533710230720000567e+00,-2.761355056640000250e+00,8.361402676619999141e+00,-7.218469381329999379e-01,-5.700112581249999755e-01,5.778397321699999534e-01,0.000000000000000000e+00
1.350063899000000012e+00,6.316345878039999917e+00,-3.013359978940000072e+00,8.863640250850000513e+00,-6.946256160739999741e-01,-3.197394311430000191e-01,6.030888557429999741e-01,0.000000000000000000e+00
1.355107247000000070e+00,6.214710965430000122e+00,-3.233194277740000011e+00,8.391565175169999335e+00,-7.134669423100000740e-01,-1.203126907350000052e-01,5.751302838330000222e-01,0.000000000000000000e+00
1.360127496000000047e+00,6.140859547280000719e+00,-3.219377933830000149e+00,8.600007434589999278e+00,-7.186157703399999042e-01,8.479026705030000277e-02,5.673404335980000157e-01,0.000000000000000000e+00
1.365256755999999960e+00,6.463193558819999573e+00,-3.429181252479999831e+00,8.922446075560001688e+00,-7.485359907149999881e-01,2.612488865850000064e-01,5.195870995519999980e-01,0.000000000000000000e+00
1.370210904999999979e+00,6.825413006030000673e+00,-3.722122288540000490e+00,8.886005227389999206e+00,-7.218741178509999745e-01,4.362103641030000145e-01,4.601069092750000311e-01,0.000000000000000000e+00
1.375109986000000006e+00,7.130963056039999692e+00,-3.739981185830000054e+00,8.608091372329999658e+00,-7.070273160930000689e-01,5.711190700529999997e-01,4.127006530760000125e-01,0.000000000000000000e+00
1.380075136000000091e+00,7.472770414339999334e+00,-3.749422675659999982e+00,8.471369948770000491e+00,-6.721726059909999274e-01,6.797592043880000823e-01,3.507594168190000250e-01,0.000000000000000000e+00
1.385245964000000107e+00,7.861474548370000370e+00,-3.773693485819999527e+00,8.440978902160001240e+00,-6.203775405879999871e-01,8.074485063549999841e-01,2.916359305380000211e-01,0.000000000000000000e+00
1.390202637000000019e+00,8.256022732250000828e+00,-3.863978152380000530e+00,8.340745088510001182e+00,-5.427830219270000089e-01,8.686401247980000129e-01,2.310597449540000015e-01,0.000000000000000000e+00
1.395097830999999955e+00,8.541697868969999163e+00,-3.849309283299999773e+00,8.114792891360000482e+00,-4.447032511230000207e-01,8.852360844609999946e-01,1.983481496570000113e-01,0.000000000000000000e+00
1.400127949999999899e+00,8.779629257730000802e+00,-3.700697223190000162e+00,7.930252901039999358e+00,-3.375714421270000209e-01,8.768879175189999708e-01,1.652106493709999957e-01,0.000000000000000000e+00
1.405234864000000083e+00,8.789315954489998362e+00,-3.742240947460000022e+00,7.681288077089999611e+00,-2.296459972859999921e-01,8.408324122429999825e-01,1.467480063440000093e-01,0.000000000000000000e+00
1.410088988999999904e+00,8.871706068399999978e+00,-3.738065999859999877e+00,7.541844535089999191e+00,-9.287714958189999259e-02,7.762909531589999856e-01,1.667563170190000110e-01,0.000000000000000000e+00
1.415220517999999927e+00,8.796278194710000164e+00,-3.752846804890000332e+00,7.330663206080000549e+00,1.916902698579999939e-02,6.717011332510000043e-01,2.062431126829999961e-01,0.000000000000000000e+00
1.420079045000000040e+00,8.842541348719999306e+00,-3.998196068689999993e+00,7.180349895019999984e+00,1.187467202540000016e-01,5.780440568920000022e-01,2.526538074019999969e-01,0.000000000000000000e+00
1.425231297999999924e+00,8.715900589660000364e+00,-4.248312693029999920e+00,7.061337146619999672e+00,2.291845828290000053e-01,4.727099835870000044e-01,2.646960318089999764e-01,0.000000000000000000e+00
1.430218218000000041e+00,8.257294651889999670e+00,-4.501236191480000315e+00,7.069747247569999615e+00,3.160117268559999859e-01,3.632004857060000536e-01,2.909640669820000025e-01,0.000000000000000000e+00
1.435210568000000020e+00,7.949502960430000265e+00,-4.709257010620000017e+00,7.083404601529999844e+00,3.628616333010000194e-01,2.749280929569999921e-01,3.031662702560000144e-01,0.000000000000000000e+00
1.440208944000000102e+00,7.635167546429999952e+00,-4.784613864899999847e+00,7.175690671039999913e+00,4.174892008300000179e-01,1.830164492130000042e-01,3.107385635380000011e-01,0.000000000000000000e+00
1.445232870999999975e+00,7.222984921649999279e+00,-4.910572486909999590e+00,7.156427167639999531e+00,4.320897459979999855e-01,1.461180746560000188e-01,3.180520534519999942e-01,0.000000000000000000e+00
1.450223639000000064e+00,6.820108469880000079e+00,-4.911924486040000204e+00,7.077323820310000180e+00,4.478830099109999963e-01,8.306752145290000056e-02,2.869466543199999387e-01,0.000000000000000000e+00
1.455204235999999929e+00,6.304613354669999836e+00,-4.634302307400000487e+00,6.943206441760001013e+00,4.710556268689999881e-01,8.689540624619999931e-02,2.840823531150000192e-01,0.000000000000000000e+00
1.460142492999999986e+00,5.987486848639999693e+00,-4.448462340409999882e+00,7.000020800399999743e+00,5.136648416519999927e-01,5.025171861050000549e-02,3.023300468919999928e-01,0.000000000000000000e+00
1.465078429999999932e+00,5.762942764720000000e+00,-4.024447823540000080e+00,7.100902848819999669e+00,5.499261021610000189e-01,8.908494561909999221e-02,3.076954483989999822e-01,0.000000000000000000e+00
1.470211299000000027e+00,5.712346549950000352e+00,-3.637192134750000250e+00,7.033227488949999717e+00,6.036354303359999784e-01,1.114687994119999970e-01,3.262620270250000121e-01,0.000000000000000000e+00
1.475090129000000028e+00,5.624376005549999391e+00,-3.197297034920000058e+00,6.976437095710000591e+00,6.873478889470000519e-01,1.280729323630000194e-01,3.470526039599999835e-01,0.000000000000000000e+00
1.480132007999999999e+00,5.460417030970000418e+00,-2.949116639350000124e+00,6.902561127639999405e+00,7.879278659819999309e-01,1.669259220360000129e-01,4.191591143610000070e-01,0.000000000000000000e+00
1.485073357000000094e+00,5.496707657009999970e+00,-2.939102610329999976e+00,6.941950304219999701e+00,9.194216132160000221e-01,1.578848808999999964e-01,4.505204558370000112e-01,0.000000000000000000e+00
1.490200536999999992e+00,5.470451518250000866e+00,-3.041741731549999717e+00,7.062707265930000311e+00,1.034214258190000013e+00,1.827203929419999873e-01,5.251157283780000240e-01,0.000000000000000000e+00
1.495074414000000074e+00,5.453101154999999700e+00,-3.082366879669999893e+00,7.150864857339999325e+00,1.107631206510000021e+00,1.792701482769999966e-01,5.745002031329999870e-01,0.000000000000000000e+00
1.500093711000000107e+00,5.292274633229999914e+00,-3.126889327479999814e+00,7.147391628270000297e+00,1.161799073220000089e+00,1.815048456190000159e-01,6.057158708569999606e-01,0.000000000000000000e+00
1.505241665000000006e+00,5.106141820759999561e+00,-3.182795923620000078e+00,7.210285599079999663e+00,1.206857204439999887e+00,1.987823545930000046e-01,6.409644484520000685e-01,0.000000000000000000e+00
1.510202156999999934e+00,5.069928351609999773e+00,-3.181398916309999603e+00,7.226342415389999552e+00,1.208066344259999925e+00,2.306063175199999649e-01,6.855093836779999616e-01,0.000000000000000000e+00
1.515225403999999942e+00,5.095211845950000651e+00,-3.256093799549999890e+00,7.246490884920000042e+00,1.195124983789999984e+00,2.464638352389999787e-01,7.083140015600000172e-01,0.000000000000000000e+00
1.520116727000000001e+00,5.095891060380000503e+00,-3.224286164140000466e+00,7.217197570419999764e+00,1.171351909640000022e+00,2.624292969699999478e-01,7.386385202410000739e-01,0.000000000000000000e+00
1.525243515000000105e+00,5.111763167769999505e+00,-3.182711167949999975e+00,7.217617257139999687e+00,1.119898796079999981e+00,2.926972210409999886e-01,7.695642113689998842e-01,0.000000000000000000e+00
1.530207796000000009e+00,5.091270999369999828e+00,-3.022334435770000383e+00,7.182734159810000740e+00,1.052675366399999923e+00,3.172033429149999639e-01,7.960509061810000508e-01,0.000000000000000000e+00
1.535189852000000021e+00,4.979931269819999784e+00,-2.868766799090000319e+00,7.010949021649999224e+00,9.823616147040000746e-01,3.463402986529999783e-01,8.184104561810000567e-01,0.000000000000000000e+00
1.540086424999999926e+00,4.977206228770000074e+00,-2.678634103329999849e+00,6.864446208780000447e+00,9.083108901980000427e-01,3.966856002809999726e-01,8.563249111180000206e-01,0.000000000000000000e+00
1.545234258000000027e+00,5.300165094209999594e+00,-2.418283377490000330e+00,6.824765940299999833e+00,8.409798145290000582e-01,3.907206058500000134e-01,8.688479661939999543e-01,0.000000000000000000e+00
1.550086233000000036e+00,5.627776753900000095e+00,-2.155768459349999944e+00,6.671861443700000116e+00,7.947729825970000217e-01,3.893296122550000127e-01,9.142391681670000159e-01,0.000000000000000000e+00
1.555080589999999985e+00,5.873375316290000647e+00,-1.823156653290000317e+00,6.562600273990000233e+00,7.704068422319999554e-01,3.660897910589999693e-01,9.296367764470000461e-01,0.000000000000000000e+00
1.560127679000000045e+00,5.803422074620000259e+00,-1.497156958839999996e+00,6.435085070190000422e+00,7.351660132410000603e-01,3.434829115869999505e-01,9.791789054870000397e-01,0.000000000000000000e+00
1.565197606999999991e+00,5.805699371900000294e+00,-1.099536308710000077e+00,6.321293271320000073e+00,7.280939221379999493e-01,3.172634840010000179e-01,1.006345272059999907e+00,0.000000000000000000e+00
1.570214709000000042e+00,5.669102451499999695e+00,-8.148162076989999836e-01,6.184464295720000671e+00,7.008985877040000423e-01,2.689626216890000365e-01,1.040022492409999888e+00,0.000000000000000000e+00
1.575220288999999996e+00,5.594232796220000026e+00,-6.004342925569999823e-01,6.027931087230000706e+00,7.258701324459999604e-01,1.941175758839999987e-01,1.047193527219999920e+00,0.000000000000000000e+00
1.580128476000000060e+00,5.346504236060000359e+00,-3.830109638920000115e-01,5.905393671839999747e+00,7.414578795430000202e-01,1.573003679509999975e-01,1.063929557800000092e+00,0.000000000000000000e+00
1.585112727000000055e+00,5.127125572079999749e+00,-2.218997068939999873e-01,5.723287630680000682e+00,7.566545605660000007e-01,1.175968572499999920e-01,1.060365200039999900e+00,0.000000000000000000e+00
1.590199715000000014e+00,4.838538931830000500e+00,-1.391406318010000032e-01,5.531703567070000105e+00,7.922616004939999623e-01,9.736194461580001402e-02,1.038718342779999970e+00,0.000000000000000000e+00
1.595022726000000057e+00,4.522134310340000241e+00,-5.129549931419999376e-02,5.390504121310000230e+00,8.018128275870000099e-01,8.570639044050000488e-02,1.028688192369999976e+00,0.000000000000000000e+00
1.600079363999999948e+00,4.226139731920000031e+00,7.653976218729999226e-03,5.202262938389999647e+00,8.025220632549999733e-01,6.659827381369999577e-02,1.011524200440000021e+00,0.000000000000000000e+00
1.605055254000000042e+00,4.069168132009999717e+00,1.719248571579999885e-01,5.003651752619999726e+00,8.101838827130000142e-01,7.023396342990000096e-02,9.800026416779999971e-01,0.000000000000000000e+00
1.610073579000000032e+00,3.812114986409999684e+00,2.425044140329999931e-01,4.821121933090000589e+00,7.853652834890000323e-01,6.171040609480000355e-02,9.662135243420000297e-01,0.000000000000000000e+00
1.615056926000000059e+00,3.611619009820000059e+00,4.220238910379999764e-01,4.575090239980000639e+00,7.904077768330000087e-01,5.106579884890000143e-02,9.321789145469999704e-01,0.000000000000000000e+00
1.620095574000000038e+00,3.347285936340000045e+00,5.207546797079999346e-01,4.483112505769999423e+00,7.956654429440001008e-01,2.591302432120000040e-02,9.180610179899999501e-01,0.000000000000000000e+00
1.625101254000000051e+00,3.218527454480000216e+00,5.880735177539999636e-01,4.369809074930000037e+00,7.753312587739999984e-01,4.074344411490000289e-02,8.978759646420000351e-01,0.000000000000000000e+00
1.630068947000000046e+00,3.133138158750000013e+00,7.627572999649999685e-01,4.316143243450000000e+00,7.787905931470000542e-01,1.249705068770000024e-02,8.777594566349999905e-01,0.000000000000000000e+00
1.635213714000000040e+00,3.006960925550000052e+00,9.123936616150000178e-01,4.349178082569999937e+00,7.464082241060000511e-01,-1.117536239329999966e-02,8.257203102110000081e-01,0.000000000000000000e+00
1.640211180999999963e+00,2.684009658890000427e+00,1.048278707420000178e+00,4.380899793259999342e+00,7.898412346840000264e-01,-2.715144865210000064e-02,7.835388779639999024e-01,0.000000000000000000e+00
1.645121585999999914e+00,2.474792031170000239e+00,1.274343936499999996e+00,4.423550017470000206e+00,7.634083032610000652e-01,-5.895682051780000432e-02,7.200354933740000796e-01,0.000000000000000000e+00
1.650087714999999955e+00,2.240163191090000172e+00,1.462612299679999950e+00,4.501477014499999818e+00,7.595336437230000293e-01,-1.112866699700000156e-01,6.539800763130000361e-01,0.000000000000000000e+00
1.655060248999999928e+00,2.079126095309999922e+00,1.724653901220000174e+00,4.586238241459999365e+00,7.658795118330000706e-01,-1.739550083879999876e-01,5.519645214080000084e-01,0.000000000000000000e+00
1.660081310999999893e+00,1.799703296989999979e+00,1.943687843420000005e+00,4.650909451069999534e+00,8.088514208789999715e-01,-2.178441584109999940e-01,4.766612052920000120e-01,0.000000000000000000e+00
1.665078916999999992e+00,1.567722779449999937e+00,2.229426839149999839e+00,4.715872044850000222e+00,8.144030570980000938e-01,-2.925685942169999887e-01,3.904212117199999943e-01,0.000000000000000000e+00
1.670065898000000049e+00,1.257854866249999981e+00,2.352878446770000131e+00,4.848215399459999908e+00,8.660578131680000125e-01,-3.521837890150000261e-01,3.226765692229999760e-01,0.000000000000000000e+00
1.675064611999999897e+00,1.142771566259999982e+00,2.540918115770000263e+00,5.069829567410000237e+00,8.890787959100000526e-01,-4.349576532839999898e-01,2.321646213530000058e-01,0.000000000000000000e+00
1.680126059000000005e+00,1.030980001289999892e+00,2.684842602580000293e+00,5.298712557320000016e+00,9.329602122310001189e-01,-5.111249685290000233e-01,1.413300484420000058e-01,0.000000000000000000e+00
1.685092970999999995e+00,8.607381470489999797e-01,2.771115403150000045e+00,5.611919844079999997e+00,1.010923504830000041e+00,-5.893787145609999945e-01,9.430213272569999694e-02,0.000000000000000000e+00
1.690090110999999951e+00,8.018323690940000192e-01,2.871000841749999921e+00,5.990354513029999772e+00,1.049955606459999968e+00,-6.615834832190000681e-01,3.953978419299999936e-02,0.000000000000000000e+00
1.695114900999999952e+00,6.578532294879999576e-01,2.895025275940000586e+00,6.254146903759999709e+00,1.116332530979999849e+00,-7.396744489669999645e-01,1.105618570000000030e-02,0.000000000000000000e+00
1.700133471000000007e+00,5.291346777790000289e-01,2.928701335570000008e+00,6.527826482250000062e+00,1.146355271340000037e+00,-8.165795803069999526e-01,-5.994827486569999885e-03,0.000000000000000000e+00
1.705245021000000083e+00,2.454995041960000013e-01,2.921255987999999970e+00,6.813456026259999021e+00,1.216897010799999901e+00,-8.716217875480000155e-01,9.504036046559999340e-03,0.000000000000000000e+00
1.710111187000000088e+00,-1.582105305870000131e-02,2.844950162429999541e+00,7.102732986849999541e+00,1.262150287629999923e+00,-9.398350119589998775e-01,3.295609354969999960e-02,0.000000000000000000e+00
1.715107216000000045e+00,-4.529416284040000407e-01,2.713178762490000118e+00,7.382346631569999040e+00,1.266208410259999972e+00,-9.570094943050000413e-01,7.977647334339998952e-02,0.000000000000000000e+00
1.720123231000000086e+00,-8.027723533580001236e-01,2.479028353569999954e+00,7.657517909920000143e+00,1.267078638079999875e+00,-9.641727805140000163e-01,1.125734224919999887e-01,0.000000000000000000e+00
1.725230116999999952e+00,-1.116429941170000051e+00,2.275803390400000126e+00,7.836506695850000703e+00,1.230900526050000110e+00,-9.498196840289999665e-01,1.637591868640000115e-01,0.000000000000000000e+00
1.730245918999999910e+00,-1.092075398239999995e+00,1.819712650309999846e+00,8.047472336280000249e+00,1.176921248440000012e+00,-9.383165240290000098e-01,2.011871933940000134e-01,0.000000000000000000e+00
1.735128986999999956e+00,-1.573603946450000013e+00,1.957056005170000113e+00,8.194840826060000083e+00,1.110844731329999835e+00,-9.088777303699999699e-01,2.478551566599999645e-01,0.000000000000000000e+00
1.740196105000000104e+00,-1.620216352279999938e+00,2.332465919470000149e+00,8.394222996199999898e+00,9.971107244490000632e-01,-8.818577528000000054e-01,2.898508906360000026e-01,0.000000000000000000e+00
1.745221104999999939e+00,-1.668844774110000095e+00,2.131877003890000122e+00,8.683247443339999094e+00,8.976964950560000212e-01,-8.318259716029999806e-01,3.142236173149999812e-01,0.000000000000000000e+00
1.750248773000000035e+00,-1.452922972579999916e+00,2.210315165309999941e+00,8.871814204950000615e+00,7.844420075419999971e-01,-8.120320439339999696e-01,3.011387586589999721e-01,0.000000000000000000e+00
1.755015876000000086e+00,-1.169704654429999824e+00,2.451995677479999802e+00,9.159564978889999765e+00,6.711518764499999623e-01,-7.758854031559999642e-01,2.970106899739999862e-01,0.000000000000000000e+00
1.759999687000000090e+00,-1.056708389850000041e+00,2.762015858629999876e+00,9.419780680180000587e+00,5.867875218389999592e-01,-7.594178318979999398e-01,2.774241566660000102e-01,0.000000000000000000e+00
1.765036153999999913e+00,-1.125350329729999821e+00,3.203890149579999846e+00,9.602021745900000127e+00,4.845473170279999686e-01,-7.346494197849999797e-01,2.634010314940000153e-01,0.000000000000000000e+00
1.770013280999999994e+00,-1.241378217089999847e+00,3.688220603459999580e+00,9.835954420420000233e+00,4.477945268150000380e-01,-7.409144639970000057e-01,2.250772118569999980e-01,0.000000000000000000e+00
1.775021469999999990e+00,-1.048784026589999918e+00,4.027259373829999767e+00,1.003925697889999924e+01,4.192176759239999995e-01,-7.210843563079999408e-01,1.622789949180000191e-01,0.000000000000000000e+00
1.779959367000000015e+00,-8.481212420610000358e-01,4.312319885770000027e+00,1.022832058410000045e+01,4.091229140759999883e-01,-7.289691567420000240e-01,1.181466802950000006e-01,0.000000000000000000e+00
1.785016967000000010e+00,-8.735808966829999855e-01,4.615129989419999745e+00,1.043341996280000039e+01,4.372813701630000049e-01,-7.147380709649999719e-01,7.125557214019999364e-02,0.000000000000000000e+00
1.790000518999999901e+00,-6.707726245539999965e-01,4.850312079480000094e+00,1.060780739239999981e+01,4.814803004259999852e-01,-7.327650189399999014e-01,1.272196043279999814e-02,0.000000000000000000e+00
1.795010237999999925e+00,-7.832002954690000518e-01,5.095141703319999493e+00,1.066836152209999966e+01,5.440399646760000207e-01,-7.435109615330000032e-01,-5.610059946780000112e-02,0.000000000000000000e+00
1.800007700000000099e+00,-8.638228151919999931e-01,5.271787140990000786e+00,1.071973515100000007e+01,6.271484494210000094e-01,-7.730242013929999878e-01,-1.074400693180000005e-01,0.000000000000000000e+00
1.805210450999999994e+00,-9.008153789589999905e-01,5.234082556499999761e+00,1.073942067920000021e+01,6.992127895360000789e-01,-7.677834630009999772e-01,-1.666538268330000072e-01,0.000000000000000000e+00
1.810076974000000005e+00,-1.160101032849999880e+00,5.193740024719999404e+00,1.076509171160000022e+01,7.819013595579999976e-01,-7.983406782149999881e-01,-2.452937513589999730e-01,0.000000000000000000e+00
1.815227031999999907e+00,-1.074502624409999996e+00,5.121950799790000453e+00,1.076569376910000031e+01,8.601617217059999154e-01,-7.946671247480000533e-01,-3.067098855970000204e-01,0.000000000000000000e+00
1.820256117000000007e+00,-1.235634851129999934e+00,5.130885801399999835e+00,1.077918687240000040e+01,9.232177138330001087e-01,-8.135819435119999721e-01,-3.560577631000000354e-01,0.000000000000000000e+00
1.825094406000000058e+00,-3.433774542389999596e+01,-9.867578515950000684e-01,5.637817437109999474e+01,-9.322263300419998677e-02,1.622456312180000082e-01,1.087273210289999986e-01,0.000000000000000000e+00
1.830242619000000071e+00,1.909245124879999977e+01,-1.569231430449999998e+01,3.941328693919999893e+01,1.913993120190000230e+00,3.242021799090000211e+00,-3.331863880160000346e-01,0.000000000000000000e+00
1.835102586000000091e+00,1.764324963480000008e+00,7.824292526439998952e+00,1.033018287570000027e+01,2.298498392109999955e+00,3.335898399349999988e+00,-5.852766036990000309e-01,0.000000000000000000e+00
1.840235440999999916e+00,-1.009464276599999977e+01,5.637749281859999684e+00,4.343182349290000133e+00,1.501759171489999822e+00,2.314453601840000374e+00,-6.428180932999999486e-01,0.000000000000000000e+00
1.845257863999999914e+00,5.632323603550000168e-01,1.448608031990000100e+00,1.078699959200000080e+01,1.025618910790000005e+00,1.535318017010000036e+00,-9.252867698669999807e-01,0.000000000000000000e+00
1.850246014999999966e+00,4.120101908180000549e+00,3.110933633459999736e+00,1.245700201170000021e+01,7.399510741230000965e-01,1.000736713410000034e+00,-9.037842154499999836e-01,0.000000000000000000e+00
1.855232583999999907e+00,-4.636737425599999796e+00,-1.505714213179999872e+00,2.067592572410000074e+01,1.280432790519999975e-01,1.104699850079999823e+00,-7.806132435799999492e-01,0.000000000000000000e+00
1.860147109999999993e+00,4.513026290250000017e+00,-1.520550109390000015e+00,1.991047326680000040e+01,2.900354564189999707e-01,1.748420119290000185e+00,-5.892111659050000005e-01,0.000000000000000000e+00
1.865261177000000048e+00,3.789836519110000079e+00,1.462298265300000066e+00,1.060681253619999964e+01,6.867130994800000332e-01,1.634566664699999894e+00,-4.588807225229999953e-01,0.000000000000000000e+00
1.870245461999999970e+00,6.276148892209999275e+00,4.622348834760000358e+00,1.226848025829999855e+00,4.911708831790000396e-01,1.001555204390000009e+00,-4.359853565690000599e-01,0.000000000000000000e+00
1.875229038000000070e+00,6.896807094159999707e+00,2.974853722670000256e+00,1.240379415309999978e+01,2.848668694500000043e-01,2.466376572850000060e-01,-1.456685364249999948e-01,0.000000000000000000e+00
1.880158972999999900e+00,8.549751411560000847e+00,2.160183645450000078e+00,1.852008390730000187e+01,2.097941637040000029e-01,3.650338947770000453e-01,5.692498385909999792e-02,0.000000000000000000e+00
1.885097645000000099e+00,1.016263669029999939e+01,1.652760193009999989e+00,1.628320982089999802e+01,3.684056103230000101e-01,5.212664008139999972e-01,1.486770110200000055e-03,0.000000000000000000e+00
1.890068496000000042e+00,1.123909220230000017e+01,-1.567630169270000165e-02,1.593393110380000088e+01,3.366478979590000198e-01,4.985530078410000399e-01,-6.453162431719999814e-02,0.000000000000000000e+00
1.895233745000000081e+00,4.546609410899999482e+00,2.712934724599999736e+00,1.281880118770000010e+01,-2.345775626599999955e-02,8.561689406630000609e-02,-6.186313927170000032e-02,0.000000000000000000e+00
1.900158586000000094e+00,1.497199665470000107e-01,3.404892614390000016e+00,1.441234112989999971e+01,-1.998635232449999799e-01,-1.529995650050000044e-01,-4.443458467720000360e-02,0.000000000000000000e+00
1.905116518000000037e+00,5.280521797720000299e-01,3.989061452860000134e+00,1.475411107880000117e+01,-2.864401340480000058e-01,-2.391181290150000138e-01,9.623780846600000355e-03,0.000000000000000000e+00
1.910083572000000007e+00,9.631544192980000529e-01,2.481122695500000308e+00,1.328239835790000001e+01,-4.302461147309999956e-01,-2.133483141660000026e-01,2.323847636579999543e-02,0.000000000000000000e+00
1.915242973000000015e+00,1.746804504359999788e+00,5.316522500909999227e-01,1.110882214689999969e+01,-6.087467074390000565e-01,-1.887089014050000180e-01,5.630401894450000333e-03,0.000000000000000000e+00
1.920212242000000069e+00,1.778826513170000068e+00,-3.092291038439999862e-01,9.569860767010000657e+00,-7.624166011810000754e-01,-1.240533292290000034e-01,-6.930179148910001197e-02,0.000000000000000000e+00
1.925093213000000025e+00,7.819120092239999487e-01,3.389162719350000130e-02,9.076936380050000253e+00,-8.926013708109999945e-01,-7.047908753160000983e-02,-1.549176573750000174e-01,0.000000000000000000e+00
1.930098206999999899e+00,-8.164145828069999666e-01,1.060940328329999849e+00,8.632123405299999774e+00,-1.000947356220000195e+00,8.057809621099999708e-02,-2.254571020599999975e-01,0.000000000000000000e+00
1.935244667999999946e+00,-2.321815638379999935e+00,1.893553839329999988e+00,8.279226497710000743e+00,-1.009137988089999993e+00,1.906958073380000118e-01,-3.043818473820000259e-01,0.000000000000000000e+00
1.940234784999999906e+00,-3.841941092619999498e+00,2.289794067959999957e+00,8.093220526499999679e+00,-9.792159795759999286e-01,3.184152245519999980e-01,-3.684830069539999919e-01,0.000000000000000000e+00
1.945223217999999976e+00,-4.558021908540000666e+00,2.789654391670000066e+00,8.261951537779999910e+00,-9.405683279040000233e-01,3.860960900779999982e-01,-4.101049304009999896e-01,0.000000000000000000e+00
1.950248385000000084e+00,-1.821951953670000179e+00,2.110761735149999652e+00,8.914356877130000356e+00,-8.256541490549998974e-01,5.097008943559999672e-01,-4.035213589670000323e-01,0.000000000000000000e+00
1.955106518000000015e+00,1.339651745250000081e-01,1.056357457520000098e+00,8.981030366469999748e+00,-7.248542904850000523e-01,5.348484516139999645e-01,-3.837643861770000386e-01,0.000000000000000000e+00
1.960217026000000029e+00,1.699385458320000097e+00,-1.206198593630000097e-03,9.318708662149999711e+00,-5.949433445929999120e-01,5.237956047060000619e-01,-3.837050795560000283e-01,0.000000000000000000e+00
1.965254234999999960e+00,2.518075292579999847e+00,-3.715641621280000306e-01,9.715776719900000913e+00,-4.752035737039999597e-01,4.537506699559999968e-01,-4.171195626259999734e-01,0.000000000000000000e+00
1.970233812000000029e+00,1.824113807879999882e+00,4.591990448309999917e-01,9.783692318260001741e+00,-3.322623670099999482e-01,3.675934970379999833e-01,-4.288024008269999965e-01,0.000000000000000000e+00
1.975059037000000073e+00,2.081276405209999958e-01,1.718458261450000135e+00,9.865933379099999456e+00,-1.695645004509999942e-01,2.534355521199999628e-01,-4.818270206449999926e-01,0.000000000000000000e+00
1.980278983999999909e+00,-7.744933304659999962e-01,1.719155303809999813e+00,9.818679460489999400e+00,5.074921250339999718e-02,1.890788376330000131e-01,-5.210251808169999999e-01,0.000000000000000000e+00
1.985221515000000103e+00,-7.390482153360000694e-01,9.992154743690000451e-01,9.668152214410001832e+00,2.362454980610000088e-01,1.304899752140000202e-01,-5.464617013929999878e-01,0.000000000000000000e+00
1.990103691999999924e+00,4.298318613750000128e-01,3.683481957559999742e-01,9.301686215669999314e+00,4.434951245779999995e-01,6.768694520000000103e-02,-5.368011593820000149e-01,0.000000000000000000e+00
1.995248831999999917e+00,1.690609300539999804e+00,-2.684015832900000231e-01,9.091561117730000419e+00,6.821064949039999936e-01,2.686262596400000157e-03,-5.248032212259999829e-01,0.000000000000000000e+00
2.000164080999999872e+00,2.706695537949999952e+00,-2.879593203929999845e-01,8.911051405840000328e+00,8.807424902920000243e-01,-9.776857495310001256e-02,-5.016618371009999855e-01,0.000000000000000000e+00
2.005228062000000033e+00,3.649160512699999970e+00,-3.356065674319999581e-01,9.008624475839999590e+00,1.105161547660000076e+00,-1.961138695479999750e-01,-4.907359778879999967e-01,0.000000000000000000e+00
2.010088699999999839e+00,4.118362663290000114e+00,-3.505173189790000143e-01,9.312698023550000315e+00,1.321710228920000008e+00,-2.728700339790000040e-01,-4.237013161179999932e-01,0.000000000000000000e+00
2.015014343999999902e+00,4.704189498099999867e+00,-2.804016715550000094e-01,9.394089189560000719e+00,1.512022495270000100e+00,-3.784668445589999819e-01,-3.779888749120000058e-01,0.000000000000000000e+00
2.020136837999999990e+00,5.216365698019999719e+00,-2.746547254009999994e-01,9.311992505630000139e+00,1.722979664799999977e+00,-4.896861910820000108e-01,-3.285502791400000122e-01,0.000000000000000000e+00
2.025109318000000158e+00,5.375255698769999313e+00,-2.921765910280000322e-01,9.400350588039998456e+00,1.871202230449999782e+00,-5.847676396369999585e-01,-2.975355684760000452e-01,0.000000000000000000e+00
2.030095282000000001e+00,5.381496638990000747e+00,-3.001973638659999888e-01,9.317896176719999701e+00,2.011294603350000099e+00,-6.856679320340000050e-01,-2.464050054549999924e-01,0.000000000000000000e+00
2.035259589999999896e+00,5.483592154850000178e+00,-1.601393066929999998e-01,9.173046976280000209e+00,2.142689228060000062e+00,-7.619097232820000176e-01,-2.154445201159999879e-01,0.000000000000000000e+00
2.040197265000000204e+00,5.748077788539999844e+00,-2.345346818290000232e-02,8.842216939069999171e+00,2.225725650790000287e+00,-8.023638129229999638e-01,-2.056785821909999923e-01,0.000000000000000000e+00
2.045118859000000011e+00,5.834813822710000153e+00,7.649551205360001493e-02,8.479235859839999279e+00,2.286363840099999933e+00,-8.605576753620000074e-01,-1.853864192959999990e-01,0.000000000000000000e+00
2.050062370000000023e+00,5.980435761089999858e+00,2.035348876370000060e-01,8.234535123069999685e+00,2.360921621320000163e+00,-8.900465965270000224e-01,-1.701431125400000022e-01,0.000000000000000000e+00
2.055067860999999940e+00,6.109393564909999519e+00,3.761946349400000500e-01,8.020601280489998430e+00,2.390460968020000188e+00,-9.044284224510000803e-01,-1.733365356920000266e-01,0.000000000000000000e+00
2.060235474999999816e+00,6.341492009739999602e+00,3.903059432060000389e-01,7.818406391019999901e+00,2.376643419270000113e+00,-9.080529809000000840e-01,-1.823915094139999804e-01,0.000000000000000000e+00
2.065076547999999956e+00,5.692928148250000042e+00,9.706037123909999620e-01,7.529245165750000801e+00,2.349423646930000054e+00,-9.195347428319999850e-01,-1.966892033819999941e-01,0.000000000000000000e+00
2.070089148000000101e+00,5.208993123430000871e+00,1.284126640970000066e+00,7.519255686660000215e+00,2.293353080749999773e+00,-8.868414759639999811e-01,-2.455197274680000208e-01,0.000000000000000000e+00
2.075090657000000061e+00,4.595251569000000202e+00,1.614601288879999874e+00,7.393171392439999323e+00,2.238427162170000262e+00,-8.467730283740000363e-01,-2.792078852650000109e-01,0.000000000000000000e+00
2.080132767999999910e+00,4.024369789869999714e+00,1.892169983759999896e+00,7.209605215599999006e+00,2.127429246899999793e+00,-8.012510538099999469e-01,-3.089087903500000176e-01,0.000000000000000000e+00
2.085100294000000076e+00,3.558367604359999881e+00,1.985327137020000299e+00,7.297968558700000052e+00,1.993954658509999867e+00,-7.483134865760000531e-01,-3.841041922569999878e-01,0.000000000000000000e+00
2.090047288000000059e+00,3.081028909059999599e+00,1.827983196659999754e+00,7.600113768699999994e+00,1.815063953399999930e+00,-6.668151021000000567e-01,-4.711996316909999871e-01,0.000000000000000000e+00
2.095065927999999911e+00,2.807818409390000269e+00,1.677454781539999829e+00,7.940999920510001253e+00,1.597919464110000076e+00,-5.632476210589999477e-01,-5.805396437640000240e-01,0.000000000000000000e+00
2.099997896000000086e+00,2.720983883280000182e+00,1.682868477149999986e+00,8.126624783449999612e+00,1.364568591120000285e+00,-4.353809952740000377e-01,-6.779614090919999780e-01,0.000000000000000000e+00
2.105100984999999980e+00,2.833358508839999956e+00,2.097205065089999820e+00,8.377874503470000178e+00,1.125139951710000030e+00,-3.395812809470000193e-01,-7.502354979520000633e-01,0.000000000000000000e+00
2.110028216999999984e+00,3.391097897799999927e+00,2.779323844049999881e+00,8.560289756710000475e+00,9.269792437549999597e-01,-2.498851269479999970e-01,-7.939400672910000845e-01,0.000000000000000000e+00
2.115028766000000005e+00,3.779309864400000052e+00,3.543692305540000032e+00,8.830573263029998898e+00,7.959612011910000007e-01,-2.094637602570000035e-01,-8.095434904100000661e-01,0.000000000000000000e+00
2.120031378999999827e+00,4.054650654100000473e+00,4.413399794850000113e+00,9.018184331349999638e+00,7.586560249330001060e-01,-1.830031275750000075e-01,-7.680144309999998864e-01,0.000000000000000000e+00
2.125208445000000168e+00,4.240843087800000077e+00,5.204375400500000026e+00,9.123228175619999547e+00,7.704633474349998901e-01,-1.816847175360000177e-01,-6.933019161220000948e-01,0.000000000000000000e+00
2.130082484999999970e+00,4.252237465249999460e+00,5.570251032130000723e+00,9.225437673250000969e+00,8.299021720890000786e-01,-2.134081274269999939e-01,-6.018246412279999458e-01,0.000000000000000000e+00
2.135224435000000032e+00,4.010452615930000242e+00,5.764688147080000213e+00,9.347772844069998754e+00,9.033493995669999999e-01,-2.755709886550000154e-01,-4.861785471439999951e-01,0.000000000000000000e+00
2.140229772000000086e+00,3.819734229250000279e+00,5.627337193439999830e+00,9.461668687839999592e+00,1.012175917630000033e+00,-3.223180472850000200e-01,-3.914405107500000258e-01,0.000000000000000000e+00
2.145232748999999828e+00,3.334322409869999948e+00,4.996997555430000126e+00,9.402972168719999857e+00,1.068917512889999921e+00,-3.624984920020000168e-01,-2.995925247669999902e-01,0.000000000000000000e+00
2.150061346999999845e+00,3.085114424809999978e+00,4.447072347349999788e+00,9.341288158220001137e+00,1.094133734699999971e+00,-3.999051749710000325e-01,-2.678968906399999961e-01,0.000000000000000000e+00
2.155221603000000208e+00,2.891538602860000307e+00,3.882646904750000072e+00,9.301379926199999204e+00,1.073768377299999965e+00,-4.083082377910000060e-01,-2.654123008250000026e-01,0.000000000000000000e+00
2.160202009999999895e+00,2.782708810309999503e+00,3.638815936559999464e+00,9.266260097510000904e+00,1.002036333079999952e+00,-4.000414609910000197e-01,-2.508622407910000018e-01,0.000000000000000000e+00
2.165102518999999948e+00,2.945860267900000107e+00,3.588939560500000070e+00,9.194628693489999449e+00,9.454417824749999921e-01,-3.953260779379999534e-01,-2.497392445800000194e-01,0.000000000000000000e+00
2.170105529000000200e+00,3.276829421320000435e+00,3.654505673119999631e+00,9.053503482010000880e+00,8.759887218480000293e-01,-3.778529465199999549e-01,-2.734551727769999885e-01,0.000000000000000000e+00
2.175100378999999862e+00,3.456769516630000538e+00,3.805164144359999945e+00,8.837442564269998968e+00,8.114104270940000196e-01,-3.417218625550000333e-01,-2.597685456280000027e-01,0.000000000000000000e+00
2.180233320999999780e+00,3.879120191930000239e+00,3.957794207940000142e+00,8.632754104419998242e+00,7.660709619519999736e-01,-3.514489829540000110e-01,-2.602841556069999673e-01,0.000000000000000000e+00
2.185247422000000217e+00,4.123078878159999405e+00,4.137293866000000264e+00,8.458858842239999731e+00,7.677583694459999553e-01,-3.617646098139999933e-01,-2.461237609389999859e-01,0.000000000000000000e+00
2.190224893999999978e+00,4.251016983550000461e+00,4.249890025350000045e+00,8.333458438630000131e+00,7.726168036460000499e-01,-3.530301153659999858e-01,-2.257325798270000128e-01,0.000000000000000000e+00
2.195232478999999959e+00,4.353787037669999194e+00,4.343944858090000416e+00,8.256475152200000167e+00,7.817114591600000661e-01,-3.692544996739999807e-01,-1.961522251370000081e-01,0.000000000000000000e+00
2.200150736999999967e+00,4.341800831799999649e+00,4.268270316169999745e+00,8.155510686190000413e+00,8.061325550079999624e-01,-3.661418557169999755e-01,-1.796015948059999923e-01,0.000000000000000000e+00
2.205243568999999848e+00,4.317978934450000139e+00,4.144952564059999567e+00,8.059935512010001801e+00,7.927983999250001190e-01,-3.614682555200000036e-01,-1.539013087749999953e-01,0.000000000000000000e+00
2.210224397000000174e+00,4.283955084290000492e+00,3.996516445040000143e+00,7.935602445379999814e+00,7.943547964100000636e-01,-3.391715586190000020e-01,-1.293580681089999962e-01,0.000000000000000000e+00
2.215100333000000088e+00,4.303014005030000533e+00,4.062554266830000316e+00,7.866185210280000284e+00,8.168535232539999580e-01,-3.162570595740000212e-01,-1.189986988900000042e-01,0.000000000000000000e+00
2.220246921000000206e+00,4.336367116319999937e+00,4.146383181380000060e+00,7.816323155000000078e+00,7.875863313670000698e-01,-3.108359277250000163e-01,-9.876437485220000700e-02,0.000000000000000000e+00
2.225220628000000200e+00,4.314648328719999704e+00,4.371634536790000247e+00,7.741196310089999422e+00,8.030800223350000877e-01,-2.806958854200000131e-01,-5.475219711659999600e-02,0.000000000000000000e+00
2.230116737999999987e+00,4.422380389169999759e+00,4.562915233540000060e+00,7.737138559129999926e+00,7.917181849480000588e-01,-2.699102163309999858e-01,-3.967554494739999882e-02,0.000000000000000000e+00
2.235248825999999855e+00,4.420998871680000164e+00,4.679094219809999622e+00,7.721168836579999528e+00,7.811707258220000893e-01,-2.393746227030000007e-01,1.125208847220000169e-02,0.000000000000000000e+00
2.240226188999999923e+00,4.416719294660000017e+00,4.737308508369999949e+00,7.683485879389999162e+00,7.907086014749998837e-01,-2.224610745910000076e-01,2.759514935309999653e-02,0.000000000000000000e+00
2.245228333000000021e+00,3.974116397180000426e+00,4.102025276480000038e+00,8.577172502450000735e+00,6.824245452880000062e-01,-1.548984795810000037e-01,3.526674583549999770e-02,0.000000000000000000e+00
2.250103541000000096e+00,3.871398365510000161e+00,3.917779008409999708e+00,8.115290319480001457e+00,5.468655824660000331e-01,-9.018723666670000472e-02,1.769322529440000083e-02,0.000000000000000000e+00
2.255098999999999965e+00,4.284888858010000412e+00,4.597298856919999288e+00,7.660295557939998723e+00,3.546807467939999681e-01,-6.317875534300000651e-02,2.434907108549999935e-02,1.000000000000000000e+00
2.260228790999999848e+00,4.649400215550000048e+00,5.165244582589999744e+00,7.716534747039999864e+00,1.937975585460000039e-01,-2.645948668939999710e-03,6.566615775229999699e-05,1.000000000000000000e+00
2.265240504999999960e+00,4.475139042669999512e+00,5.767625369580001049e+00,7.205574937169999750e+00,7.257866859440000040e-02,2.422819472850000141e-02,3.655521944169999593e-02,1.000000000000000000e+00
2.270238500000000048e+00,4.308288730560000168e+00,5.881911673969999477e+00,7.282600893699999745e+00,7.013485766949999027e-03,3.872214257719999719e-02,6.950284540649999399e-02,1.000000000000000000e+00
2.275230831000000009e+00,4.349541070669999954e+00,5.680799903559999642e+00,7.306610714839999687e+00,-2.857545576990000100e-02,8.512466400859999838e-02,1.250112652779999944e-01,1.000000000000000000e+00
2.280158634000000184e+00,4.420016582639999747e+00,5.456237699459999924e+00,7.346723529520000184e+00,-5.849739909170000030e-02,8.975420892239999171e-02,1.599179655309999892e-01,1.000000000000000000e+00
2.285248555999999986e+00,4.281376758240000413e+00,4.730337792569999422e+00,7.658052162929999795e+00,-8.103882521389998983e-02,1.052663251760000002e-01,1.910970062020000138e-01,1.000000000000000000e+00
2.290235667999999780e+00,4.132370145859999511e+00,4.075483306509999792e+00,7.773539659810000835e+00,-1.115835681559999987e-01,9.350816905500000664e-02,1.972360908989999884e-01,1.000000000000000000e+00
2.295117164000000098e+00,3.991581034469999789e+00,3.662331836699999954e+00,7.924961808900000015e+00,-1.448628455400000070e-01,1.088228151199999993e-01,1.828662455079999860e-01,1.000000000000000000e+00
2.300126876999999848e+00,4.020260016459999974e+00,3.368136124409999876e+00,8.160369816659999387e+00,-2.149201780559999997e-01,1.300691217180000026e-01,1.633061766620000077e-01,1.000000000000000000e+00
2.305251248999999891e+00,4.168302752240000686e+00,3.451702588630000346e+00,8.111852746249999413e+00,-2.474369704720000285e-01,1.219835057850000015e-01,1.340933889150000002e-01,0.000000000000000000e+00
2.310221902999999966e+00,3.989060868339999733e+00,3.300447320540000007e+00,8.440523559600000780e+00,-2.567198574540000000e-01,9.157212078569998415e-02,1.216567233200000070e-01,0.000000000000000000e+00
2.315236581999999821e+00,3.914325653090000134e+00,3.198046391990000181e+00,8.659075125110000215e+00,-2.635546326639999770e-01,8.642861247060000529e-02,9.368436038489999507e-02,0.000000000000000000e+00
2.320134325999999803e+00,3.657426821269999628e+00,3.151013130390000416e+00,8.476635321950000801e+00,-2.814232707020000168e-01,7.843124121430000706e-02,5.509545654059999631e-02,0.000000000000000000e+00
2.325232651999999955e+00,3.304499226280000368e+00,2.947176611200000185e+00,8.717975642369999889e+00,-3.036302328109999893e-01,6.257407367230000128e-02,4.931303113699999491e-02,0.000000000000000000e+00
2.330231680999999888e+00,3.421542720419999739e+00,3.030254999639999891e+00,8.581825296689999050e+00,-3.120854794979999736e-01,6.540387868880000177e-02,1.117024384439999941e-02,0.000000000000000000e+00
2.335088306999999919e+00,3.454085099850000340e+00,3.271639159200000257e+00,8.463634970599999363e+00,-3.294748663900000096e-01,7.318217307330000809e-02,-1.003693509850000012e-02,0.000000000000000000e+00
2.340250758999999903e+00,3.752101247219999269e+00,3.546084461369999552e+00,8.266344804299999183e+00,-2.935935854910000087e-01,4.093772172930000564e-02,-4.329038038849999936e-02,0.000000000000000000e+00
2.345122020999999890e+00,3.690924017200000407e+00,3.743940152590000014e+00,8.189991632459999948e+00,-2.325788438320000040e-01,3.216523304579999715e-02,-2.856579795479999989e-02,0.000000000000000000e+00
2.350230996000000072e+00,3.774173378289999992e+00,3.698967622920000142e+00,8.242202881219999000e+00,-1.651857793329999935e-01,-1.253657601770000012e-02,-2.481820806859999853e-02,0.000000000000000000e+00
2.355234626000000109e+00,3.687410163859999646e+00,3.676417645199999917e+00,8.229353336519999118e+00,-8.721815049650000207e-02,-3.216448798780000007e-02,3.970453981309999603e-04,1.000000000000000000e+00
2.360150332999999989e+00,3.666767188799999744e+00,3.550985969680000576e+00,8.269689438560000383e+00,-4.123763367530000612e-02,-6.121328845619999903e-02,-6.308960728349999846e-03,1.000000000000000000e+00
2.365215167000000118e+00,3.738080028389999754e+00,3.458071539140000539e+00,8.288202415849999838e+00,2.549985237420000078e-02,-6.244946271179999814e-02,-6.818872876470000871e-03,1.000000000000000000e+00
2.370222770999999895e+00,3.884468274960000134e+00,3.423226143459999538e+00,8.156350644149998885e+00,3.827492520209999777e-02,-5.990987643600000079e-02,-2.509758993979999825e-02,1.000000000000000000e+00
2.375202117999999807e+00,3.945297129940000147e+00,3.650599021070000116e+00,8.083709186310001016e+00,8.586949855089999473e-02,-7.177185267209999775e-02,-2.200016938149999823e-02,1.000000000000000000e+00
2.380227541000000002e+00,3.973412048309999722e+00,3.755212072709999571e+00,8.089260975210001092e+00,1.285967230800000027e-01,-5.914419889449999690e-02,-1.835314929490000288e-02,1.000000000000000000e+00
2.385212204000000114e+00,3.937489086530000737e+00,3.938849853490000275e+00,7.994483088889999145e+00,1.459139138459999985e-01,-7.985452562570000135e-02,-1.027152966709999997e-02,1.000000000000000000e+00
2.390218030999999854e+00,3.818875566590000492e+00,3.983536551959999894e+00,8.030545166869998752e+00,1.763066798449999806e-01,-7.447584718470000309e-02,6.230104714630000338e-03,1.000000000000000000e+00
2.395200203999999999e+00,3.889787131899999917e+00,4.082833669270000243e+00,8.114486601889998596e+00,2.090074121950000197e-01,-6.631480157380000018e-02,8.245145902040000585e-03,1.000000000000000000e+00
2.400147103000000115e+00,3.833871475669999640e+00,4.196099690709999663e+00,8.131387467799999769e+00,2.154640555380000211e-01,-5.903918668630000338e-02,2.105584740639999952e-02,1.000000000000000000e+00
2.405207080999999913e+00,3.905187530130000084e+00,4.289883013039999859e+00,8.151662194069999146e+00,2.216889858249999901e-01,-6.292416155339999873e-02,4.833616316319998968e-02,1.000000000000000000e+00
2.410103016999999959e+00,4.051295498450000032e+00,4.463814515580000197e+00,8.222792662830000765e+00,2.177121937269999863e-01,-5.732858553530000012e-02,4.963076859709999317e-02,1.000000000000000000e+00
2.415018458000000035e+00,4.097429765380000255e+00,4.506026056100000510e+00,8.320544012000000933e+00,1.902692764999999731e-01,-5.060170218349999832e-02,6.512159109119999845e-02,1.000000000000000000e+00
2.419989118999999800e+00,4.073789946599999823e+00,4.448458248749999733e+00,8.280537580309999868e+00,1.625713407990000137e-01,-4.542743787169999103e-02,1.110970005389999987e-01,1.000000000000000000e+00
2.425030254000000163e+00,4.135947712080000116e+00,4.421981160719999693e+00,8.219296052880000758e+00,1.202549785380000041e-01,-4.017465189100000167e-02,9.395638853309999650e-02,1.000000000000000000e+00
2.430234657999999826e+00,4.034256685369999040e+00,4.380765060969999070e+00,8.114489524499999717e+00,5.436400324109999516e-02,-3.718935325740000547e-02,1.099043563010000113e-01,1.000000000000000000e+00
2.435090327999999804e+00,3.985660996770000075e+00,4.398640617139999875e+00,8.087887348769999818e+00,1.139543019240000024e-02,-2.543739229440000402e-02,1.129243671890000078e-01,1.000000000000000000e+00
2.440127227000000065e+00,3.862204128450000162e+00,4.377153592470000021e+00,8.031723562999999899e+00,-5.543111637230000582e-02,-6.752823945130000116e-03,1.206891015169999914e-01,1.000000000000000000e+00
2.445222810999999830e+00,3.733515496949999957e+00,4.380186968819999471e+00,8.048944162399999769e+00,-8.485096693040000693e-02,2.711459062990000113e-02,1.221227720379999965e-01,1.000000000000000000e+00
2.450238854000000188e+00,3.661950728430000357e+00,4.465055747809999254e+00,8.072738879480001017e+00,-1.569041609759999900e-01,3.649420663709999901e-02,1.296592801810000084e-01,1.000000000000000000e+00
2.455106650999999918e+00,3.637360769319999854e+00,4.621809905580000155e+00,8.159068086410000475e+00,-2.135229855779999797e-01,6.382532417769999633e-02,1.224379912020000100e-01,0.000000000000000000e+00
2.460186939999999822e+00,3.647426236259999843e+00,4.697485616549999854e+00,8.139551485040000145e+00,-2.607371807099999605e-01,1.033922433849999989e-01,1.497273445130000158e-01,0.000000000000000000e+00
2.465233190000000185e+00,3.663025956449999843e+00,4.693643846429999655e+00,8.094034180970000492e+00,-2.827230095859999959e-01,1.134219169620000051e-01,1.518745869400000004e-01,0.000000000000000000e+00
2.470246871000000066e+00,3.622886838279999910e+00,4.750255960490000540e+00,8.048762960610000405e+00,-3.118923306470000045e-01,1.187516674400000138e-01,1.871319562200000064e-01,0.000000000000000000e+00
2.475225270999999783e+00,3.761329386549999931e+00,4.793975859750000623e+00,8.060757349790000248e+00,-3.487485945220000216e-01,1.209095269439999926e-01,2.077122330669999850e-01,0.000000000000000000e+00
2.480174960999999900e+00,3.948594710180000078e+00,4.844421560129999804e+00,8.212358947100000250e+00,-3.701227903369999628e-01,1.260678768160000129e-01,2.500436902050000021e-01,0.000000000000000000e+00
2.485065044999999806e+00,4.244726651230000591e+00,4.840027416829999929e+00,8.358911444319998552e+00,-4.035619795319999592e-01,1.211530417200000070e-01,2.703159451480000031e-01,0.000000000000000000e+00
2.489994306999999907e+00,4.427945914340000400e+00,4.801808160809999393e+00,8.558695765519999554e+00,-4.593360424040000001e-01,1.177930831910000004e-01,2.966223359110000124e-01,0.000000000000000000e+00
2.495224515999999948e+00,4.708135020859999464e+00,4.644944989709999916e+00,8.561800161280000765e+00,-5.497132539750000380e-01,1.208115443590000032e-01,3.331848978999999988e-01,0.000000000000000000e+00
2.500152223000000173e+00,5.010625683289999799e+00,4.327163819159999925e+00,8.109386063880000606e+00,-6.268606781959999985e-01,1.201605647800000065e-01,3.642304837699999465e-01,0.000000000000000000e+00
2.505236891000000021e+00,5.880198440310000052e+00,4.151512360959999981e+00,7.531923445050000332e+00,-6.971901655200000159e-01,1.424438804389999980e-01,3.705196678639999797e-01,0.000000000000000000e+00
2.510090345000000056e+00,6.519539715419999659e+00,3.891132409030000350e+00,7.151543487250000553e+00,-7.571707367899999097e-01,1.502757072450000009e-01,4.136821627619999830e-01,0.000000000000000000e+00
2.515012150000000002e+00,6.726235423439999472e+00,3.823106628290000142e+00,7.047598544129999532e+00,-8.046884536740001037e-01,1.646298468109999857e-01,4.251550138000000367e-01,0.000000000000000000e+00
2.520122279000000187e+00,6.428735993420000128e+00,3.830054255469999891e+00,7.051824637389999317e+00,-8.574818968770000494e-01,1.735122501849999943e-01,4.511615335939999638e-01,0.000000000000000000e+00
2.525204609000000211e+00,6.085360947419999889e+00,3.779145321489999709e+00,7.186857377219999954e+00,-9.341129064560000916e-01,2.301601469519999887e-01,4.461880922320000109e-01,0.000000000000000000e+00
2.530204985000000129e+00,5.886584926480000313e+00,3.561954230680000055e+00,7.311303841099999978e+00,-1.021470427509999945e+00,2.745975852010000273e-01,4.590484797950000195e-01,0.000000000000000000e+00
2.535213762000000148e+00,6.380055841409999928e+00,3.165942111719999730e+00,7.488321619209999724e+00,-1.119659781460000003e+00,3.118180334569999879e-01,4.286152422429999609e-01,0.000000000000000000e+00
2.540109186000000019e+00,7.084396535169999787e+00,2.875122013329999948e+00,7.724187307619999387e+00,-1.205509662629999923e+00,3.307784795760000396e-01,4.149903655049999585e-01,0.000000000000000000e+00
2.545038631999999801e+00,7.532634808189999198e+00,2.961102260699999711e+00,7.678011831900000139e+00,-1.321997523310000089e+00,3.109845221040000163e-01,4.057326912879999914e-01,0.000000000000000000e+00
2.550222844999999960e+00,7.470380888850000289e+00,3.402811131950000068e+00,7.556720032660000363e+00,-1.425355076789999842e+00,2.752084136010000126e-01,3.864468634130000524e-01,0.000000000000000000e+00
2.555190175999999980e+00,7.139184356419999489e+00,4.125933098550000011e+00,7.145564412839998880e+00,-1.556484103199999858e+00,2.854507565500000177e-01,3.745740354060000388e-01,0.000000000000000000e+00
2.560113737000000000e+00,7.850300243400000433e+00,-1.254886664090000048e+00,1.013640802409999964e+01,-1.741609334950000143e+00,3.371537327770000037e-01,4.490902721880000170e-01,0.000000000000000000e+00
2.565218509999999785e+00,9.987409887250001006e+00,-1.485906227639999910e+00,1.008143490940000042e+01,-2.036363840099999933e+00,4.700105786320000201e-01,5.892890095709999443e-01,0.000000000000000000e+00
2.570077973000000071e+00,1.094443004160000044e+01,-1.710167987489999764e+00,1.030310314559999973e+01,-2.314970493320000156e+00,4.508455097680000301e-01,6.068401932720000058e-01,0.000000000000000000e+00
2.575201301999999970e+00,1.121263323450000016e+01,-1.318783089939999931e+00,1.099813825089999852e+01,-2.600850582120000087e+00,4.210300445560000160e-01,4.877533912659999804e-01,0.000000000000000000e+00
2.580125208000000114e+00,1.094612983119999861e+01,-9.234969471709999489e-01,1.122053597040000028e+01,-2.859560251240000017e+00,3.942422270770000181e-01,3.829305171969999977e-01,0.000000000000000000e+00
2.585093359000000035e+00,1.106300498309999902e+01,-5.748292381139999963e-01,1.076979945089999902e+01,-3.009932994840000209e+00,3.325304687019999816e-01,3.166997730730000127e-01,0.000000000000000000e+00
2.590034390000000020e+00,1.090117191460000079e+01,-2.701436868499999810e-02,1.009303883790000000e+01,-3.108532190320000055e+00,2.426850348710000160e-01,2.494670450690000263e-01,0.000000000000000000e+00
2.594956455000000162e+00,1.070379407000000072e+01,-1.911186106529999887e-02,9.544413606539999151e+00,-3.154440879820000099e+00,1.156476885080000017e-01,1.763511598109999967e-01,0.000000000000000000e+00
2.600077900000000053e+00,1.088454694300000014e+01,2.242964293050000169e-01,8.339219486379999324e+00,-3.095877170560000113e+00,1.019750908020000159e-02,1.110971495510000018e-01,0.000000000000000000e+00
2.605023570999999816e+00,1.054272321809999902e+01,1.077592918579999948e+00,7.034263846260000896e+00,-2.965218067169999916e+00,-1.217963173990000009e-01,6.929894536730001053e-02,0.000000000000000000e+00
2.610033456000000029e+00,9.448682365019999807e+00,2.585953773810000023e+00,7.009096671780000065e+00,-2.788663625720000372e+00,-2.611469030380000333e-01,2.448980882760000075e-02,0.000000000000000000e+00
2.615025500999999863e+00,8.614006149330000639e+00,3.764192374769999905e+00,7.960591340680000627e+00,-2.425283193590000330e+00,-2.487838119269999981e-01,-4.677498340609999999e-02,0.000000000000000000e+00
2.620011338999999939e+00,8.512821318569999463e+00,4.340637048719999669e+00,8.570410753230000012e+00,-1.963193416600000019e+00,-1.173596084119999938e-01,-1.025585830210000021e-01,0.000000000000000000e+00
2.625079064999999989e+00,9.051278791699999715e+00,4.437242150469999480e+00,8.793511652610000340e+00,-1.460651516910000058e+00,6.064775958660000021e-02,-1.965734809640000136e-01,0.000000000000000000e+00
2.630058965999999998e+00,1.000746483330000025e+01,4.036775682450000069e+00,9.241434283810001205e+00,-9.543472528460000825e-01,2.479774206879999943e-01,-2.789558768270000155e-01,0.000000000000000000e+00
2.635048424999999916e+00,1.115206975249999921e+01,3.170742789999999811e+00,9.815853881679998949e+00,-4.719540476799999884e-01,4.150694310670000053e-01,-3.864405751230000075e-01,0.000000000000000000e+00
2.640132218999999836e+00,1.187234568200000062e+01,2.096599938809999841e+00,1.025825395010000030e+01,-3.577988967299999823e-02,5.392699241639999919e-01,-4.704018831249999755e-01,0.000000000000000000e+00
2.645057045000000162e+00,1.239593700990000080e+01,1.127621270329999925e+00,1.049518522189999992e+01,2.495127469300000289e-01,6.333608031270000494e-01,-5.847314596179999935e-01,0.000000000000000000e+00
2.650081570999999858e+00,1.258305415719999942e+01,9.897963973069999477e-02,1.060847491640000051e+01,4.588299989699999859e-01,6.561457514760000720e-01,-6.835431456569999176e-01,0.000000000000000000e+00
2.655216553999999896e+00,1.263106912329999965e+01,-6.921342692739999025e-01,1.074767062119999927e+01,5.700984597209999283e-01,6.757002472879999333e-01,-7.825918197629999629e-01,0.000000000000000000e+00
2.660052884999999812e+00,1.252630292689999969e+01,-1.342780197730000014e+00,1.086005898300000005e+01,5.884361267090000291e-01,6.403640508649999230e-01,-8.544605374339999670e-01,0.000000000000000000e+00
2.665206858999999984e+00,1.225871815819999888e+01,-1.897569066319999997e+00,1.086334633410000094e+01,5.310818552970000272e-01,6.296922564510000209e-01,-8.817409873010000343e-01,0.000000000000000000e+00
2.670210184000000098e+00,1.151093930470000082e+01,-2.228355702790000059e+00,1.082923012950000086e+01,4.334915578369999412e-01,5.911142826079999191e-01,-8.910035490989999252e-01,0.000000000000000000e+00
2.675204534000000134e+00,1.075873211339999891e+01,-2.382852583150000036e+00,1.068874847659999894e+01,3.306029140949999778e-01,6.141021847719999593e-01,-8.777777552600001254e-01,0.000000000000000000e+00
2.680227475000000137e+00,9.818962369079999419e+00,-2.450374798279999933e+00,1.062694113200000068e+01,1.798657178880000151e-01,6.874111294750000489e-01,-8.395551443100001121e-01,0.000000000000000000e+00
2.685073169999999898e+00,9.093394762890000038e+00,-2.496232294089999915e+00,1.051330189330000131e+01,1.702487468720000063e-02,8.073716759679999688e-01,-8.161073923109999351e-01,0.000000000000000000e+00
2.690024222999999992e+00,8.320514785910001265e+00,-2.396492693699999954e+00,1.034764488259999915e+01,-1.599396169189999939e-01,9.614098668100000689e-01,-7.475774884220000027e-01,0.000000000000000000e+00
2.695201234999999862e+00,8.120888285619999536e+00,-2.231839599379999761e+00,1.015305403840000054e+01,-3.141112327580000141e-01,1.141712784770000155e+00,-7.200945019719999785e-01,0.000000000000000000e+00
2.700074240000000181e+00,7.901159493029999759e+00,-1.990493433740000206e+00,9.922026437719999592e+00,-4.714476764199999614e-01,1.281033515929999922e+00,-6.806123256680000067e-01,0.000000000000000000e+00
2.705035898000000216e+00,8.203789271669998939e+00,-1.616103802389999844e+00,9.718737907789998687e+00,-6.155959367750000188e-01,1.428897380830000063e+00,-6.670402288440000493e-01,0.000000000000000000e+00
2.710059114999999963e+00,8.517695646610000892e+00,-1.100898171650000146e+00,9.340566858210001655e+00,-7.442678213119999775e-01,1.526833653449999995e+00,-6.287099122999999512e-01,0.000000000000000000e+00
2.715072405999999994e+00,8.911325546609999648e+00,-5.825643624109999585e-01,9.032713791960000904e+00,-8.365653753280000160e-01,1.559839606290000180e+00,-6.265394091610000382e-01,0.000000000000000000e+00
2.720220885999999894e+00,9.151347185649999716e+00,-1.952251965890000052e-01,8.662136266250000105e+00,-8.748750686650000885e-01,1.546528577799999971e+00,-6.370958089830000004e-01,0.000000000000000000e+00
2.725107871000000070e+00,9.298909736699998874e+00,2.433879736679999961e-01,8.371452945989998895e+00,-8.751781582829999406e-01,1.489647150040000145e+00,-7.021821737289999366e-01,0.000000000000000000e+00
2.730056284999999860e+00,9.286672186419998809e+00,7.521377062729999174e-01,8.058823166849998998e+00,-8.698294162749999892e-01,1.427780389790000104e+00,-7.617149949070001203e-01,0.000000000000000000e+00
2.735204867999999845e+00,9.318853039049999509e+00,1.116465304739999942e+00,7.679829694969999565e+00,-8.190251588820000039e-01,1.351385951039999922e+00,-8.483067154880000738e-01,0.000000000000000000e+00
2.740118788000000194e+00,8.957877454419998386e+00,1.439392167619999885e+00,7.314140525830000961e+00,-7.294939756389999808e-01,1.269071936610000062e+00,-9.465944170950000291e-01,0.000000000000000000e+00
2.745079814999999979e+00,8.440169339339998800e+00,1.819122867729999982e+00,7.024018346580000127e+00,-6.295705437659999681e-01,1.177477121350000155e+00,-1.012027025220000098e+00,0.000000000000000000e+00
2.750209697999999925e+00,8.088657164099998909e+00,1.882300916170000171e+00,6.871976604289998569e+00,-5.057383179659999950e-01,1.103322744369999997e+00,-1.104305267330000007e+00,0.000000000000000000e+00
2.755044996000000079e+00,7.733940055349999732e+00,2.009931563049999870e+00,6.646403761840000257e+00,-3.566257059570000498e-01,1.020296931270000096e+00,-1.175153732300000087e+00,0.000000000000000000e+00
2.759938866999999796e+00,7.168936520599999085e+00,1.973498167529999847e+00,6.487289304680000868e+00,-2.154744267460000084e-01,9.629448056219999108e-01,-1.215806722640000004e+00,0.000000000000000000e+00
2.764950216999999988e+00,6.601203268629999954e+00,1.752783140379999827e+00,6.178326815880000211e+00,-9.031862020490000198e-02,8.945917487139999347e-01,-1.251867771149999919e+00,0.000000000000000000e+00
2.770002600999999842e+00,5.802264136759999857e+00,1.430076496130000097e+00,5.960501226559999921e+00,3.143846243620000008e-02,8.424785137180000882e-01,-1.265183210370000033e+00,0.000000000000000000e+00
2.775195903000000186e+00,5.174971611360000168e+00,8.649427591320000275e-01,5.797212114069999700e+00,1.120700687169999960e-01,7.833121418950000914e-01,-1.306647777560000057e+00,0.000000000000000000e+00
2.780203288000000050e+00,4.743260110249999606e+00,4.119013236159999591e-01,5.671984728940000942e+00,1.646116375919999819e-01,7.474582791329998921e-01,-1.301058769229999967e+00,0.000000000000000000e+00
2.785209972000000089e+00,4.390918498450000484e+00,-2.850038315880000159e-02,5.487571579879999994e+00,2.093275934459999932e-01,7.173863649370000317e-01,-1.298570513729999876e+00,0.000000000000000000e+00
2.790019834999999837e+00,4.152786326419999341e+00,-4.023451579039999948e-01,5.350241084499999467e+00,1.762461513280000058e-01,7.105298042300001171e-01,-1.292272567749999990e+00,0.000000000000000000e+00
2.795194903000000064e+00,3.818761584819999833e+00,-6.547308596830000438e-01,5.200883466730000571e+00,1.577879637479999986e-01,6.978938579560000077e-01,-1.267894387249999921e+00,0.000000000000000000e+00
2.800096126000000130e+00,3.582043663500000363e+00,-8.447697396759999977e-01,5.117290406759999577e+00,1.028058603410000049e-01,6.380844116210000472e-01,-1.264867424960000042e+00,0.000000000000000000e+00
2.805068316999999922e+00,3.421291668270000308e+00,-9.733538148170000071e-01,5.054791572750000128e+00,5.306245386599999642e-02,6.079580783839999558e-01,-1.239650249479999911e+00,0.000000000000000000e+00
2.810064269000000170e+00,3.328565746040000217e+00,-1.080761392549999922e+00,4.971430567980000603e+00,-2.872893959280000201e-02,5.573971867560000293e-01,-1.219574928279999915e+00,0.000000000000000000e+00
2.815086879999999958e+00,3.285479176249999966e+00,-9.363977836679999722e-01,5.011720492790000314e+00,-1.020168066019999931e-01,4.666404426100000946e-01,-1.191885113720000167e+00,0.000000000000000000e+00
2.820226295999999966e+00,3.156337540290000465e+00,-6.725094582839999946e-01,4.938486914270000305e+00,-1.418145149950000017e-01,3.876253664490000306e-01,-1.165899395939999916e+00,0.000000000000000000e+00
2.825073253999999867e+00,2.800468046619999818e+00,-6.959793273300000083e-01,4.841892041650000422e+00,-2.279974967240000205e-01,2.924508452419999904e-01,-1.123767375949999980e+00,0.000000000000000000e+00
2.830194554999999834e+00,2.299753151920000072e+00,-6.554448531719999638e-01,4.743294304780000026e+00,-2.417231053110000250e-01,1.843265146020000023e-01,-1.130631327629999960e+00,0.000000000000000000e+00
2.835070615999999877e+00,1.711491198920000123e+00,-6.466081973739999933e-01,4.701572301339999704e+00,-2.856511771679999812e-01,9.262166917319999970e-02,-1.131016612050000036e+00,0.000000000000000000e+00
2.840086497999999793e+00,1.276146455870000196e+00,-6.423454253629999888e-01,4.719228369539999690e+00,-3.471748530859999904e-01,1.614050753410000219e-02,-1.155495524410000030e+00,0.000000000000000000e+00
2.845189425000000050e+00,8.368218494110000183e-01,-5.890974539740000404e-01,4.769421848730000413e+00,-3.596938252449999873e-01,-4.373051598669999013e-02,-1.192838311200000057e+00,0.000000000000000000e+00
2.850071144000000167e+00,2.949348950269999881e-01,-3.967303867629999869e-01,4.806088322349999942e+00,-3.997541368010000262e-01,-9.027846157549999917e-02,-1.201533198360000165e+00,0.000000000000000000e+00
2.855020823999999902e+00,-6.553752128680000177e-02,-2.569436299449999808e-02,4.663798743260000101e+00,-4.165502786640000177e-01,-1.245473846790000061e-01,-1.192560315129999937e+00,0.000000000000000000e+00
2.860015109999999972e+00,-5.495686497270000359e-01,2.319487889550000126e-01,4.422296802540000016e+00,-4.155307114119999867e-01,-1.570216715340000124e-01,-1.168835520740000078e+00,0.000000000000000000e+00
2.864986952999999836e+00,-1.049447239739999871e+00,3.905985694770000016e-01,4.153767738670000043e+00,-4.008446931840000116e-01,-2.085669785740000004e-01,-1.117266416549999919e+00,0.000000000000000000e+00
2.870216414999999799e+00,-1.575386738210000193e+00,4.213378450029999778e-01,4.060906499630000610e+00,-3.545987010000000161e-01,-2.703574597839999982e-01,-1.055321931840000005e+00,0.000000000000000000e+00
2.875049386999999790e+00,-1.930606681920000067e+00,4.915741048650000278e-01,4.062145393769999835e+00,-3.298076391220000070e-01,-3.047893047329999772e-01,-9.891511201860000435e-01,0.000000000000000000e+00
2.880037976000000111e+00,-1.989922063590000345e+00,4.915565692090000383e-01,4.157987986720000251e+00,-2.904809415340000034e-01,-3.607159256939999614e-01,-9.416562318799999165e-01,0.000000000000000000e+00
2.885019923000000208e+00,-2.046052385479999902e+00,3.096825101680000247e-01,4.289442868060000080e+00,-2.414598762990000091e-01,-4.079960286620000209e-01,-8.885396718979999831e-01,0.000000000000000000e+00
2.890022373999999949e+00,-2.180942063569999867e+00,1.689885114449999892e-01,4.332503426619999765e+00,-2.261049747470000038e-01,-4.665543436999999849e-01,-8.344144821170000892e-01,0.000000000000000000e+00
2.895190465999999851e+00,-2.296986902070000003e+00,1.585805329439999856e-01,4.440839005919999138e+00,-2.148427516220000055e-01,-5.519121289249999673e-01,-7.989307641980000207e-01,0.000000000000000000e+00
2.900132709000000197e+00,-2.486210666289999871e+00,1.951562960709999905e-01,4.616915411530000846e+00,-1.892622262240000186e-01,-6.327999234200000211e-01,-7.462570667269999847e-01,0.000000000000000000e+00
2.905063386000000136e+00,-2.603520117900000042e+00,8.556304486469998305e-02,4.823942543469999400e+00,-2.034242600199999973e-01,-6.830123662950000618e-01,-6.935083866119999829e-01,0.000000000000000000e+00
2.910061252000000209e+00,-2.799055549480000238e+00,-5.573481976869999743e-02,5.054362533689999992e+00,-2.121425271029999948e-01,-7.783967256550000657e-01,-6.299501061440000438e-01,0.000000000000000000e+00
2.915086515000000045e+00,-2.946675091409999947e+00,-2.055121881919999907e-02,5.196587815360000029e+00,-2.217234522100000049e-01,-8.572266697879999953e-01,-5.828786492349999904e-01,0.000000000000000000e+00
2.920178325999999824e+00,-3.098425741809999856e+00,-9.998603116120000772e-03,5.390653758910000093e+00,-2.606098949910000129e-01,-8.999902606010000694e-01,-5.358248353000000241e-01,0.000000000000000000e+00
2.925024304999999991e+00,-3.215128167429999628e+00,4.700103525690000478e-02,5.648378812430000728e+00,-2.863706052300000193e-01,-9.523062109950000131e-01,-4.367808699610000178e-01,0.000000000000000000e+00
2.930072834999999820e+00,-3.200257930559999853e+00,8.848720694940000533e-03,6.046196227239999388e+00,-3.165865838529999809e-01,-9.853106141090000047e-01,-3.497750461099999875e-01,0.000000000000000000e+00
2.935047953999999848e+00,-3.145904116819999707e+00,-7.592288153110000881e-02,6.448136859459999926e+00,-3.508371412749999863e-01,-1.038364768029999885e+00,-2.565411925319999731e-01,0.000000000000000000e+00
2.940118333000000028e+00,-3.218602565540000349e+00,-1.227773433580000018e-01,6.806375128080000891e+00,-3.764722049239999646e-01,-1.060120582579999970e+00,-1.259644180540000213e-01,0.000000000000000000e+00
2.945092461999999855e+00,-3.194857240559999756e+00,-5.357997525580000114e-02,7.099758939480000919e+00,-4.169034659859999770e-01,-1.082692384720000067e+00,-1.401300821449999977e-02,0.000000000000000000e+00
2.950225142999999939e+00,-3.476061369330000428e+00,-4.595111521209999800e-02,7.431500830840000127e+00,-4.654614627359999757e-01,-1.131657719610000168e+00,7.319835573430000242e-02,0.000000000000000000e+00
